type,name,time_units,begin_time,frequency,count,units
signal_3d,"Noraxon MyoMotion-Trajectories-Body center of mass","s",0.0000,200,4916,"mm"

time,x,y,z
0.0000,0.2160440025,17.01072452,1075.290991
0.0050,0.2157769778,17.01026295,1075.29097
0.0100,0.2155100453,17.00980134,1075.29095
0.0150,0.215243205,17.00933967,1075.290929
0.0200,0.2149523131,17.00883166,1075.290907
0.0250,0.2146388172,17.00827943,1075.290882
0.0300,0.2143044208,17.00768598,1075.290856
0.0350,0.2139508901,17.00705505,1075.290827
0.0400,0.213579959,17.0063908,1075.290798
0.0450,0.2131933248,17.00569756,1075.290767
0.0500,0.2127927035,17.0049795,1075.290735
0.0550,0.212379844,17.00424074,1075.290702
0.0600,0.2119563785,17.00348533,1075.290668
0.0650,0.211523582,17.00271718,1075.290635
0.0700,0.2110821986,17.0019398,1075.290602
0.0750,0.210632355,17.00115647,1075.29057
0.0800,0.2101735058,17.00037058,1075.290539
0.0850,0.2097044651,16.99958576,1075.29051
0.0900,0.2092236162,16.99880569,1075.290485
0.0950,0.208729227,16.99803373,1075.290464
0.1000,0.2082196881,16.99727276,1075.290448
0.1050,0.2076936267,16.99652528,1075.290438
0.1100,0.2071500176,16.99579362,1075.290434
0.1150,0.2065883816,16.99508001,1075.290437
0.1200,0.2060089816,16.99438668,1075.290448
0.1250,0.2054128887,16.99371611,1075.290466
0.1300,0.2048019775,16.99307113,1075.290492
0.1350,0.2041788986,16.99245492,1075.290525
0.1400,0.2035469323,16.99187088,1075.290566
0.1450,0.2029097603,16.99132233,1075.290615
0.1500,0.2022713461,16.99081222,1075.290671
0.1550,0.2009840614,16.98945362,1075.290719
0.1600,0.1997188433,16.98809445,1075.290765
0.1650,0.1984660628,16.9867716,1075.290813
0.1700,0.1972200818,16.98547368,1075.290867
0.1750,0.1959787963,16.98420669,1075.290922
0.1800,0.1947897176,16.9829613,1075.290972
0.1850,0.1936107672,16.98175117,1075.291023
0.1900,0.1924839983,16.98056127,1075.291068
0.1950,0.1913760818,16.97941628,1075.291112
0.2000,0.1902961176,16.97827787,1075.291151
0.2050,0.1892440192,16.97712929,1075.291182
0.2100,0.1882410228,16.97602424,1075.291206
0.2150,0.1872903692,16.97493519,1075.291221
0.2200,0.1863996314,16.9738806,1075.291226
0.2250,0.1855652671,16.9728272,1075.291217
0.2300,0.1847999397,16.97176864,1075.291195
0.2350,0.1840905429,16.97072899,1075.291162
0.2400,0.1834282628,16.96970767,1075.291121
0.2450,0.1828016591,16.96869054,1075.29107
0.2500,0.1822293732,16.96763601,1075.291001
0.2550,0.1816827739,16.96655784,1075.290923
0.2600,0.18117956,16.9654986,1075.290836
0.2650,0.1806925935,16.96440214,1075.290739
0.2700,0.1802077572,16.96329729,1075.290639
0.2750,0.1797603062,16.9621487,1075.290524
0.2800,0.179320637,16.96098342,1075.290404
0.2850,0.1788815496,16.95979455,1075.290279
0.2900,0.1784791493,16.95858762,1075.290145
0.2950,0.1780798722,16.9573611,1075.290008
0.3000,0.177684376,16.95609012,1075.289864
0.3050,0.1772549662,16.95477375,1075.289723
0.3100,0.1768134991,16.95345753,1075.289584
0.3150,0.1763632884,16.95211391,1075.289445
0.3200,0.1758775421,16.95073791,1075.289308
0.3250,0.1753612392,16.94933738,1075.289175
0.3300,0.1747995171,16.94788873,1075.289045
0.3350,0.1742137936,16.94639495,1075.288916
0.3400,0.1735947494,16.94490254,1075.288793
0.3450,0.1729416385,16.94339804,1075.288677
0.3500,0.1722761534,16.94188808,1075.288565
0.3550,0.1715827046,16.94038576,1075.288464
0.3600,0.1708623515,16.93890493,1075.288372
0.3650,0.1701327545,16.93743495,1075.288287
0.3700,0.1693414761,16.93596288,1075.288215
0.3750,0.1685464173,16.93450903,1075.28815
0.3800,0.1677013299,16.93306146,1075.288097
0.3850,0.1668465386,16.93162882,1075.288052
0.3900,0.1659599325,16.93021208,1075.288017
0.3950,0.1650235533,16.92879169,1075.287994
0.4000,0.1640696773,16.92739417,1075.287981
0.4050,0.1631074405,16.92602864,1075.287975
0.4100,0.1621245778,16.92466084,1075.287976
0.4150,0.1611364895,16.92328601,1075.28798
0.4200,0.1601495405,16.92192911,1075.28799
0.4250,0.1591530652,16.92054985,1075.288
0.4300,0.1581411284,16.91918731,1075.288015
0.4350,0.1571344307,16.91783002,1075.288032
0.4400,0.1561092524,16.91650346,1075.288056
0.4450,0.1551240561,16.91514778,1075.28807
0.4500,0.1541398151,16.91380897,1075.288086
0.4550,0.1531696819,16.91246036,1075.288099
0.4600,0.1521888343,16.91116587,1075.28812
0.4650,0.1512405947,16.90986669,1075.288135
0.4700,0.1503182254,16.90858511,1075.288148
0.4750,0.1494200856,16.90732782,1075.288161
0.4800,0.1485237049,16.90609856,1075.288175
0.4850,0.1476556055,16.90488768,1075.288187
0.4900,0.1468371327,16.90369744,1075.288191
0.4950,0.1460142096,16.90252962,1075.2882
0.5000,0.1452342553,16.90140128,1075.288204
0.5050,0.1444755307,16.90029919,1075.288208
0.5100,0.1437248797,16.8992419,1075.288214
0.5150,0.1429777096,16.89821857,1075.288222
0.5200,0.1422160417,16.89723114,1075.288236
0.5250,0.1414117389,16.89627274,1075.288261
0.5300,0.1405478847,16.89537152,1075.288299
0.5350,0.1396529064,16.89452149,1075.288348
0.5400,0.1387291254,16.89371601,1075.288405
0.5450,0.1377717108,16.89297589,1075.288476
0.5500,0.1367757782,16.89231753,1075.288561
0.5550,0.1357781213,16.89173284,1075.288652
0.5600,0.134762665,16.89120549,1075.28875
0.5650,0.1337506732,16.8907648,1075.288855
0.5700,0.132782183,16.89040253,1075.28896
0.5750,0.1318026124,16.89013532,1075.289076
0.5800,0.1308581331,16.88995892,1075.289191
0.5850,0.129954092,16.88982948,1075.289304
0.5900,0.1290438183,16.88981161,1075.289427
0.5950,0.1281201154,16.88984233,1075.289556
0.6000,0.1272039983,16.88996376,1075.289691
0.6050,0.1263015257,16.89015031,1075.289828
0.6100,0.1253973588,16.89040503,1075.289973
0.6150,0.1244668036,16.8907303,1075.290128
0.6200,0.1235249725,16.89109513,1075.29029
0.6250,0.1225689462,16.89153852,1075.290463
0.6300,0.121576659,16.8920641,1075.290652
0.6350,0.1205428722,16.89261694,1075.290853
0.6400,0.1194660844,16.893205,1075.291068
0.6450,0.1183646098,16.89382472,1075.291292
0.6500,0.1172157416,16.89448776,1075.291531
0.6550,0.1160370254,16.89515562,1075.291778
0.6600,0.1148403581,16.89585217,1075.292034
0.6650,0.1136205246,16.89650536,1075.292294
0.6700,0.1124486939,16.89716068,1075.292551
0.6750,0.1112383025,16.89781292,1075.292818
0.6800,0.1100748072,16.89847223,1075.293084
0.6850,0.1088942301,16.89906817,1075.293354
0.6900,0.1076780641,16.89965531,1075.293636
0.6950,0.1064643853,16.90021537,1075.293925
0.7000,0.1051845611,16.90074961,1075.294233
0.7050,0.1038110591,16.90126282,1075.294569
0.7100,0.102331463,16.90170593,1075.29493
0.7150,0.1007098818,16.90214664,1075.295331
0.7200,0.09890935261,16.90254038,1075.295774
0.7250,0.09690088162,16.90290962,1075.296267
0.7300,0.09465931859,16.90325876,1075.296817
0.7350,0.09209360029,16.90353775,1075.297434
0.7400,0.08922158992,16.90375844,1075.298121
0.7450,0.08595079253,16.90397127,1075.298898
0.7500,0.08229440391,16.90412542,1075.299758
0.7550,0.07827136046,16.90425555,1075.300703
0.7600,0.07383220901,16.90434553,1075.301741
0.7650,0.06896460265,16.90445188,1075.302878
0.7700,0.06367189853,16.90456143,1075.304114
0.7750,0.05796552285,16.90467711,1075.305446
0.7800,0.05192110675,16.90478154,1075.306862
0.7850,0.04551685004,16.9049083,1075.308369
0.7900,0.03875282491,16.90509205,1075.309969
0.7950,0.03169779444,16.9052984,1075.311647
0.8000,0.02437225589,16.90550935,1075.313399
0.8050,0.01683613876,16.90576315,1075.315216
0.8100,0.009134678012,16.90600003,1075.317086
0.8150,0.00127700516,16.90625408,1075.319014
0.8200,-0.006707556202,16.90652734,1075.320992
0.8250,-0.01477458596,16.90678212,1075.323009
0.8300,-0.02288606923,16.90703735,1075.325061
0.8350,-0.03106106231,16.90728737,1075.327147
0.8400,-0.03928181845,16.90754466,1075.329269
0.8450,-0.04752803967,16.90779861,1075.331418
0.8500,-0.05581781063,16.90801881,1075.333598
0.8550,-0.06415136791,16.90822726,1075.335808
0.8600,-0.07253652489,16.90843368,1075.338052
0.8650,-0.08096400935,16.90864937,1075.340331
0.8700,-0.08943977001,16.90884949,1075.342642
0.8750,-0.09797682761,16.90904562,1075.34499
0.8800,-0.1065968459,16.90923699,1075.347381
0.8850,-0.1153298841,16.9094532,1075.349821
0.8900,-0.1241311299,16.90965532,1075.3523
0.8950,-0.1330171375,16.90992331,1075.354831
0.9000,-0.1419862351,16.910173,1075.357403
0.9050,-0.1510162809,16.91046122,1075.36002
0.9100,-0.1601107179,16.91078564,1075.362683
0.9150,-0.1692375588,16.91113075,1075.365384
0.9200,-0.1783899763,16.9115302,1075.368124
0.9250,-0.1875875403,16.91196082,1075.370902
0.9300,-0.1968103872,16.9123986,1075.373718
0.9350,-0.2060330375,16.91289067,1075.376566
0.9400,-0.2152729729,16.91337998,1075.379446
0.9450,-0.2245696252,16.91390925,1075.382371
0.9500,-0.233925233,16.91444353,1075.385339
0.9550,-0.243330681,16.9150143,1075.388351
0.9600,-0.2528196054,16.91561161,1075.391414
0.9650,-0.2623816599,16.91625687,1075.394529
0.9700,-0.2720703155,16.91694832,1075.397707
0.9750,-0.2818699235,16.91767616,1075.400944
0.9800,-0.2918135171,16.91843346,1075.404246
0.9850,-0.3018762585,16.91930673,1075.407615
0.9900,-0.3120825085,16.92020629,1075.411048
0.9950,-0.3224420629,16.9211679,1075.414548
1.0000,-0.3329521478,16.92218657,1075.418112
1.0050,-0.3435809684,16.92325421,1075.421737
1.0100,-0.3543892049,16.92439263,1075.425434
1.0150,-0.3653225068,16.92556126,1075.429188
1.0200,-0.3764211748,16.92678414,1075.433013
1.0250,-0.3877045494,16.92804874,1075.436914
1.0300,-0.3991489189,16.92935577,1075.440889
1.0350,-0.4106876851,16.93073092,1075.444928
1.0400,-0.422386661,16.93215233,1075.449041
1.0450,-0.4342273699,16.93361301,1075.453225
1.0500,-0.446197874,16.93510991,1075.45748
1.0550,-0.4583319269,16.93666812,1075.461817
1.0600,-0.4705971883,16.93825882,1075.466225
1.0650,-0.4829765521,16.93984459,1075.470702
1.0700,-0.4954484884,16.94143146,1075.475241
1.0750,-0.5080269884,16.94307597,1075.479854
1.0800,-0.5206987593,16.94475918,1075.484538
1.0850,-0.5334835766,16.94647236,1075.489293
1.0900,-0.5463661729,16.94821525,1075.494121
1.0950,-0.5593254422,16.94999,1075.499018
1.1000,-0.5723905493,16.9518224,1075.503993
1.1050,-0.5855655431,16.95367353,1075.509044
1.1100,-0.5988650892,16.95557676,1075.51418
1.1150,-0.6122483719,16.95750089,1075.519389
1.1200,-0.6257110526,16.95944262,1075.524671
1.1250,-0.6392412203,16.96142276,1075.530031
1.1300,-0.6528097916,16.963392,1075.535455
1.1350,-0.666427682,16.96538183,1075.540953
1.1400,-0.6800639812,16.96737776,1075.546517
1.1450,-0.6936585315,16.96938583,1075.552143
1.1500,-0.7071872576,16.97143125,1075.557826
1.1550,-0.7206563024,16.97344821,1075.563568
1.1600,-0.7340096487,16.97543928,1075.569359
1.1650,-0.7472294818,16.97738254,1075.575196
1.1700,-0.7603217565,16.97923853,1075.581081
1.1750,-0.7732261265,16.98104756,1075.587006
1.1800,-0.7859448093,16.98276578,1075.592972
1.1850,-0.7984375468,16.9844424,1075.598977
1.1900,-0.8107225121,16.98603291,1075.605026
1.1950,-0.8227709924,16.9875365,1075.611115
1.2000,-0.8346229306,16.98897294,1075.617261
1.2050,-0.846323299,16.99034942,1075.623475
1.2100,-0.8578234006,16.99160775,1075.629743
1.2150,-0.8692410071,16.99277656,1075.636095
1.2200,-0.8805301018,16.99386545,1075.642527
1.2250,-0.8917459209,16.99487349,1075.649051
1.2300,-0.9029094125,16.99586337,1075.655681
1.2350,-0.914086944,16.99679733,1075.66243
1.2400,-0.9252721576,16.99769857,1075.669299
1.2450,-0.9365300706,16.99853974,1075.676298
1.2500,-0.9478496529,16.99935045,1075.683429
1.2550,-0.9592615572,17.00010961,1075.690704
1.2600,-0.9707786703,17.0008568,1075.698125
1.2650,-0.9824245231,17.00158644,1075.705696
1.2700,-0.9941707665,17.00232431,1075.713415
1.2750,-1.006033829,17.00306321,1075.721284
1.2800,-1.018052498,17.00382313,1075.729315
1.2850,-1.030216337,17.00455865,1075.737503
1.2900,-1.042495614,17.00529859,1075.745841
1.2950,-1.054893548,17.00603158,1075.754339
1.3000,-1.067440548,17.00680512,1075.763003
1.3050,-1.080146598,17.00760457,1075.771836
1.3100,-1.092925564,17.00849004,1075.780827
1.3150,-1.105859053,17.00944114,1075.789997
1.3200,-1.118915273,17.01047369,1075.799339
1.3250,-1.132092025,17.0116176,1075.808861
1.3300,-1.145419655,17.01286588,1075.818567
1.3350,-1.158919143,17.0142378,1075.828468
1.3400,-1.172597481,17.01573671,1075.838569
1.3450,-1.18643908,17.01737095,1075.848877
1.3500,-1.200500972,17.01913303,1075.859404
1.3550,-1.21476098,17.02098476,1075.870146
1.3600,-1.229239663,17.02295682,1075.881117
1.3650,-1.243970752,17.02506214,1075.892331
1.3700,-1.258944863,17.02730359,1075.903794
1.3750,-1.274152955,17.02964584,1075.915501
1.3800,-1.289660864,17.03210395,1075.927474
1.3850,-1.305420379,17.03468157,1075.939709
1.3900,-1.321444274,17.03731754,1075.952207
1.3950,-1.337730819,17.04006033,1075.964975
1.4000,-1.354269789,17.04287414,1075.978012
1.4050,-1.371077237,17.04578809,1075.991334
1.4100,-1.388125261,17.04879497,1076.004933
1.4150,-1.405447198,17.05193841,1076.018822
1.4200,-1.423027949,17.05516257,1076.032994
1.4250,-1.440875893,17.05849126,1076.047452
1.4300,-1.458998914,17.06197019,1076.06221
1.4350,-1.477359069,17.06554456,1076.077255
1.4400,-1.495978542,17.06924291,1076.092585
1.4450,-1.514904121,17.0730492,1076.108213
1.4500,-1.534108481,17.07696373,1076.124133
1.4550,-1.553559217,17.08105257,1076.140338
1.4600,-1.573300479,17.08527006,1076.15684
1.4650,-1.593341434,17.08961978,1076.173641
1.4700,-1.613685442,17.09417112,1076.190746
1.4750,-1.63436082,17.09889839,1076.208167
1.4800,-1.655321963,17.10383774,1076.225884
1.4850,-1.67660649,17.10895,1076.243908
1.4900,-1.698168408,17.11427419,1076.262234
1.4950,-1.720015049,17.11978493,1076.280858
1.5000,-1.742134817,17.12553411,1076.299777
1.5050,-1.764469502,17.13147621,1076.318976
1.5100,-1.787063869,17.13766565,1076.338461
1.5150,-1.809838324,17.14410405,1076.358223
1.5200,-1.832820612,17.15080034,1076.378269
1.5250,-1.855976865,17.15773284,1076.398572
1.5300,-1.879276991,17.16487178,1076.419129
1.5350,-1.902689571,17.17226202,1076.439929
1.5400,-1.92621945,17.17989795,1076.460981
1.5450,-1.94976953,17.18783458,1076.482266
1.5500,-1.973373219,17.19607254,1076.503786
1.5550,-1.996999748,17.2046331,1076.525532
1.5600,-2.020627057,17.21349009,1076.547499
1.5650,-2.044252092,17.22268264,1076.569688
1.5700,-2.067872283,17.23216614,1076.592093
1.5750,-2.091477769,17.24195847,1076.614711
1.5800,-2.115047393,17.25208193,1076.637533
1.5850,-2.138540943,17.26251768,1076.660544
1.5900,-2.161938425,17.27330978,1076.683748
1.5950,-2.185284218,17.28443456,1076.707151
1.6000,-2.208484922,17.29584936,1076.730731
1.6050,-2.231586523,17.30754275,1076.754495
1.6100,-2.254609067,17.31947925,1076.778444
1.6150,-2.27751434,17.33163507,1076.802568
1.6200,-2.300309269,17.34394256,1076.826872
1.6250,-2.323006798,17.35636242,1076.851336
1.6300,-2.345579495,17.36891821,1076.875971
1.6350,-2.368067593,17.38151068,1076.90077
1.6400,-2.390446534,17.39410373,1076.925717
1.6450,-2.412692944,17.40670241,1076.950803
1.6500,-2.434786457,17.41929726,1076.976024
1.6550,-2.456742567,17.43188282,1077.001377
1.6600,-2.478549439,17.44440711,1077.02685
1.6650,-2.500190351,17.45687997,1077.052431
1.6700,-2.521675519,17.46929066,1077.078122
1.6750,-2.54296068,17.48159282,1077.103903
1.6800,-2.564101309,17.49379662,1077.129776
1.6850,-2.585062636,17.50586993,1077.155731
1.6900,-2.60587762,17.51780525,1077.181759
1.6950,-2.626533794,17.52960373,1077.207855
1.7000,-2.647050248,17.54127911,1077.234017
1.7050,-2.667387796,17.55281693,1077.260216
1.7100,-2.687568592,17.56420604,1077.286458
1.7150,-2.707584845,17.57544495,1077.31273
1.7200,-2.727431939,17.58656094,1077.339028
1.7250,-2.747097915,17.59755341,1077.365343
1.7300,-2.766564302,17.60837225,1077.391657
1.7350,-2.785854002,17.61906225,1077.417983
1.7400,-2.804984317,17.62960285,1077.444326
1.7450,-2.823916652,17.63997589,1077.470643
1.7500,-2.842679903,17.65021109,1077.496956
1.7550,-2.861285901,17.66023357,1077.523248
1.7600,-2.879717015,17.67009931,1077.549506
1.7650,-2.897974785,17.67979966,1077.575736
1.7700,-2.916049406,17.68931948,1077.601927
1.7750,-2.933912304,17.69869354,1077.62806
1.7800,-2.951591924,17.7079031,1077.654145
1.7850,-2.969043053,17.71694535,1077.680173
1.7900,-2.98628837,17.72584815,1077.706143
1.7950,-3.003307281,17.7345826,1077.732045
1.8000,-3.020103633,17.74316971,1077.757886
1.8050,-3.036668706,17.7516176,1077.783655
1.8100,-3.05297619,17.75991249,1077.809351
1.8150,-3.069048499,17.76808947,1077.834963
1.8200,-3.084865582,17.77608041,1077.860485
1.8250,-3.100406258,17.78395143,1077.885931
1.8300,-3.115702433,17.79163863,1077.911285
1.8350,-3.130734247,17.79921883,1077.93656
1.8400,-3.145523061,17.80666042,1077.961752
1.8450,-3.16010495,17.81393118,1077.986862
1.8500,-3.174466851,17.82102472,1078.011899
1.8550,-3.188618638,17.82790922,1078.03686
1.8600,-3.202549619,17.83460393,1078.061732
1.8650,-3.216277299,17.84113508,1078.086528
1.8700,-3.229812315,17.84748973,1078.111248
1.8750,-3.243168843,17.85367313,1078.135894
1.8800,-3.256343741,17.85966367,1078.160465
1.8850,-3.269387119,17.86550849,1078.184991
1.8900,-3.282268222,17.87120043,1078.20946
1.8950,-3.295009738,17.87672954,1078.233873
1.9000,-3.307644184,17.88211361,1078.258256
1.9050,-3.320123393,17.88738123,1078.282599
1.9100,-3.332468462,17.89251977,1078.306919
1.9150,-3.344709955,17.89755283,1078.331218
1.9200,-3.356861827,17.90248233,1078.355496
1.9250,-3.36891649,17.90735215,1078.379783
1.9300,-3.380875302,17.91210526,1078.404068
1.9350,-3.39274603,17.91679481,1078.428371
1.9400,-3.404495366,17.92137538,1078.452685
1.9450,-3.416211104,17.92582644,1078.477029
1.9500,-3.427887353,17.93012994,1078.501405
1.9550,-3.439511587,17.93430606,1078.525814
1.9600,-3.451105674,17.93835751,1078.550268
1.9650,-3.462611109,17.94228555,1078.574754
1.9700,-3.474044636,17.94606339,1078.599281
1.9750,-3.485418282,17.9497077,1078.62385
1.9800,-3.496654084,17.95320857,1078.648449
1.9850,-3.5078171,17.9565457,1078.673095
1.9900,-3.518863685,17.95975215,1078.697789
1.9950,-3.52981144,17.96280769,1078.722528
2.0000,-3.540635255,17.96572972,1078.747306
2.0050,-3.551330819,17.968537,1078.77214
2.0100,-3.561891245,17.97126891,1078.797026
2.0150,-3.572290263,17.97390391,1078.821961
2.0200,-3.582491704,17.97648645,1078.846942
2.0250,-3.592502358,17.9790619,1078.871979
2.0300,-3.602333096,17.98163657,1078.897079
2.0350,-3.611961305,17.98420939,1078.922231
2.0400,-3.621358728,17.9868075,1078.947441
2.0450,-3.630552489,17.98945392,1078.972745
2.0500,-3.639536393,17.99213351,1078.998129
2.0550,-3.648330192,17.99490364,1079.023617
2.0600,-3.656966463,17.99772057,1079.04921
2.0650,-3.66541652,18.00057904,1079.074902
2.0700,-3.673704031,18.00350021,1079.100693
2.0750,-3.681879164,18.00644582,1079.126606
2.0800,-3.689946211,18.0094494,1079.152643
2.0850,-3.697908935,18.01247855,1079.178797
2.0900,-3.705852588,18.01552223,1079.205087
2.0950,-3.713773514,18.01860585,1079.231519
2.1000,-3.721705702,18.02171811,1079.258094
2.1050,-3.729659462,18.02485463,1079.284804
2.1100,-3.737674372,18.02800687,1079.311674
2.1150,-3.74573193,18.03116701,1079.33869
2.1200,-3.753897356,18.03437479,1079.365866
2.1250,-3.762198838,18.03760987,1079.393215
2.1300,-3.770620614,18.04091881,1079.420737
2.1350,-3.779186585,18.04422778,1079.448426
2.1400,-3.787944539,18.04759363,1079.476307
2.1450,-3.796877311,18.0510216,1079.504359
2.1500,-3.805981467,18.054515,1079.532582
2.1550,-3.815286948,18.05811277,1079.560984
2.1600,-3.824782865,18.06184389,1079.589579
2.1650,-3.834457069,18.06566738,1079.61836
2.1700,-3.844332354,18.06961866,1079.647329
2.1750,-3.854334699,18.07373216,1079.676482
2.1800,-3.864491138,18.07798478,1079.705821
2.1850,-3.874759759,18.08236254,1079.735324
2.1900,-3.885190103,18.0868916,1079.765011
2.1950,-3.89571145,18.0915549,1079.794873
2.2000,-3.906338223,18.09635159,1079.824894
2.2050,-3.917096642,18.10123598,1079.855074
2.2100,-3.927993133,18.10623578,1079.885411
2.2150,-3.93901472,18.11136904,1079.915924
2.2200,-3.950163034,18.11662573,1079.946604
2.2250,-3.96144043,18.12195486,1079.977432
2.2300,-3.972830134,18.12737095,1080.0084
2.2350,-3.984301225,18.13281906,1080.039484
2.2400,-3.995893625,18.1384059,1080.0707
2.2450,-4.007553528,18.14408901,1080.102045
2.2500,-4.019332312,18.14988975,1080.133516
2.2550,-4.031204355,18.15578278,1080.165096
2.2600,-4.043175538,18.16172642,1080.196773
2.2650,-4.055276233,18.16774194,1080.228548
2.2700,-4.067461493,18.17388371,1080.26041
2.2750,-4.079750339,18.18013247,1080.292373
2.2800,-4.092108239,18.18653008,1080.324423
2.2850,-4.104482419,18.1931039,1080.356545
2.2900,-4.116845743,18.19984524,1080.388721
2.2950,-4.129186153,18.20677299,1080.420952
2.3000,-4.141508315,18.21384133,1080.453234
2.3050,-4.153834999,18.22105317,1080.485547
2.3100,-4.166132407,18.22835145,1080.517883
2.3150,-4.178458512,18.23574613,1080.550253
2.3200,-4.190782293,18.24321074,1080.582639
2.3250,-4.203120192,18.25068886,1080.61504
2.3300,-4.215480648,18.25825694,1080.647466
2.3350,-4.2278502,18.26590195,1080.679895
2.3400,-4.240229197,18.27359572,1080.712312
2.3450,-4.252620031,18.28130872,1080.744711
2.3500,-4.265055875,18.28906423,1080.777095
2.3550,-4.277481001,18.29685427,1080.809448
2.3600,-4.289926166,18.3047187,1080.841782
2.3650,-4.302426488,18.31260487,1080.874086
2.3700,-4.31496567,18.3205008,1080.906376
2.3750,-4.327568275,18.32835208,1080.938621
2.3800,-4.340266312,18.336161,1080.970842
2.3850,-4.353066659,18.34397823,1081.003032
2.3900,-4.365919959,18.35174726,1081.035173
2.3950,-4.378816627,18.3595343,1081.067272
2.4000,-4.391760967,18.3673079,1081.099314
2.4050,-4.404732725,18.37510043,1081.131313
2.4100,-4.417728655,18.3829349,1081.163258
2.4150,-4.430744843,18.39076579,1081.195142
2.4200,-4.443766891,18.39862038,1081.226968
2.4250,-4.456768126,18.40651489,1081.258724
2.4300,-4.469776394,18.41448286,1081.290439
2.4350,-4.482744428,18.42250294,1081.32208
2.4400,-4.495633028,18.43055588,1081.353617
2.4450,-4.508436137,18.43860085,1081.385043
2.4500,-4.521165167,18.44661507,1081.416358
2.4550,-4.533830085,18.45455955,1081.447549
2.4600,-4.546464615,18.4624358,1081.47862
2.4650,-4.559047954,18.47020683,1081.509539
2.4700,-4.57159512,18.47785571,1081.540315
2.4750,-4.584180551,18.48535923,1081.570959
2.4800,-4.596775782,18.49273795,1081.601474
2.4850,-4.609410431,18.50004552,1081.63187
2.4900,-4.622043537,18.50731302,1081.662138
2.4950,-4.634684085,18.51462212,1081.692293
2.5000,-4.647270227,18.52201007,1081.722331
2.5050,-4.659788799,18.52954211,1081.752271
2.5100,-4.672181467,18.53720043,1081.782084
2.5150,-4.684417021,18.54496674,1081.811741
2.5200,-4.696452877,18.55285591,1081.841232
2.5250,-4.708291852,18.56087339,1081.870564
2.5300,-4.719990577,18.56898218,1081.899744
2.5350,-4.731519736,18.5772102,1081.928772
2.5400,-4.742872961,18.5854837,1081.957632
2.5450,-4.754058882,18.59378007,1081.986293
2.5500,-4.76500801,18.60212357,1082.014749
2.5550,-4.77575524,18.61044878,1082.042992
2.5600,-4.786244952,18.61879875,1082.071002
2.5650,-4.796488931,18.62713883,1082.098791
2.5700,-4.806506428,18.63538804,1082.126343
2.5750,-4.816306532,18.64357921,1082.153652
2.5800,-4.825919374,18.65166912,1082.180718
2.5850,-4.835372175,18.65964766,1082.207551
2.5900,-4.844694393,18.66748284,1082.234148
2.5950,-4.853827325,18.67518861,1082.260494
2.6000,-4.862818072,18.68279491,1082.286616
2.6050,-4.871604954,18.69030582,1082.312512
2.6100,-4.880210933,18.69779367,1082.338199
2.6150,-4.888566017,18.70523866,1082.363657
2.6200,-4.896727877,18.7126716,1082.388921
2.6250,-4.904658549,18.72015449,1082.413992
2.6300,-4.912338086,18.72766717,1082.438865
2.6350,-4.91976584,18.73522144,1082.463555
2.6400,-4.926934929,18.74279758,1082.488066
2.6450,-4.933801048,18.75042985,1082.512403
2.6500,-4.940365191,18.75805722,1082.536549
2.6550,-4.946654404,18.76563994,1082.560505
2.6600,-4.952645441,18.77311286,1082.584248
2.6650,-4.958335464,18.78049276,1082.607787
2.6700,-4.963797287,18.78770303,1082.631124
2.6750,-4.969008037,18.7947566,1082.654258
2.6800,-4.974010406,18.80162049,1082.677195
2.6850,-4.978828062,18.80828835,1082.699946
2.6900,-4.983513102,18.81480573,1082.722529
2.6950,-4.988069034,18.82114362,1082.744945
2.7000,-4.992451177,18.82730851,1082.767187
2.7050,-4.996686226,18.83332981,1082.789265
2.7100,-5.000717375,18.83918747,1082.811155
2.7150,-5.004596606,18.8449381,1082.832906
2.7200,-5.00832144,18.85058887,1082.854519
2.7250,-5.011875159,18.85611938,1082.875959
2.7300,-5.015229942,18.86154887,1082.897215
2.7350,-5.018466246,18.8668759,1082.918329
2.7400,-5.021561275,18.8721171,1082.939311
2.7450,-5.024546549,18.87732648,1082.960177
2.7500,-5.027425503,18.8825346,1082.980926
2.7550,-5.030195907,18.88770746,1083.001563
2.7600,-5.032854226,18.89284839,1083.022101
2.7650,-5.035418325,18.89802592,1083.042576
2.7700,-5.037851199,18.90327524,1083.062974
2.7750,-5.040116408,18.90856303,1083.083278
2.7800,-5.042185493,18.91390937,1083.103481
2.7850,-5.044041949,18.91926756,1083.123577
2.7900,-5.045718363,18.92455262,1083.143549
2.7950,-5.047244161,18.92971654,1083.163393
2.8000,-5.048695456,18.93471384,1083.183129
2.8050,-5.050073728,18.9395299,1083.202755
2.8100,-5.051383051,18.94414374,1083.222275
2.8150,-5.052624355,18.94857769,1083.241696
2.8200,-5.053813869,18.95282963,1083.261041
2.8250,-5.054888164,18.95692971,1083.280276
2.8300,-5.055787027,18.96089728,1083.299395
2.8350,-5.056507723,18.96479055,1083.318419
2.8400,-5.056969066,18.96859385,1083.337313
2.8450,-5.057172619,18.97232041,1083.356084
2.8500,-5.057145933,18.97590965,1083.374721
2.8550,-5.056861832,18.97940586,1083.393246
2.8600,-5.056325509,18.98274581,1083.411652
2.8650,-5.055540918,18.98593041,1083.42992
2.8700,-5.054525603,18.98893174,1083.448044
2.8750,-5.053284468,18.99169865,1083.466033
2.8800,-5.05184888,18.99421165,1083.483891
2.8850,-5.050181522,18.99644466,1083.501596
2.8900,-5.04828324,18.9984485,1083.519174
2.8950,-5.046216032,19.0001203,1083.536619
2.9000,-5.0439279,19.00149258,1083.553933
2.9050,-5.041535846,19.00249724,1083.571125
2.9100,-5.039015873,19.00315596,1083.588188
2.9150,-5.036418133,19.00344287,1083.60514
2.9200,-5.03376,19.00333005,1083.621983
2.9250,-5.031041275,19.0028348,1083.638706
2.9300,-5.028326314,19.00195719,1083.655348
2.9350,-5.025625026,19.00065996,1083.671899
2.9400,-5.022940543,18.99898597,1083.688367
2.9450,-5.020349775,18.99692396,1083.704765
2.9500,-5.017796029,18.99451946,1083.721082
2.9550,-5.015283962,18.99181542,1083.73732
2.9600,-5.012803251,18.98883665,1083.753461
2.9650,-5.01041841,18.98557706,1083.769553
2.9700,-5.008113195,18.98213939,1083.785606
2.9750,-5.005867146,18.97854377,1083.801613
2.9800,-5.003652875,18.97482149,1083.817562
2.9850,-5.001491238,18.9710127,1083.833466
2.9900,-4.999361855,18.96705933,1083.849321
2.9950,-4.99728895,18.96299965,1083.865122
3.0000,-4.995256153,18.95891263,1083.880865
3.0050,-4.993291682,18.95478246,1083.896557
3.0100,-4.991418842,18.95068589,1083.912221
3.0150,-4.989569302,18.94664463,1083.927837
3.0200,-4.987706834,18.94270496,1083.94339
3.0250,-4.98583844,18.93889966,1083.958898
3.0300,-4.983940211,18.93518177,1083.974322
3.0350,-4.981968777,18.93162383,1083.989676
3.0400,-4.979967621,18.92820625,1084.00495
3.0450,-4.977918037,18.92493102,1084.020155
3.0500,-4.975805486,18.92178758,1084.03528
3.0550,-4.97361331,18.9188503,1084.050334
3.0600,-4.971337955,18.91607766,1084.06529
3.0650,-4.968979666,18.91347155,1084.080156
3.0700,-4.966569977,18.91098521,1084.094921
3.0750,-4.96411492,18.90865041,1084.109595
3.0800,-4.961652059,18.90646284,1084.124203
3.0850,-4.95918598,18.90439725,1084.138739
3.0900,-4.956731766,18.90249884,1084.153227
3.0950,-4.954232813,18.90079161,1084.167664
3.1000,-4.951685423,18.89924589,1084.182029
3.1050,-4.949087308,18.89786716,1084.19633
3.1100,-4.946439065,18.89666953,1084.210577
3.1150,-4.943811344,18.89562002,1084.224798
3.1200,-4.941169187,18.89476378,1084.238991
3.1250,-4.938590772,18.89405118,1084.253188
3.1300,-4.936072802,18.89349591,1084.267395
3.1350,-4.933600207,18.89307642,1084.281592
3.1400,-4.931186761,18.8928006,1084.295805
3.1450,-4.928794172,18.89267716,1084.310011
3.1500,-4.926437891,18.8926907,1084.324225
3.1550,-4.924070984,18.89283525,1084.338406
3.1600,-4.921688567,18.89311957,1084.352567
3.1650,-4.919322199,18.893455,1084.366699
3.1700,-4.916982773,18.89388615,1084.380828
3.1750,-4.914648224,18.8943855,1084.394924
3.1800,-4.912342217,18.89489874,1084.408982
3.1850,-4.910125815,18.89539458,1084.423025
3.1900,-4.908019923,18.89579316,1084.437029
3.1950,-4.906040506,18.89613135,1084.451023
3.2000,-4.904214599,18.89638299,1084.464993
3.2050,-4.902511854,18.89652179,1084.478934
3.2100,-4.900974332,18.89650933,1084.49287
3.2150,-4.899604353,18.89636631,1084.506801
3.2200,-4.8983928,18.89611276,1084.520726
3.2250,-4.897329172,18.8957481,1084.53465
3.2300,-4.896359605,18.89523502,1084.54852
3.2350,-4.895480428,18.8946294,1084.562359
3.2400,-4.894698423,18.89390902,1084.576163
3.2450,-4.893975361,18.89308205,1084.589921
3.2500,-4.893349559,18.89212354,1084.603654
3.2550,-4.892864031,18.89102257,1084.617383
3.2600,-4.89252642,18.88977038,1084.631136
3.2650,-4.892297376,18.88844576,1084.644884
3.2700,-4.892159527,18.88697015,1084.658603
3.2750,-4.892132564,18.88533875,1084.672293
3.2800,-4.892237824,18.88358932,1084.685971
3.2850,-4.892457773,18.88168763,1084.699615
3.2900,-4.892788524,18.8797201,1084.713226
3.2950,-4.893231543,18.87772759,1084.726833
3.3000,-4.893784255,18.87571475,1084.740441
3.3050,-4.894430523,18.87368781,1084.754031
3.3100,-4.895197463,18.87165564,1084.767618
3.3150,-4.896052036,18.86963247,1084.781162
3.3200,-4.897055966,18.86761321,1084.794703
3.3250,-4.898178332,18.86564926,1084.808251
3.3300,-4.899404973,18.86379534,1084.821801
3.3350,-4.900712535,18.86208474,1084.835355
3.3400,-4.902042015,18.86056323,1084.848889
3.3450,-4.903378412,18.85921081,1084.862391
3.3500,-4.904734019,18.85807228,1084.875871
3.3550,-4.906054864,18.85714511,1084.889308
3.3600,-4.907274689,18.85650711,1084.902684
3.3650,-4.908387381,18.85616063,1084.91599
3.3700,-4.909367688,18.85612472,1084.929232
3.3750,-4.910179667,18.85639456,1084.942378
3.3800,-4.91082606,18.85694639,1084.955402
3.3850,-4.911249931,18.85781369,1084.968288
3.3900,-4.911460035,18.85895861,1084.981019
3.3950,-4.911509596,18.860341,1084.993601
3.4000,-4.911351827,18.86197938,1085.006023
3.4050,-4.911020092,18.86386879,1085.018279
3.4100,-4.91047434,18.86598328,1085.030335
3.4150,-4.909686115,18.86830536,1085.042169
3.4200,-4.90870632,18.87081628,1085.053798
3.4250,-4.907534371,18.87349799,1085.065211
3.4300,-4.906176225,18.87632029,1085.076385
3.4350,-4.904655129,18.87923299,1085.087315
3.4400,-4.902978985,18.88226496,1085.097991
3.4450,-4.90119768,18.88535483,1085.108443
3.4500,-4.899291001,18.88851206,1085.118642
3.4550,-4.897289491,18.89173826,1085.128619
3.4600,-4.895230067,18.89497116,1085.138356
3.4650,-4.893135346,18.89823339,1085.147875
3.4700,-4.890956984,18.90146194,1085.157133
3.4750,-4.888720173,18.90464948,1085.166149
3.4800,-4.886414803,18.90779402,1085.174928
3.4850,-4.884049553,18.91090359,1085.183486
3.4900,-4.881641064,18.91397646,1085.191831
3.4950,-4.879195279,18.91697288,1085.199967
3.5000,-4.876732932,18.91984449,1085.207891
3.5050,-4.874258238,18.92263018,1085.215627
3.5100,-4.871778544,18.92530553,1085.22317
3.5150,-4.86927907,18.9278817,1085.230527
3.5200,-4.866772168,18.9303265,1085.237699
3.5250,-4.864274573,18.93258721,1085.244692
3.5300,-4.861808209,18.93470023,1085.251542
3.5350,-4.859372981,18.93662543,1085.258237
3.5400,-4.857008264,18.93831733,1085.264786
3.5450,-4.85471211,18.93976738,1085.271202
3.5500,-4.852536099,18.94100451,1085.277526
3.5550,-4.850466029,18.94199527,1085.283744
3.5600,-4.848539699,18.9427864,1085.289908
3.5650,-4.846761961,18.94334995,1085.296027
3.5700,-4.845175133,18.94371839,1085.302139
3.5750,-4.843758011,18.94392608,1085.308252
3.5800,-4.842497166,18.94395649,1085.314372
3.5850,-4.841464241,18.9437944,1085.320543
3.5900,-4.840658978,18.94346495,1085.32678
3.5950,-4.840118225,18.94294763,1085.333121
3.6000,-4.839873377,18.94223784,1085.339584
3.6050,-4.839908149,18.94136501,1085.346193
3.6100,-4.84023849,18.94037722,1085.352986
3.6150,-4.840887482,18.939257,1085.359987
3.6200,-4.841784917,18.93802668,1085.367165
3.6250,-4.842984001,18.93663914,1085.374532
3.6300,-4.844506693,18.93510364,1085.382127
3.6350,-4.8463543,18.93341202,1085.389943
3.6400,-4.848523947,18.93156414,1085.398001
3.6450,-4.85101001,18.92958624,1085.406293
3.6500,-4.853747275,18.92746981,1085.414791
3.6550,-4.856789153,18.92519905,1085.423499
3.6600,-4.860094529,18.92271289,1085.432381
3.6650,-4.863650771,18.91999826,1085.441424
3.6700,-4.867425918,18.91705549,1085.450592
3.6750,-4.871421049,18.91385084,1085.459878
3.6800,-4.875609317,18.91040014,1085.46926
3.6850,-4.880013745,18.90667459,1085.47874
3.6900,-4.884620651,18.9026647,1085.488298
3.6950,-4.889352409,18.89839164,1085.497891
3.7000,-4.894226164,18.89385234,1085.507503
3.7050,-4.899200472,18.88903523,1085.517105
3.7100,-4.904329947,18.88397478,1085.526725
3.7150,-4.90957852,18.8786492,1085.536318
3.7200,-4.914900643,18.87307236,1085.54585
3.7250,-4.920280142,18.86726523,1085.555312
3.7300,-4.925738912,18.86126798,1085.564706
3.7350,-4.931257173,18.85509118,1085.574025
3.7400,-4.936853334,18.8487032,1085.58327
3.7450,-4.942489452,18.8421654,1085.592399
3.7500,-4.94815868,18.835465,1085.601418
3.7550,-4.953862842,18.82861305,1085.610312
3.7600,-4.959601771,18.82166222,1085.619095
3.7650,-4.965320578,18.8146201,1085.627738
3.7700,-4.971053746,18.80757886,1085.636281
3.7750,-4.976776677,18.80057547,1085.644717
3.7800,-4.982491474,18.79362754,1085.653038
3.7850,-4.988189298,18.78674643,1085.661217
3.7900,-4.993835461,18.78000921,1085.669276
3.7950,-4.999433043,18.77340307,1085.677196
3.8000,-5.004995613,18.76697071,1085.684987
3.8050,-5.010489457,18.76075121,1085.692641
3.8100,-5.015898193,18.75473891,1085.700137
3.8150,-5.021267952,18.74894312,1085.707495
3.8200,-5.026522018,18.74340994,1085.714694
3.8250,-5.031696125,18.73812044,1085.721721
3.8300,-5.03679803,18.7330876,1085.728583
3.8350,-5.041804841,18.72833513,1085.735262
3.8400,-5.04674224,18.72392809,1085.741801
3.8450,-5.051590565,18.71986506,1085.748172
3.8500,-5.05634166,18.71614416,1085.754374
3.8550,-5.060977513,18.7127879,1085.760403
3.8600,-5.065498778,18.70979367,1085.766239
3.8650,-5.069895705,18.70715788,1085.77188
3.8700,-5.074185585,18.70489103,1085.777338
3.8750,-5.078388986,18.70296559,1085.782625
3.8800,-5.082531763,18.70137743,1085.787759
3.8850,-5.086567307,18.70016188,1085.792718
3.8900,-5.0905173,18.69931817,1085.797521
3.8950,-5.094345711,18.69884709,1085.802129
3.9000,-5.098049303,18.69874463,1085.806551
3.9050,-5.101627755,18.69902328,1085.81079
3.9100,-5.105064733,18.69962995,1085.814811
3.9150,-5.108389209,18.70054431,1085.818625
3.9200,-5.111629695,18.70175949,1085.82225
3.9250,-5.11474451,18.70329547,1085.825676
3.9300,-5.117748488,18.70511586,1085.828898
3.9350,-5.120670859,18.70716547,1085.831902
3.9400,-5.123502058,18.70943488,1085.834673
3.9450,-5.1262366,18.7118788,1085.837198
3.9500,-5.12890429,18.71448514,1085.839497
3.9550,-5.131493382,18.71723415,1085.841558
3.9600,-5.134060037,18.72012155,1085.843412
3.9650,-5.136565168,18.72310009,1085.845019
3.9700,-5.139035573,18.72617638,1085.846391
3.9750,-5.141463033,18.72933946,1085.847516
3.9800,-5.143853094,18.73255864,1085.848393
3.9850,-5.146197419,18.73583352,1085.849
3.9900,-5.148470669,18.73914523,1085.849312
3.9950,-5.150658914,18.74247725,1085.849306
4.0000,-5.152783589,18.74580801,1085.848998
4.0050,-5.154831637,18.74911927,1085.848364
4.0100,-5.156786865,18.75240833,1085.847395
4.0150,-5.158672815,18.75566153,1085.846095
4.0200,-5.16048489,18.75886726,1085.844454
4.0250,-5.162230812,18.7620232,1085.842452
4.0300,-5.163894456,18.76510663,1085.840108
4.0350,-5.16549815,18.76809368,1085.837405
4.0400,-5.167048432,18.77100866,1085.834349
4.0450,-5.168529175,18.77385759,1085.830942
4.0500,-5.16997176,18.77662509,1085.827193
4.0550,-5.171426807,18.77927299,1085.823119
4.0600,-5.172842412,18.7818031,1085.818687
4.0650,-5.174235983,18.7842646,1085.813928
4.0700,-5.175591429,18.78661684,1085.808819
4.0750,-5.176949336,18.78883639,1085.803377
4.0800,-5.178342277,18.79095262,1085.797643
4.0850,-5.179741111,18.79298408,1085.791607
4.0900,-5.181189977,18.79489911,1085.785276
4.0950,-5.182703848,18.7967777,1085.7787
4.1000,-5.184235752,18.79863665,1085.771859
4.1050,-5.185799648,18.80045541,1085.764741
4.1100,-5.187385969,18.80229443,1085.757376
4.1150,-5.188997219,18.80412184,1085.749753
4.1200,-5.190660416,18.8059714,1085.741894
4.1250,-5.192336881,18.80788355,1085.733812
4.1300,-5.19402228,18.8098555,1085.72551
4.1350,-5.195714262,18.81190531,1085.717003
4.1400,-5.197389013,18.81403086,1085.708269
4.1450,-5.199066326,18.81625125,1085.69934
4.1500,-5.200724769,18.818514,1085.690174
4.1550,-5.202409795,18.82087455,1085.680836
4.1600,-5.204134728,18.8232824,1085.671333
4.1650,-5.20593831,18.82575716,1085.661687
4.1700,-5.207778029,18.82828412,1085.651875
4.1750,-5.209737018,18.83084723,1085.64195
4.1800,-5.211804416,18.83345211,1085.631909
4.1850,-5.213997937,18.83609082,1085.62178
4.1900,-5.216308237,18.83874884,1085.611553
4.1950,-5.218775786,18.84143565,1085.601271
4.2000,-5.221396378,18.84416056,1085.590931
4.2050,-5.224190289,18.84693774,1085.580555
4.2100,-5.227134305,18.84977459,1085.570149
4.2150,-5.230219144,18.85269479,1085.559718
4.2200,-5.233463284,18.85571021,1085.549281
4.2250,-5.236867174,18.8588084,1085.538833
4.2300,-5.240394107,18.86199307,1085.52836
4.2350,-5.244028433,18.8652738,1085.517867
4.2400,-5.24773346,18.86864743,1085.507316
4.2450,-5.251519369,18.87209268,1085.496702
4.2500,-5.255371087,18.87556937,1085.486005
4.2550,-5.259294449,18.87907502,1085.475229
4.2600,-5.263254522,18.88261222,1085.464363
4.2650,-5.267275661,18.88618206,1085.453417
4.2700,-5.271337004,18.88973187,1085.442349
4.2750,-5.275440884,18.89326575,1085.431169
4.2800,-5.279602975,18.89677125,1085.419881
4.2850,-5.283817885,18.90023011,1085.408482
4.2900,-5.288059056,18.90362214,1085.396951
4.2950,-5.292369033,18.90693357,1085.385311
4.3000,-5.296747731,18.91017804,1085.373555
4.3050,-5.301209064,18.91333472,1085.361684
4.3100,-5.305805016,18.91632031,1085.349694
4.3150,-5.310499859,18.9192165,1085.337598
4.3200,-5.31531281,18.92200376,1085.32539
4.3250,-5.320200785,18.92465615,1085.313052
4.3300,-5.325182485,18.92719166,1085.300562
4.3350,-5.330222868,18.92966201,1085.287932
4.3400,-5.335295701,18.9320507,1085.275138
4.3450,-5.340395019,18.93434267,1085.262182
4.3500,-5.345493092,18.9365916,1085.24905
4.3550,-5.35054946,18.9387839,1085.235716
4.3600,-5.355561752,18.94093857,1085.222188
4.3650,-5.360519038,18.94303401,1085.208447
4.3700,-5.365431978,18.94503986,1085.194497
4.3750,-5.370276574,18.94694147,1085.180312
4.3800,-5.375032416,18.94874976,1085.165877
4.3850,-5.379709112,18.95042582,1085.1512
4.3900,-5.384286855,18.95200426,1085.136299
4.3950,-5.388737006,18.95344943,1085.121137
4.4000,-5.39306127,18.95474613,1085.10572
4.4050,-5.397294794,18.95592952,1085.090102
4.4100,-5.401461663,18.95697292,1085.074281
4.4150,-5.405502354,18.95788984,1085.058241
4.4200,-5.409415267,18.95864297,1085.04196
4.4250,-5.413178454,18.95924174,1085.025443
4.4300,-5.416824945,18.95968723,1085.008704
4.4350,-5.420380461,18.95993749,1084.991757
4.4400,-5.423851295,18.96001383,1084.974625
4.4450,-5.427230691,18.95987685,1084.957295
4.4500,-5.430534147,18.95957971,1084.939809
4.4550,-5.433742563,18.95910146,1084.922155
4.4600,-5.436871129,18.95846011,1084.90434
4.4650,-5.439896454,18.95762994,1084.886364
4.4700,-5.442864823,18.95660742,1084.868254
4.4750,-5.445725754,18.95540957,1084.849986
4.4800,-5.448501688,18.95402274,1084.831579
4.4850,-5.45117072,18.95244661,1084.813011
4.4900,-5.453750424,18.95068037,1084.794305
4.4950,-5.456192392,18.94873989,1084.775456
4.5000,-5.45854478,18.94658263,1084.756479
4.5050,-5.46079751,18.94420449,1084.737371
4.5100,-5.462991163,18.94161504,1084.718165
4.5150,-5.465109154,18.93883551,1084.698851
4.5200,-5.467158058,18.93586242,1084.679459
4.5250,-5.469144208,18.93270932,1084.659987
4.5300,-5.471071749,18.92941092,1084.640439
4.5350,-5.472891071,18.92598333,1084.620813
4.5400,-5.474678944,18.92237525,1084.601135
4.5450,-5.476429167,18.91865755,1084.58143
4.5500,-5.478116153,18.91481839,1084.561695
4.5550,-5.479727153,18.91091777,1084.541937
4.5600,-5.481275396,18.90690506,1084.522139
4.5650,-5.482744222,18.90282849,1084.502303
4.5700,-5.484106179,18.8987309,1084.482454
4.5750,-5.485368917,18.89457343,1084.462572
4.5800,-5.486491371,18.8904005,1084.442658
4.5850,-5.487535428,18.88616959,1084.422715
4.5900,-5.488522015,18.88192313,1084.402773
4.5950,-5.489440973,18.87765803,1084.382813
4.6000,-5.490273802,18.87338181,1084.362837
4.6050,-5.491035079,18.86909009,1084.342848
4.6100,-5.49166557,18.8648763,1084.322853
4.6150,-5.492196676,18.86064701,1084.302822
4.6200,-5.492618377,18.85641679,1084.282754
4.6250,-5.492968946,18.8522082,1084.262671
4.6300,-5.493246295,18.84800182,1084.242587
4.6350,-5.493485388,18.84378679,1084.222504
4.6400,-5.493708203,18.83956429,1084.202431
4.6450,-5.493908408,18.83537865,1084.182373
4.6500,-5.494102559,18.83119395,1084.162311
4.6550,-5.494258297,18.82705376,1084.14225
4.6600,-5.494441978,18.82295176,1084.122216
4.6650,-5.494651337,18.81887899,1084.102197
4.6700,-5.494908133,18.81486025,1084.082202
4.6750,-5.495206835,18.81094436,1084.062241
4.6800,-5.495526512,18.8070922,1084.042288
4.6850,-5.495893782,18.8033919,1084.022378
4.6900,-5.496293026,18.79978774,1084.002461
4.6950,-5.496741083,18.79629086,1083.982545
4.7000,-5.497274767,18.79289229,1083.962633
4.7050,-5.497871061,18.78958028,1083.942717
4.7100,-5.498514306,18.78633517,1083.922764
4.7150,-5.499240381,18.78315136,1083.902779
4.7200,-5.50009818,18.78001085,1083.88279
4.7250,-5.501099355,18.7769338,1083.862796
4.7300,-5.50220574,18.77386559,1083.842746
4.7350,-5.503474024,18.77083916,1083.822665
4.7400,-5.504823484,18.76784302,1083.802497
4.7450,-5.506301755,18.76489055,1083.782276
4.7500,-5.507900826,18.76195084,1083.761975
4.7550,-5.509616479,18.75898242,1083.741573
4.7600,-5.511428703,18.75595659,1083.721064
4.7650,-5.513348822,18.75286298,1083.700436
4.7700,-5.515362291,18.7496781,1083.679689
4.7750,-5.517464072,18.74642284,1083.658829
4.7800,-5.519620547,18.74306392,1083.637834
4.7850,-5.521826691,18.73962647,1083.616728
4.7900,-5.524059156,18.73610665,1083.595498
4.7950,-5.52632477,18.73247256,1083.574127
4.8000,-5.528590793,18.72875566,1083.552624
4.8050,-5.530811651,18.72495551,1083.530969
4.8100,-5.532927357,18.72110527,1083.509144
4.8150,-5.534917784,18.71720094,1083.487151
4.8200,-5.53671587,18.71324523,1083.464965
4.8250,-5.538360508,18.70926589,1083.442609
4.8300,-5.539845733,18.70526024,1083.420108
4.8350,-5.541189667,18.70122856,1083.397452
4.8400,-5.542323859,18.69725389,1083.374652
4.8450,-5.543224337,18.69332587,1083.351693
4.8500,-5.543902038,18.68950639,1083.32858
4.8550,-5.544310913,18.68577527,1083.305286
4.8600,-5.544465742,18.6821267,1083.281832
4.8650,-5.544385631,18.67858105,1083.258228
4.8700,-5.544070415,18.6751427,1083.234464
4.8750,-5.543495567,18.67185282,1083.210542
4.8800,-5.542691888,18.66867953,1083.186455
4.8850,-5.541580549,18.66570092,1083.162198
4.8900,-5.540171447,18.66293483,1083.137776
4.8950,-5.538451265,18.66038125,1083.11318
4.9000,-5.536429471,18.65803093,1083.088395
4.9050,-5.534099102,18.6558842,1083.063436
4.9100,-5.531498974,18.65391423,1083.038294
4.9150,-5.528663096,18.65213413,1083.012991
4.9200,-5.525585882,18.65055112,1082.987524
4.9250,-5.522277748,18.64912974,1082.961902
4.9300,-5.518735031,18.64789468,1082.936118
4.9350,-5.514900887,18.64682986,1082.910142
4.9400,-5.510841142,18.64593375,1082.884014
4.9450,-5.506557578,18.64515141,1082.857703
4.9500,-5.502063692,18.64449451,1082.831243
4.9550,-5.497402426,18.6439419,1082.804639
4.9600,-5.492549506,18.64348213,1082.777879
4.9650,-5.487521109,18.64309795,1082.750963
4.9700,-5.482289351,18.64275361,1082.723888
4.9750,-5.476877613,18.64242044,1082.69664
4.9800,-5.471331955,18.64209855,1082.66925
4.9850,-5.465639098,18.64168669,1082.641689
4.9900,-5.459873854,18.64119296,1082.613988
4.9950,-5.454046747,18.64062387,1082.586162
5.0000,-5.448169991,18.63997366,1082.558212
5.0050,-5.442200824,18.639236,1082.530106
5.0100,-5.436169419,18.6384265,1082.501883
5.0150,-5.43007644,18.63755563,1082.473546
5.0200,-5.423858162,18.636635,1082.445068
5.0250,-5.417552072,18.63559312,1082.41644
5.0300,-5.411151878,18.63449744,1082.387686
5.0350,-5.404620537,18.63331763,1082.358801
5.0400,-5.398014506,18.63200087,1082.3298
5.0450,-5.391314711,18.63057097,1082.300672
5.0500,-5.384516348,18.62901811,1082.271408
5.0550,-5.377638383,18.62733064,1082.242017
5.0600,-5.370654457,18.62555188,1082.212504
5.0650,-5.363585226,18.62368485,1082.182878
5.0700,-5.356385624,18.62171759,1082.15312
5.0750,-5.349052015,18.61965793,1082.123231
5.0800,-5.341594482,18.61749893,1082.093212
5.0850,-5.334028381,18.61523425,1082.06306
5.0900,-5.326311647,18.61285377,1082.03276
5.0950,-5.318440302,18.61036305,1082.002324
5.1000,-5.310408328,18.60774122,1081.971746
5.1050,-5.302218098,18.60497005,1081.941026
5.1100,-5.293909298,18.60200976,1081.910158
5.1150,-5.285494105,18.59886845,1081.879166
5.1200,-5.276966904,18.59558183,1081.848038
5.1250,-5.268285924,18.59211848,1081.81679
5.1300,-5.259390796,18.58850621,1081.785372
5.1350,-5.250309581,18.58476533,1081.753815
5.1400,-5.24102972,18.58089991,1081.722118
5.1450,-5.231511505,18.57691639,1081.690274
5.1500,-5.221731369,18.57276155,1081.658262
5.1550,-5.211683276,18.56844115,1081.626094
5.1600,-5.201348971,18.56402163,1081.593772
5.1650,-5.19069501,18.55938987,1081.561277
5.1700,-5.1797131,18.55452079,1081.528608
5.1750,-5.16841549,18.54940715,1081.49576
5.1800,-5.156807448,18.5440428,1081.462749
5.1850,-5.144905325,18.53835671,1081.429563
5.1900,-5.132707607,18.53226288,1081.396205
5.1950,-5.120232927,18.52574534,1081.362697
5.2000,-5.107482479,18.51876129,1081.329057
5.2050,-5.094480036,18.51124976,1081.295265
5.2100,-5.081216381,18.50318915,1081.261332
5.2150,-5.067681205,18.49459434,1081.227263
5.2200,-5.053941411,18.48541668,1081.193097
5.2250,-5.039975934,18.47568797,1081.158806
5.2300,-5.025793735,18.46534465,1081.124404
5.2350,-5.011486493,18.45443757,1081.08994
5.2400,-4.997043498,18.44294577,1081.055394
5.2450,-4.98253628,18.43092095,1081.020815
5.2500,-4.967942333,18.41839821,1080.986199
5.2550,-4.953289279,18.40539995,1080.95157
5.2600,-4.938590288,18.39200495,1080.916932
5.2650,-4.923836157,18.37826157,1080.882308
5.2700,-4.909089894,18.36426079,1080.847725
5.2750,-4.8943189,18.3500772,1080.813197
5.2800,-4.879483812,18.33578144,1080.778718
5.2850,-4.864568939,18.32148097,1080.744287
5.2900,-4.849540474,18.30726075,1080.709913
5.2950,-4.83440011,18.29312169,1080.675592
5.3000,-4.819120788,18.27914456,1080.641335
5.3050,-4.80373739,18.26535627,1080.607157
5.3100,-4.788175013,18.25181928,1080.573032
5.3150,-4.772441011,18.23856706,1080.538966
5.3200,-4.756586337,18.22560885,1080.504957
5.3250,-4.740599221,18.21297794,1080.471009
5.3300,-4.72450404,18.20067594,1080.437131
5.3350,-4.708285277,18.18869767,1080.403307
5.3400,-4.691932793,18.17709438,1080.369545
5.3450,-4.67542152,18.16586159,1080.335829
5.3500,-4.65880271,18.15497373,1080.302194
5.3550,-4.642030996,18.14444927,1080.268618
5.3600,-4.625157746,18.13424948,1080.235117
5.3650,-4.608216639,18.12437913,1080.201692
5.3700,-4.591224903,18.11485659,1080.168339
5.3750,-4.574179013,18.10570133,1080.135054
5.3800,-4.557065124,18.09692671,1080.101837
5.3850,-4.539893283,18.08847964,1080.068681
5.3900,-4.522690561,18.08037849,1080.035582
5.3950,-4.505474739,18.07254924,1080.002539
5.4000,-4.488232249,18.06496302,1079.96955
5.4050,-4.47099879,18.05762609,1079.936631
5.4100,-4.453724995,18.05055112,1079.903778
5.4150,-4.436428401,18.04365689,1079.870982
5.4200,-4.419110874,18.03689328,1079.838244
5.4250,-4.401785498,18.03027137,1079.80556
5.4300,-4.384504122,18.02372852,1079.772954
5.4350,-4.367204968,18.0172542,1079.740411
5.4400,-4.349926022,18.01082773,1079.707943
5.4450,-4.332712692,18.00442189,1079.675569
5.4500,-4.315608783,17.99805017,1079.643295
5.4550,-4.298596433,17.99166753,1079.611102
5.4600,-4.281679279,17.98522981,1079.578987
5.4650,-4.264897619,17.97878284,1079.546959
5.4700,-4.248293335,17.97228356,1079.515029
5.4750,-4.231840186,17.96576509,1079.483208
5.4800,-4.215509349,17.9591824,1079.451479
5.4850,-4.19931572,17.9524915,1079.419854
5.4900,-4.183244746,17.94572604,1079.388341
5.4950,-4.167284752,17.93887966,1079.356931
5.5000,-4.151428317,17.93194722,1079.325631
5.5050,-4.135651686,17.92498105,1079.294441
5.5100,-4.119969503,17.91795666,1079.263368
5.5150,-4.104355577,17.91090029,1079.232419
5.5200,-4.088740324,17.90381821,1079.201567
5.5250,-4.073104831,17.89673983,1079.170823
5.5300,-4.057444642,17.88967285,1079.140191
5.5350,-4.041705427,17.88259522,1079.109647
5.5400,-4.025859943,17.87552088,1079.0792
5.5450,-4.00988832,17.86842361,1079.048849
5.5500,-3.993845698,17.86126697,1079.0186
5.5550,-3.977722295,17.85404622,1078.988448
5.5600,-3.961533583,17.84677615,1078.958411
5.5650,-3.945303339,17.83944954,1078.928492
5.5700,-3.929000973,17.83204732,1078.898694
5.5750,-3.912662786,17.82460328,1078.869033
5.5800,-3.896295794,17.81713979,1078.839511
5.5850,-3.879987841,17.80963869,1078.810159
5.5900,-3.863762788,17.80209496,1078.780982
5.5950,-3.847560884,17.79457908,1078.751973
5.6000,-3.831402958,17.7871191,1078.723144
5.6050,-3.815306887,17.77971188,1078.694485
5.6100,-3.799322704,17.77233956,1078.666009
5.6150,-3.78349991,17.76497603,1078.637733
5.6200,-3.767813222,17.75765542,1078.609656
5.6250,-3.752273305,17.75040715,1078.581792
5.6300,-3.736885258,17.74317734,1078.554143
5.6350,-3.721669282,17.73600351,1078.526719
5.6400,-3.706607134,17.7288908,1078.499499
5.6450,-3.691698245,17.72184629,1078.472494
5.6500,-3.67691908,17.71494316,1078.445695
5.6550,-3.66231414,17.70820594,1078.419124
5.6600,-3.647850326,17.7016752,1078.392765
5.6650,-3.6335082,17.69535145,1078.366615
5.6700,-3.619274092,17.68927919,1078.340675
5.6750,-3.605187632,17.68339458,1078.314948
5.6800,-3.591223954,17.67773883,1078.289411
5.6850,-3.577372905,17.67233199,1078.264068
5.6900,-3.563658911,17.66714369,1078.23892
5.6950,-3.550075979,17.66222173,1078.213962
5.7000,-3.536633162,17.6575938,1078.189189
5.7050,-3.52334231,17.65323911,1078.164583
5.7100,-3.510248929,17.64914485,1078.140158
5.7150,-3.49731979,17.64533136,1078.115896
5.7200,-3.484562029,17.64183796,1078.091815
5.7250,-3.471953107,17.63859168,1078.06789
5.7300,-3.459505799,17.63561901,1078.044126
5.7350,-3.447265935,17.63289419,1078.020523
5.7400,-3.435205688,17.63038668,1077.997072
5.7450,-3.42330881,17.62809206,1077.973758
5.7500,-3.411544318,17.62599701,1077.950583
5.7550,-3.399915954,17.62408368,1077.927544
5.7600,-3.388406464,17.62234653,1077.90463
5.7650,-3.376984521,17.62075094,1077.881836
5.7700,-3.365638072,17.61932668,1077.859158
5.7750,-3.354383037,17.61799255,1077.836596
5.7800,-3.343219169,17.61669581,1077.814137
5.7850,-3.332137081,17.61551987,1077.791788
5.7900,-3.321126189,17.6144215,1077.76953
5.7950,-3.310157643,17.61337917,1077.747363
5.8000,-3.299196803,17.61233976,1077.725265
5.8050,-3.288255216,17.61128048,1077.703255
5.8100,-3.277247383,17.61021845,1077.681309
5.8150,-3.266188608,17.60909299,1077.659426
5.8200,-3.255022934,17.60789191,1077.637587
5.8250,-3.243776593,17.60656313,1077.615804
5.8300,-3.232413007,17.60512624,1077.594057
5.8350,-3.220939599,17.60359042,1077.572367
5.8400,-3.209282268,17.60191491,1077.550708
5.8450,-3.197421818,17.6001499,1077.529081
5.8500,-3.18526568,17.59831247,1077.507471
5.8550,-3.172826082,17.59640714,1077.485886
5.8600,-3.160092791,17.59442761,1077.464318
5.8650,-3.147020904,17.59238435,1077.442768
5.8700,-3.133612998,17.59031263,1077.421233
5.8750,-3.119855268,17.58814097,1077.399697
5.8800,-3.105793849,17.58587885,1077.378186
5.8850,-3.09132679,17.58357613,1077.356674
5.8900,-3.076424932,17.58118667,1077.335157
5.8950,-3.061153414,17.5787312,1077.313652
5.9000,-3.045535702,17.57616376,1077.292161
5.9050,-3.029594359,17.57348691,1077.27069
5.9100,-3.013346927,17.57070965,1077.24925
5.9150,-2.996745288,17.56788676,1077.22783
5.9200,-2.979811145,17.56496835,1077.206434
5.9250,-2.962560695,17.56195782,1077.185067
5.9300,-2.944969908,17.55890503,1077.163724
5.9350,-2.927048534,17.55583323,1077.142405
5.9400,-2.90886481,17.55276244,1077.121144
5.9450,-2.890429073,17.54967562,1077.099937
5.9500,-2.871754461,17.546596,1077.078785
5.9550,-2.852849213,17.54349661,1077.057679
5.9600,-2.833731178,17.5404046,1077.036635
5.9650,-2.814421239,17.53732485,1077.015654
5.9700,-2.794988417,17.53425098,1076.994757
5.9750,-2.77544765,17.53122218,1076.973947
5.9800,-2.755851201,17.52820853,1076.953242
5.9850,-2.736233891,17.5252176,1076.932648
5.9900,-2.716624413,17.5223039,1076.91218
5.9950,-2.6970153,17.51946015,1076.891837
6.0000,-2.677448768,17.5167057,1076.871618
6.0050,-2.657960356,17.5140549,1076.85155
6.0100,-2.638523043,17.51151584,1076.831617
6.0150,-2.619191068,17.50915193,1076.811848
6.0200,-2.599998812,17.50690416,1076.792224
6.0250,-2.581015764,17.50480907,1076.77278
6.0300,-2.562226475,17.50284483,1076.753505
6.0350,-2.54363276,17.50100775,1076.734408
6.0400,-2.52525953,17.49930963,1076.715488
6.0450,-2.507122793,17.49772191,1076.696754
6.0500,-2.489217635,17.49618518,1076.678199
6.0550,-2.471561771,17.49474884,1076.659833
6.0600,-2.454141779,17.49332254,1076.641656
6.0650,-2.436932673,17.4919015,1076.623662
6.0700,-2.419896207,17.49042798,1076.605836
6.0750,-2.403024721,17.4889144,1076.588176
6.0800,-2.386252805,17.48741161,1076.570676
6.0850,-2.369545851,17.48586461,1076.55332
6.0900,-2.352888946,17.48430491,1076.53611
6.0950,-2.336280845,17.48272852,1076.519038
6.1000,-2.319713669,17.48116186,1076.502102
6.1050,-2.303116703,17.47957975,1076.485271
6.1100,-2.286509755,17.47794119,1076.46855
6.1150,-2.269853797,17.47627867,1076.451927
6.1200,-2.253209974,17.47457944,1076.43542
6.1250,-2.236542226,17.47280484,1076.41901
6.1300,-2.219847323,17.47094669,1076.402698
6.1350,-2.203114865,17.46899857,1076.386471
6.1400,-2.186413972,17.46697229,1076.370356
6.1450,-2.169724109,17.46483329,1076.354346
6.1500,-2.153091011,17.46255572,1076.338453
6.1550,-2.13648737,17.46014662,1076.322676
6.1600,-2.11990526,17.45759856,1076.307017
6.1650,-2.103410506,17.45488357,1076.291492
6.1700,-2.086937384,17.45196672,1076.276086
6.1750,-2.070474505,17.44889097,1076.260802
6.1800,-2.054005101,17.44561305,1076.245639
6.1850,-2.037538773,17.44213026,1076.230603
6.1900,-2.021046854,17.43842064,1076.215688
6.1950,-2.00453522,17.43448737,1076.200903
6.2000,-1.988002046,17.43028565,1076.186245
6.2050,-1.971472366,17.42579404,1076.171729
6.2100,-1.954948389,17.4209809,1076.157349
6.2150,-1.938453742,17.41580159,1076.143112
6.2200,-1.922088016,17.41028684,1076.12905
6.2250,-1.905873368,17.40442666,1076.115169
6.2300,-1.88988384,17.39817903,1076.10148
6.2350,-1.874203148,17.39158002,1076.088011
6.2400,-1.858847839,17.3845881,1076.074755
6.2450,-1.843899788,17.37727151,1076.061735
6.2500,-1.829452369,17.36959431,1076.048976
6.2550,-1.815498394,17.36162705,1076.036478
6.2600,-1.802124574,17.35336546,1076.024258
6.2650,-1.789334663,17.34484008,1076.012319
6.2700,-1.777131344,17.336119,1076.000663
6.2750,-1.765517547,17.32715736,1075.98929
6.2800,-1.75447957,17.31802177,1075.978202
6.2850,-1.743999909,17.30874521,1075.9674
6.2900,-1.734019495,17.29930048,1075.956868
6.2950,-1.72455716,17.28972278,1075.946611
6.3000,-1.71555755,17.27999819,1075.936627
6.3050,-1.706931395,17.27015419,1075.926897
6.3100,-1.698653182,17.26019216,1075.917413
6.3150,-1.690655207,17.25008664,1075.908158
6.3200,-1.682837183,17.23986368,1075.899114
6.3250,-1.675102375,17.22954013,1075.890257
6.3300,-1.667399789,17.21910862,1075.881573
6.3350,-1.659649773,17.20861038,1075.873046
6.3400,-1.651786723,17.19804632,1075.864654
6.3450,-1.643764736,17.1874116,1075.856386
6.3500,-1.635546203,17.17677488,1075.848234
6.3550,-1.627121091,17.16607938,1075.840191
6.3600,-1.618471235,17.15537802,1075.832245
6.3650,-1.609569974,17.1446968,1075.824393
6.3700,-1.600427699,17.13405198,1075.816632
6.3750,-1.591038017,17.12344762,1075.80896
6.3800,-1.581422492,17.11290405,1075.801379
6.3850,-1.571603166,17.10243159,1075.79389
6.3900,-1.561541004,17.09202845,1075.786479
6.3950,-1.551278132,17.08169284,1075.779155
6.4000,-1.540778881,17.0714626,1075.771909
6.4050,-1.530086942,17.06134778,1075.764748
6.4100,-1.519219147,17.05138114,1075.757676
6.4150,-1.508149489,17.04155468,1075.750684
6.4200,-1.496853859,17.03187782,1075.743761
6.4250,-1.485297994,17.02238546,1075.736901
6.4300,-1.473477924,17.01307235,1075.730101
6.4350,-1.461394539,17.00392229,1075.723357
6.4400,-1.449004736,16.99497056,1075.716661
6.4450,-1.436321065,16.98620479,1075.710009
6.4500,-1.423329736,16.97763122,1075.703395
6.4550,-1.410015516,16.96925687,1075.696815
6.4600,-1.396379373,16.96104217,1075.690264
6.4650,-1.382385463,16.9530551,1075.683733
6.4700,-1.36805273,16.94529111,1075.677227
6.4750,-1.353453712,16.93775148,1075.670762
6.4800,-1.338554934,16.93047742,1075.66433
6.4850,-1.323421023,16.92345385,1075.657942
6.4900,-1.308076841,16.91673355,1075.651609
6.4950,-1.29254273,16.91026553,1075.645325
6.5000,-1.276819065,16.90407472,1075.639093
6.5050,-1.26095965,16.8981652,1075.63292
6.5100,-1.245002135,16.89251609,1075.626815
6.5150,-1.22902073,16.88714065,1075.620793
6.5200,-1.213001196,16.88198926,1075.614841
6.5250,-1.197027425,16.87704666,1075.60898
6.5300,-1.181096505,16.87233656,1075.603209
6.5350,-1.165193403,16.86782942,1075.59752
6.5400,-1.149372358,16.86350051,1075.591924
6.5450,-1.133618502,16.85931235,1075.586412
6.5500,-1.117884236,16.85526441,1075.580969
6.5550,-1.102250256,16.85134756,1075.575615
6.5600,-1.086646079,16.84751259,1075.570328
6.5650,-1.07111417,16.84380893,1075.565119
6.5700,-1.055643925,16.84015151,1075.559977
6.5750,-1.04022598,16.83661032,1075.554906
6.5800,-1.024851795,16.83317665,1075.549897
6.5850,-1.00951794,16.82981096,1075.544945
6.5900,-0.9942691757,16.82652768,1075.540061
6.5950,-0.9790616655,16.82332402,1075.535233
6.6000,-0.9639099043,16.82021773,1075.530462
6.6050,-0.9488236023,16.81716743,1075.525744
6.6100,-0.9337562337,16.81415371,1075.521065
6.6150,-0.9187285206,16.81117518,1075.51643
6.6200,-0.9037616647,16.80825266,1075.511842
6.6250,-0.8888348317,16.80540143,1075.507296
6.6300,-0.8739541758,16.80260421,1075.50279
6.6350,-0.8591380495,16.79983524,1075.498327
6.6400,-0.8444090778,16.79709118,1075.49391
6.6450,-0.829720949,16.79436176,1075.489524
6.6500,-0.815115387,16.79164583,1075.48518
6.6550,-0.8005462944,16.78892286,1075.48086
6.6600,-0.7860530996,16.78621637,1075.47658
6.6650,-0.7716237957,16.78350898,1075.472331
6.6700,-0.757250475,16.78079073,1075.468111
6.6750,-0.7429135978,16.77806208,1075.463915
6.6800,-0.7286041025,16.77535982,1075.459744
6.6850,-0.7142871017,16.77265592,1075.45559
6.6900,-0.6999953697,16.76997464,1075.451459
6.6950,-0.6856850102,16.76729718,1075.447338
6.7000,-0.6714070421,16.76464242,1075.443241
6.7050,-0.6571261914,16.76202407,1075.439162
6.7100,-0.6428142045,16.75945203,1075.435096
6.7150,-0.6284591517,16.75687268,1075.431032
6.7200,-0.6140937037,16.75430751,1075.426982
6.7250,-0.5997438659,16.75176553,1075.422954
6.7300,-0.5854193399,16.7492034,1075.418942
6.7350,-0.5711076782,16.74660833,1075.414945
6.7400,-0.5568254365,16.74394655,1075.410964
6.7450,-0.5425942852,16.74119879,1075.407003
6.7500,-0.5284378947,16.73833913,1075.403068
6.7550,-0.5143345828,16.73534221,1075.399147
6.7600,-0.5002966802,16.73224154,1075.39525
6.7650,-0.4863389298,16.72895731,1075.391374
6.7700,-0.472428309,16.72549333,1075.387513
6.7750,-0.458534777,16.72184522,1075.383663
6.7800,-0.4446482365,16.71801814,1075.379821
6.7850,-0.4307353416,16.71397335,1075.375978
6.7900,-0.4168034654,16.70968363,1075.372133
6.7950,-0.4028160291,16.70518877,1075.368283
6.8000,-0.3887519746,16.70047342,1075.364422
6.8050,-0.3745911909,16.69556971,1075.360549
6.8100,-0.3603344986,16.69046509,1075.356663
6.8150,-0.345974087,16.68513844,1075.352761
6.8200,-0.3315395635,16.67966185,1075.348856
6.8250,-0.3170009751,16.6740621,1075.344945
6.8300,-0.3023853564,16.66835168,1075.341031
6.8350,-0.2877884243,16.66250991,1075.337134
6.8400,-0.2732025779,16.65660725,1075.333258
6.8450,-0.2586960338,16.6506747,1075.329416
6.8500,-0.244311976,16.64473341,1075.325623
6.8550,-0.2300812012,16.63878002,1075.32188
6.8600,-0.2160835225,16.63290174,1075.318209
6.8650,-0.2023330215,16.62704141,1075.31461
6.8700,-0.1888947259,16.62125373,1075.311098
6.8750,-0.175815644,16.61550653,1075.307679
6.8800,-0.1631846757,16.60978701,1075.304369
6.8850,-0.1510234866,16.60411961,1075.301173
6.8900,-0.139354903,16.59853334,1075.298096
6.8950,-0.1282327449,16.59299705,1075.295147
6.9000,-0.1176607143,16.58754695,1075.292328
6.9050,-0.1076689162,16.5821975,1075.289646
6.9100,-0.09832516118,16.57696038,1075.287117
6.9150,-0.08962360802,16.5718253,1075.284734
6.9200,-0.08154756194,16.56678817,1075.282495
6.9250,-0.07415135784,16.56178939,1075.280404
6.9300,-0.06745292118,16.55688385,1075.278469
6.9350,-0.06147984223,16.55205197,1075.276692
6.9400,-0.05621772823,16.54730096,1075.275071
6.9450,-0.05176937702,16.54263729,1075.273625
6.9500,-0.04807579412,16.53804989,1075.272344
6.9550,-0.04519017605,16.53354007,1075.271235
6.9600,-0.04311121783,16.52911748,1075.270301
6.9650,-0.0418711079,16.5247479,1075.269543
6.9700,-0.04148047276,16.52047941,1075.268968
6.9750,-0.04192593863,16.51629354,1075.26857
6.9800,-0.04321120615,16.51214857,1075.26835
6.9850,-0.0453192903,16.50809129,1075.268303
6.9900,-0.04824362593,16.50406206,1075.268428
6.9950,-0.05196141793,16.50009757,1075.268724
7.0000,-0.05641760308,16.4961533,1075.269178
7.0050,-0.06159144172,16.49220821,1075.269782
7.0100,-0.06747801977,16.48822646,1075.270533
7.0150,-0.07404554861,16.48426528,1075.271434
7.0200,-0.08124326815,16.48028017,1075.272469
7.0250,-0.08893448463,16.47630241,1075.273617
7.0300,-0.09711453117,16.47229446,1075.274877
7.0350,-0.1056964797,16.4682596,1075.276232
7.0400,-0.1146300861,16.46424279,1075.277674
7.0450,-0.1238279717,16.4601474,1075.279182
7.0500,-0.1332111609,16.4560417,1075.280744
7.0550,-0.1427259143,16.45186515,1075.282348
7.0600,-0.1522805112,16.44762496,1075.283975
7.0650,-0.161756927,16.44331598,1075.285601
7.0700,-0.1711707367,16.43896447,1075.287232
7.0750,-0.1804324583,16.43453928,1075.288847
7.0800,-0.1895170614,16.42999738,1075.290439
7.0850,-0.1983844775,16.42540821,1075.292005
7.0900,-0.2070038118,16.4207732,1075.293543
7.0950,-0.2153325268,16.41605854,1075.29504
7.1000,-0.2233997079,16.41127943,1075.296507
7.1050,-0.2311324054,16.40638867,1075.297925
7.1100,-0.2385819866,16.40145871,1075.299312
7.1150,-0.2457092869,16.39649058,1075.300663
7.1200,-0.2525491134,16.39145124,1075.301984
7.1250,-0.2590712652,16.38634821,1075.30327
7.1300,-0.2653498433,16.38120571,1075.304542
7.1350,-0.2714023307,16.37606828,1075.305809
7.1400,-0.2772788953,16.37089575,1075.307081
7.1450,-0.2830473628,16.3657103,1075.308377
7.1500,-0.2887843055,16.3605518,1075.309717
7.1550,-0.2945391522,16.35543203,1075.311117
7.1600,-0.300360033,16.35037474,1075.312588
7.1650,-0.3063365882,16.34542147,1075.314153
7.1700,-0.3125337111,16.3405362,1075.315827
7.1750,-0.3189716343,16.33581434,1075.317622
7.1800,-0.3257286272,16.33129207,1075.319559
7.1850,-0.3328670202,16.32698146,1075.321656
7.1900,-0.3404146811,16.32290273,1075.323919
7.1950,-0.3484210141,16.31910982,1075.326364
7.2000,-0.3569333948,16.31556527,1075.328999
7.2050,-0.3659899714,16.31230175,1075.331836
7.2100,-0.3755752384,16.30934167,1075.334875
7.2150,-0.385705168,16.30674133,1075.338128
7.2200,-0.3964355371,16.30445841,1075.341606
7.2250,-0.4077230125,16.30255981,1075.345308
7.2300,-0.4195838767,16.30100039,1075.349237
7.2350,-0.4319541,16.2998297,1075.353389
7.2400,-0.4448424216,16.29901603,1075.357768
7.2450,-0.4582243773,16.29855154,1075.362374
7.2500,-0.4720990256,16.29840494,1075.367207
7.2550,-0.4864692395,16.2985824,1075.372274
7.2600,-0.501294096,16.2990746,1075.377572
7.2650,-0.5165766995,16.29988527,1075.383107
7.2700,-0.53228697,16.30099596,1075.388875
7.2750,-0.5484405004,16.30241093,1075.394885
7.2800,-0.5650737244,16.30413124,1075.401147
7.2850,-0.5821756175,16.30611637,1075.407662
7.2900,-0.5997370797,16.30838932,1075.414434
7.2950,-0.6177621989,16.31095247,1075.421464
7.3000,-0.6362665995,16.31382862,1075.428755
7.3050,-0.655294854,16.31702348,1075.436327
7.3100,-0.6748071955,16.32056769,1075.444173
7.3150,-0.6947924931,16.32443681,1075.452292
7.3200,-0.7152425887,16.32866732,1075.460685
7.3250,-0.7362556875,16.33319055,1075.469365
7.3300,-0.7577262067,16.33808249,1075.478321
7.3350,-0.7797293181,16.34330045,1075.487565
7.3400,-0.8022090001,16.34878077,1075.497085
7.3450,-0.8251494085,16.35459983,1075.506881
7.3500,-0.8485278661,16.36068739,1075.516949
7.3550,-0.8723133866,16.36706094,1075.527285
7.3600,-0.8964736872,16.37370769,1075.537884
7.3650,-0.9210226431,16.3805967,1075.548748
7.3700,-0.9458878662,16.38768981,1075.559862
7.3750,-0.9710484992,16.39498067,1075.571221
7.3800,-0.9964709218,16.40246536,1075.582821
7.3850,-1.022077934,16.41009222,1075.594645
7.3900,-1.047841351,16.41786192,1075.606687
7.3950,-1.073748731,16.42574605,1075.618943
7.4000,-1.099751596,16.43376023,1075.63141
7.4050,-1.12581405,16.44190419,1075.644077
7.4100,-1.151881781,16.45008617,1075.656928
7.4150,-1.177971648,16.45832083,1075.669966
7.4200,-1.204043711,16.46662045,1075.683188
7.4250,-1.230148528,16.47494867,1075.696606
7.4300,-1.256250491,16.48327688,1075.710207
7.4350,-1.282320414,16.49158144,1075.723984
7.4400,-1.308289994,16.49987681,1075.737928
7.4450,-1.334147085,16.50813579,1075.752035
7.4500,-1.359838398,16.51635131,1075.766295
7.4550,-1.385351004,16.5245211,1075.780708
7.4600,-1.410670466,16.53256646,1075.795269
7.4650,-1.435746347,16.54047916,1075.80997
7.4700,-1.46052463,16.54827644,1075.824803
7.4750,-1.485023603,16.55589655,1075.839773
7.4800,-1.509147274,16.56332426,1075.854861
7.4850,-1.53285968,16.57056616,1075.870058
7.4900,-1.556168541,16.57753651,1075.885371
7.4950,-1.579040308,16.58424597,1075.900791
7.5000,-1.601425062,16.59068543,1075.916309
7.5050,-1.623298955,16.59690358,1075.93192
7.5100,-1.644644321,16.60288434,1075.947618
7.5150,-1.665436298,16.60858323,1075.963392
7.5200,-1.685656215,16.6140576,1075.979237
7.5250,-1.705318095,16.61931992,1075.995159
7.5300,-1.724440424,16.62439798,1076.011158
7.5350,-1.743064505,16.62928578,1076.02724
7.5400,-1.761193226,16.63400997,1076.043398
7.5450,-1.778856735,16.63862189,1076.059636
7.5500,-1.796084741,16.64315541,1076.075955
7.5550,-1.812908894,16.64763052,1076.092363
7.5600,-1.829387754,16.65204782,1076.108859
7.5650,-1.8455488,16.65643735,1076.125446
7.5700,-1.861459584,16.66080604,1076.142134
7.5750,-1.87712026,16.66521563,1076.158921
7.5800,-1.892576937,16.6696242,1076.175803
7.5850,-1.907882542,16.67407394,1076.192799
7.5900,-1.923107759,16.67863739,1076.209917
7.5950,-1.938226643,16.68328416,1076.227146
7.6000,-1.953293734,16.68800819,1076.244494
7.6050,-1.96829723,16.69279899,1076.261953
7.6100,-1.983297607,16.69765881,1076.279534
7.6150,-1.998361378,16.70254607,1076.297245
7.6200,-2.013513137,16.70747445,1076.315086
7.6250,-2.028738912,16.71244801,1076.333059
7.6300,-2.04409232,16.71745296,1076.351166
7.6350,-2.059568783,16.72253708,1076.369415
7.6400,-2.075159435,16.72773656,1076.387797
7.6450,-2.090862472,16.7330163,1076.406316
7.6500,-2.106693704,16.73840908,1076.424975
7.6550,-2.122647777,16.7439376,1076.443764
7.6600,-2.138728962,16.74957349,1076.462682
7.6650,-2.154934552,16.75536638,1076.481738
7.6700,-2.171273958,16.76131156,1076.500932
7.6750,-2.187736767,16.76738851,1076.520262
7.6800,-2.204307075,16.77363264,1076.539712
7.6850,-2.220995553,16.78002339,1076.55927
7.6900,-2.237793706,16.78658992,1076.578938
7.6950,-2.254660473,16.79329578,1076.598703
7.7000,-2.271597156,16.80010697,1076.618548
7.7050,-2.288644606,16.80705289,1076.638485
7.7100,-2.30581213,16.8141575,1076.658511
7.7150,-2.323038467,16.82139899,1076.678613
7.7200,-2.340324765,16.8287551,1076.69878
7.7250,-2.357560418,16.83625407,1076.718987
7.7300,-2.374766522,16.84388359,1076.739242
7.7350,-2.391869639,16.85163889,1076.759523
7.7400,-2.408902878,16.85948561,1076.779834
7.7450,-2.425830468,16.86744314,1076.800179
7.7500,-2.442660482,16.87544378,1076.820552
7.7550,-2.45936188,16.88346596,1076.840939
7.7600,-2.475929405,16.89153696,1076.861347
7.7650,-2.49228082,16.89963535,1076.88176
7.7700,-2.508427654,16.90778482,1076.902191
7.7750,-2.524325312,16.91595435,1076.92263
7.7800,-2.539963116,16.92413962,1076.943088
7.7850,-2.555323212,16.93233615,1076.963563
7.7900,-2.57040761,16.94055983,1076.984063
7.7950,-2.585200626,16.94877719,1077.004589
7.8000,-2.599714541,16.95697402,1077.025142
7.8050,-2.613955601,16.96508525,1077.045727
7.8100,-2.627963872,16.97311659,1077.066358
7.8150,-2.641779278,16.98108263,1077.087048
7.8200,-2.655400337,16.98897667,1077.107805
7.8250,-2.668844148,16.99675486,1077.128631
7.8300,-2.682084587,17.00442885,1077.149528
7.8350,-2.695179462,17.01197475,1077.170502
7.8400,-2.708165139,17.01940435,1077.191576
7.8450,-2.721000808,17.0267114,1077.212742
7.8500,-2.733783971,17.03390917,1077.234031
7.8550,-2.74643898,17.04095973,1077.255428
7.8600,-2.759018249,17.04788197,1077.27695
7.8650,-2.771559944,17.05467873,1077.29861
7.8700,-2.784065994,17.06132573,1077.3204
7.8750,-2.796566266,17.06782076,1077.342341
7.8800,-2.809093545,17.07418839,1077.364437
7.8850,-2.821657516,17.08045596,1077.386692
7.8900,-2.834237396,17.08655792,1077.409102
7.8950,-2.846880137,17.09252798,1077.431686
7.9000,-2.859594059,17.0984216,1077.454446
7.9050,-2.872351736,17.10430884,1077.477389
7.9100,-2.885164774,17.11015216,1077.500522
7.9150,-2.898016371,17.11606099,1077.523838
7.9200,-2.910871107,17.12199929,1077.547336
7.9250,-2.92376581,17.12803456,1077.57102
7.9300,-2.936701949,17.13413529,1077.594891
7.9350,-2.949662488,17.14032002,1077.618953
7.9400,-2.962706412,17.14655158,1077.643215
7.9450,-2.975834183,17.15289715,1077.667687
7.9500,-2.989066535,17.15930628,1077.692359
7.9550,-3.00238034,17.1657821,1077.717242
7.9600,-3.01580432,17.17234067,1077.742345
7.9650,-3.029309944,17.17898953,1077.767658
7.9700,-3.042889429,17.18570932,1077.793174
7.9750,-3.056539977,17.1925333,1077.818897
7.9800,-3.070214285,17.19941932,1077.844832
7.9850,-3.083901824,17.20638984,1077.87099
7.9900,-3.097619829,17.21337375,1077.897348
7.9950,-3.111417039,17.22041101,1077.923929
8.0000,-3.12528842,17.2274881,1077.950736
8.0050,-3.13919048,17.23456689,1077.977749
8.0100,-3.153125614,17.24166642,1078.004975
8.0150,-3.167090255,17.24878134,1078.032394
8.0200,-3.181099519,17.25591006,1078.060007
8.0250,-3.195210107,17.26300777,1078.087803
8.0300,-3.209353586,17.27010864,1078.115773
8.0350,-3.223601113,17.27717355,1078.143925
8.0400,-3.237952918,17.28424591,1078.172257
8.0450,-3.252396749,17.29128798,1078.200744
8.0500,-3.266877607,17.29835006,1078.229376
8.0550,-3.281378629,17.30544202,1078.258163
8.0600,-3.295876431,17.3126037,1078.287091
8.0650,-3.310416649,17.31985362,1078.316171
8.0700,-3.324954058,17.32715498,1078.345378
8.0750,-3.339476692,17.33452066,1078.374713
8.0800,-3.354012013,17.34196736,1078.404188
8.0850,-3.368539162,17.34946522,1078.433786
8.0900,-3.383019099,17.35705616,1078.463508
8.0950,-3.397430281,17.36468938,1078.49334
8.1000,-3.411750389,17.37242879,1078.523274
8.1050,-3.425946076,17.38024244,1078.553317
8.1100,-3.440032149,17.38815141,1078.583466
8.1150,-3.453969696,17.39613479,1078.613723
8.1200,-3.467735006,17.40421519,1078.644076
8.1250,-3.481338404,17.41241694,1078.674517
8.1300,-3.494816477,17.42076569,1078.705047
8.1350,-3.50816346,17.42927931,1078.735673
8.1400,-3.521352427,17.43796016,1078.766386
8.1450,-3.534483265,17.44676908,1078.797202
8.1500,-3.547502509,17.45568852,1078.828088
8.1550,-3.560499054,17.46474249,1078.859064
8.1600,-3.573455301,17.47389503,1078.890115
8.1650,-3.586356163,17.48315267,1078.921225
8.1700,-3.599194555,17.49250434,1078.952394
8.1750,-3.612018923,17.50198925,1078.983618
8.1800,-3.624768898,17.51161139,1079.01489
8.1850,-3.637487519,17.52139007,1079.046215
8.1900,-3.650189679,17.53135258,1079.077594
8.1950,-3.662885698,17.54149859,1079.109028
8.2000,-3.675518459,17.55179327,1079.140503
8.2050,-3.688151665,17.56227919,1079.172034
8.2100,-3.700736665,17.57299167,1079.203601
8.2150,-3.713336415,17.58386877,1079.235193
8.2200,-3.72598298,17.59490809,1079.266849
8.2250,-3.738667774,17.60609142,1079.298538
8.2300,-3.751417178,17.61744246,1079.330235
8.2350,-3.764252853,17.62893745,1079.361926
8.2400,-3.777181961,17.6406011,1079.393626
8.2450,-3.790259031,17.65239745,1079.425334
8.2500,-3.803448848,17.66437748,1079.457031
8.2550,-3.816870816,17.67652286,1079.488728
8.2600,-3.83051104,17.68880657,1079.520404
8.2650,-3.844391736,17.70114484,1079.55205
8.2700,-3.858577546,17.71356085,1079.583684
8.2750,-3.873061566,17.72600943,1079.615279
8.2800,-3.887843336,17.73848732,1079.646816
8.2850,-3.902960474,17.7509882,1079.67831
8.2900,-3.9183619,17.76348584,1079.709736
8.2950,-3.934024202,17.77594135,1079.741081
8.3000,-3.949898518,17.78835382,1079.772323
8.3050,-3.965958475,17.80067895,1079.80345
8.3100,-3.982118105,17.81288925,1079.834426
8.3150,-3.998364653,17.82496969,1079.86527
8.3200,-4.014601819,17.83686728,1079.895951
8.3250,-4.030767664,17.84858727,1079.926463
8.3300,-4.046817597,17.86008397,1079.956793
8.3350,-4.062660517,17.87132208,1079.986927
8.3400,-4.078231909,17.88227635,1080.016857
8.3450,-4.093423562,17.89297924,1080.046562
8.3500,-4.108207007,17.90337934,1080.076044
8.3550,-4.122533853,17.91343137,1080.105279
8.3600,-4.136337915,17.92315171,1080.134262
8.3650,-4.149544127,17.93249293,1080.16296
8.3700,-4.162174272,17.94145529,1080.191395
8.3750,-4.174214026,17.95001541,1080.21955
8.3800,-4.185628503,17.95812777,1080.247411
8.3850,-4.196417451,17.96584811,1080.274994
8.3900,-4.206594161,17.97316224,1080.302295
8.3950,-4.216132429,17.98012815,1080.329338
8.4000,-4.225066614,17.98673797,1080.356134
8.4050,-4.23340958,17.99303279,1080.382673
8.4100,-4.241182584,17.99900013,1080.408973
8.4150,-4.248403876,18.00475294,1080.43505
8.4200,-4.255087264,18.01027546,1080.460915
8.4250,-4.261233555,18.01558819,1080.486567
8.4300,-4.266837636,18.02064819,1080.51202
8.4350,-4.271948023,18.02546773,1080.53729
8.4400,-4.276623681,18.03003813,1080.562385
8.4450,-4.280823948,18.0343823,1080.587318
8.4500,-4.284611182,18.03848544,1080.61211
8.4550,-4.288009833,18.04237082,1080.636773
8.4600,-4.29106701,18.04600675,1080.661333
8.4650,-4.293840282,18.04943171,1080.68583
8.4700,-4.296347083,18.05268665,1080.710274
8.4750,-4.298605405,18.05570633,1080.734688
8.4800,-4.300619589,18.05859853,1080.759084
8.4850,-4.302404222,18.06131967,1080.783461
8.4900,-4.304016241,18.06391544,1080.807847
8.4950,-4.305487131,18.06640641,1080.83226
8.5000,-4.306920346,18.06881446,1080.856727
8.5050,-4.308308749,18.07110775,1080.881235
8.5100,-4.309762663,18.07335039,1080.905822
8.5150,-4.311268256,18.07559968,1080.930532
8.5200,-4.312850965,18.0778914,1080.95532
8.5250,-4.314566753,18.08024231,1080.980243
8.5300,-4.316450714,18.08268786,1081.005334
8.5350,-4.318555596,18.08526156,1081.030615
8.5400,-4.32091781,18.08801176,1081.056094
8.5450,-4.323526239,18.09099148,1081.081768
8.5500,-4.326421247,18.09420224,1081.107661
8.5550,-4.329592215,18.0976928,1081.133772
8.5600,-4.33306998,18.10144765,1081.160107
8.5650,-4.336832743,18.10553021,1081.186668
8.5700,-4.340872899,18.10990873,1081.213442
8.5750,-4.345204032,18.11463004,1081.240446
8.5800,-4.349890424,18.11963544,1081.267688
8.5850,-4.354891684,18.12485173,1081.295137
8.5900,-4.360236641,18.13029632,1081.322814
8.5950,-4.365896662,18.13595126,1081.350693
8.6000,-4.371880106,18.14175972,1081.378774
8.6050,-4.378197506,18.14770982,1081.407052
8.6100,-4.384843527,18.15377702,1081.435525
8.6150,-4.391811635,18.15993365,1081.464166
8.6200,-4.399071208,18.16617058,1081.492954
8.6250,-4.406603679,18.17244893,1081.521867
8.6300,-4.414446908,18.17875688,1081.550901
8.6350,-4.422569312,18.1851548,1081.580045
8.6400,-4.430942557,18.19161327,1081.60927
8.6450,-4.43963059,18.19806185,1081.638587
8.6500,-4.448604123,18.20450202,1081.667967
8.6550,-4.457866997,18.21096623,1081.697406
8.6600,-4.467408004,18.21738702,1081.726894
8.6650,-4.47720031,18.22379847,1081.756419
8.6700,-4.487194253,18.23022824,1081.785953
8.6750,-4.497345659,18.23673064,1081.815499
8.6800,-4.507617373,18.243351,1081.845037
8.6850,-4.518008724,18.25004668,1081.874573
8.6900,-4.528429884,18.25683782,1081.904059
8.6950,-4.538933985,18.26376442,1081.933518
8.7000,-4.549407972,18.27081604,1081.962918
8.7050,-4.559881642,18.27798997,1081.992273
8.7100,-4.570288497,18.28531172,1082.021549
8.7150,-4.580622081,18.29270268,1082.05073
8.7200,-4.590879631,18.30016532,1082.079826
8.7250,-4.601022833,18.30769305,1082.108818
8.7300,-4.611059626,18.31530681,1082.137702
8.7350,-4.620914802,18.32299515,1082.166432
8.7400,-4.630603921,18.33068708,1082.195022
8.7450,-4.64010567,18.33842887,1082.223443
8.7500,-4.649396933,18.34626497,1082.251698
8.7550,-4.65849731,18.35413542,1082.279776
8.7600,-4.667377091,18.36206838,1082.307669
8.7650,-4.676052074,18.37004252,1082.335358
8.7700,-4.684499523,18.3780262,1082.362851
8.7750,-4.692728711,18.38607042,1082.390133
8.7800,-4.700782001,18.3941212,1082.417221
8.7850,-4.708640008,18.4021659,1082.444096
8.7900,-4.716252461,18.41018368,1082.470734
8.7950,-4.723647286,18.41820728,1082.497148
8.8000,-4.730804142,18.42622495,1082.523331
8.8050,-4.737745033,18.43421959,1082.549286
8.8100,-4.74441644,18.44216668,1082.574992
8.8150,-4.750832667,18.45007406,1082.600434
8.8200,-4.757026713,18.45797531,1082.625664
8.8250,-4.762972174,18.46586245,1082.650652
8.8300,-4.768629027,18.47379275,1082.675396
8.8350,-4.774010597,18.48172371,1082.699892
8.8400,-4.779125096,18.48963943,1082.724134
8.8450,-4.783975879,18.49753134,1082.74813
8.8500,-4.788544163,18.50536846,1082.771869
8.8550,-4.79281575,18.51312563,1082.795343
8.8600,-4.796817627,18.52080842,1082.818571
8.8650,-4.800536216,18.52842477,1082.841553
8.8700,-4.8039758,18.53597288,1082.864294
8.8750,-4.807095724,18.5433977,1082.886773
8.8800,-4.809905465,18.55073466,1082.909008
8.8850,-4.812463948,18.5579711,1082.93102
8.8900,-4.814734068,18.56512843,1082.9528
8.8950,-4.816752133,18.57219122,1082.974375
8.9000,-4.818521514,18.57915824,1082.995737
8.9050,-4.820038977,18.58604143,1083.016903
8.9100,-4.821385584,18.59277896,1083.037882
8.9150,-4.822527379,18.59939661,1083.058691
8.9200,-4.823521018,18.60593027,1083.079359
8.9250,-4.824411992,18.61237218,1083.09991
8.9300,-4.825164698,18.61875891,1083.120347
8.9350,-4.825748946,18.6250147,1083.140639
8.9400,-4.826176781,18.63119635,1083.160813
8.9450,-4.826390511,18.63734802,1083.180857
8.9500,-4.826424708,18.64347965,1083.200791
8.9550,-4.826267338,18.64956447,1083.220616
8.9600,-4.825924857,18.65560485,1083.240325
8.9650,-4.825446623,18.66160668,1083.259952
8.9700,-4.824830655,18.66751667,1083.279493
8.9750,-4.82405098,18.67335468,1083.29895
8.9800,-4.823141707,18.6790934,1083.318328
8.9850,-4.822107387,18.68470899,1083.337618
8.9900,-4.820961918,18.69020454,1083.356841
8.9950,-4.81967378,18.69555833,1083.375978
9.0000,-4.818267755,18.70076377,1083.395042
9.0050,-4.816717394,18.70578564,1083.414013
9.0100,-4.815024988,18.71062106,1083.432905
9.0150,-4.81319995,18.71529908,1083.45172
9.0200,-4.811275437,18.71977264,1083.470461
9.0250,-4.809297798,18.7240793,1083.48916
9.0300,-4.80729475,18.72822154,1083.507835
9.0350,-4.805309696,18.73215712,1083.526493
9.0400,-4.803333792,18.7359338,1083.545129
9.0450,-4.801379747,18.73950695,1083.563745
9.0500,-4.799486816,18.74287114,1083.582356
9.0550,-4.797649956,18.74604202,1083.600954
9.0600,-4.795895238,18.74908491,1083.619566
9.0650,-4.794228005,18.75199826,1083.638194
9.0700,-4.792722577,18.75483413,1083.656858
9.0750,-4.791329984,18.75760411,1083.67554
9.0800,-4.790053729,18.76032809,1083.694231
9.0850,-4.788920713,18.76307092,1083.712956
9.0900,-4.787934029,18.76586069,1083.731721
9.0950,-4.787117955,18.76866659,1083.750504
9.1000,-4.786441229,18.77153513,1083.769292
9.1050,-4.785948283,18.77453909,1083.78811
9.1100,-4.785580881,18.77770028,1083.806934
9.1150,-4.785330038,18.78105051,1083.82577
9.1200,-4.785200737,18.7845844,1083.844586
9.1250,-4.785115305,18.78836238,1083.863368
9.1300,-4.78509812,18.79234882,1083.882103
9.1350,-4.785068942,18.79659799,1083.900756
9.1400,-4.785007535,18.80108279,1083.919316
9.1450,-4.784950933,18.80583206,1083.937774
9.1500,-4.784858349,18.81087655,1083.95611
9.1550,-4.784718002,18.81619809,1083.974329
9.1600,-4.784501971,18.82181476,1083.992402
9.1650,-4.784210815,18.82770638,1084.010317
9.1700,-4.783805834,18.8338812,1084.028054
9.1750,-4.783273197,18.84029733,1084.045591
9.1800,-4.782622548,18.84690242,1084.062913
9.1850,-4.781785848,18.8537007,1084.079993
9.1900,-4.780818514,18.86062758,1084.096833
9.1950,-4.779757727,18.86763661,1084.113429
9.2000,-4.778597679,18.87468408,1084.129768
9.2050,-4.77735415,18.88171753,1084.145843
9.2100,-4.775987943,18.88878105,1084.16166
9.2150,-4.774529133,18.89576743,1084.177194
9.2200,-4.77295969,18.90264446,1084.192432
9.2250,-4.771231537,18.90937661,1084.207354
9.2300,-4.769395486,18.91588096,1084.221955
9.2350,-4.767492722,18.92219089,1084.236265
9.2400,-4.765548946,18.92822956,1084.250287
9.2450,-4.763600713,18.93391451,1084.264005
9.2500,-4.761650297,18.93925844,1084.277433
9.2550,-4.75967236,18.94428378,1084.290576
9.2600,-4.757674911,18.94893739,1084.30342
9.2650,-4.755603124,18.95323159,1084.315965
9.2700,-4.753445269,18.95716901,1084.328189
9.2750,-4.751241863,18.9607477,1084.340129
9.2800,-4.748955405,18.96395377,1084.351768
9.2850,-4.74657992,18.96682644,1084.36312
9.2900,-4.744154057,18.96936299,1084.374229
9.2950,-4.741631111,18.97161149,1084.385084
9.3000,-4.739047733,18.97356477,1084.395706
9.3050,-4.736390202,18.97529075,1084.406132
9.3100,-4.733661599,18.97679168,1084.416354
9.3150,-4.730868824,18.97802849,1084.426388
9.3200,-4.728000337,18.9791124,1084.436271
9.3250,-4.725066764,18.97995993,1084.445998
9.3300,-4.722056833,18.98060976,1084.455566
9.3350,-4.718992422,18.98108576,1084.46501
9.3400,-4.7158511,18.98144618,1084.474341
9.3450,-4.712715634,18.98173584,1084.483612
9.3500,-4.709574327,18.98194223,1084.492819
9.3550,-4.706440746,18.98212002,1084.501996
9.3600,-4.703341226,18.98226443,1084.511147
9.3650,-4.700271005,18.98238542,1084.520271
9.3700,-4.69721434,18.98246748,1084.529358
9.3750,-4.694259471,18.98251334,1084.538458
9.3800,-4.691390686,18.98250377,1084.547562
9.3850,-4.688625372,18.98249585,1084.556702
9.3900,-4.685992916,18.98249202,1084.565897
9.3950,-4.683434659,18.98252719,1084.575129
9.4000,-4.680993934,18.98268894,1084.584447
9.4050,-4.678583676,18.98296654,1084.593812
9.4100,-4.676302554,18.98337685,1084.60327
9.4150,-4.674122982,18.98393685,1084.612821
9.4200,-4.672008507,18.98468569,1084.622451
9.4250,-4.670028222,18.98560716,1084.632195
9.4300,-4.66821957,18.98673458,1084.642071
9.4350,-4.666576542,18.98807216,1084.652088
9.4400,-4.665095103,18.98965941,1084.662237
9.4450,-4.663752723,18.99147864,1084.672508
9.4500,-4.662564471,18.99356799,1084.682919
9.4550,-4.661473026,18.99592736,1084.693428
9.4600,-4.660466256,18.99853706,1084.704019
9.4650,-4.659531211,19.00139973,1084.714676
9.4700,-4.658698009,19.00447768,1084.725381
9.4750,-4.658019516,19.00781626,1084.73617
9.4800,-4.65744189,19.01134396,1084.746974
9.4850,-4.656985757,19.01502891,1084.757794
9.4900,-4.656654595,19.01884153,1084.768604
9.4950,-4.656378767,19.02276097,1084.779349
9.5000,-4.656144409,19.02678646,1084.790017
9.5050,-4.655950572,19.03085794,1084.800564
9.5100,-4.655799415,19.03491498,1084.810963
9.5150,-4.655715365,19.03894753,1084.821221
9.5200,-4.655665093,19.04293156,1084.831298
9.5250,-4.655680158,19.04683542,1084.841196
9.5300,-4.655668952,19.05068665,1084.850876
9.5350,-4.655663885,19.05440342,1084.86032
9.5400,-4.655619228,19.05797052,1084.869488
9.5450,-4.655511245,19.06140169,1084.878384
9.5500,-4.6553028,19.0646576,1084.88697
9.5550,-4.655007324,19.06769358,1084.895227
9.5600,-4.654605935,19.07052696,1084.903163
9.5650,-4.654086782,19.07316336,1084.910763
9.5700,-4.653422837,19.07559818,1084.918037
9.5750,-4.652609894,19.07774491,1084.924956
9.5800,-4.651594708,19.07964756,1084.931519
9.5850,-4.650361704,19.08130362,1084.937723
9.5900,-4.648888073,19.08272416,1084.943556
9.5950,-4.647181061,19.08386557,1084.949025
9.6000,-4.645258902,19.08473395,1084.95415
9.6050,-4.643110101,19.08532896,1084.958927
9.6100,-4.640769074,19.08565407,1084.96339
9.6150,-4.638231339,19.08574727,1084.967555
9.6200,-4.635575066,19.0855274,1084.971432
9.6250,-4.632800319,19.0850638,1084.97504
9.6300,-4.6299688,19.08431129,1084.978424
9.6350,-4.627111388,19.08330604,1084.981598
9.6400,-4.624303011,19.08205585,1084.984616
9.6450,-4.621525901,19.08051794,1084.98746
9.6500,-4.618844543,19.07876885,1084.990187
9.6550,-4.616315083,19.07682164,1084.992829
9.6600,-4.613898867,19.07471115,1084.995398
9.6650,-4.61160685,19.07248686,1084.997911
9.6700,-4.60945359,19.07021066,1085.000411
9.6750,-4.607423573,19.06793021,1085.002906
9.6800,-4.605583491,19.06572165,1085.005449
9.6850,-4.603901604,19.06360056,1085.008034
9.6900,-4.602371603,19.06160564,1085.010673
9.6950,-4.601025098,19.05980308,1085.013407
9.7000,-4.599809212,19.05817288,1085.016209
9.7050,-4.598777841,19.05672449,1085.01912
9.7100,-4.597863031,19.05553669,1085.022136
9.7150,-4.597040876,19.05461057,1085.025232
9.7200,-4.59635361,19.05396545,1085.028456
9.7250,-4.595758314,19.05358716,1085.03178
9.7300,-4.595221314,19.05350633,1085.035206
9.7350,-4.594733747,19.05372888,1085.038721
9.7400,-4.594307142,19.05421626,1085.042333
9.7450,-4.593882322,19.0549957,1085.046017
9.7500,-4.593502064,19.0559997,1085.049769
9.7550,-4.593162123,19.05723753,1085.053589
9.7600,-4.592845927,19.05863242,1085.057435
9.7650,-4.592594412,19.060169,1085.061332
9.7700,-4.59235866,19.06178844,1085.065224
9.7750,-4.59213951,19.06340796,1085.069099
9.7800,-4.591952213,19.06501944,1085.07294
9.7850,-4.591835706,19.06654155,1085.076732
9.7900,-4.591751913,19.06794981,1085.080455
9.7950,-4.591715065,19.06917431,1085.084089
9.8000,-4.591756077,19.07018176,1085.087622
9.8050,-4.591905767,19.07094786,1085.091067
9.8100,-4.592118922,19.07141396,1085.094371
9.8150,-4.592420297,19.07155056,1085.097531
9.8200,-4.592814403,19.07134964,1085.10055
9.8250,-4.593310926,19.07078599,1085.103399
9.8300,-4.593948832,19.06983163,1085.106093
9.8350,-4.594683035,19.06850395,1085.108614
9.8400,-4.595569047,19.06678404,1085.110979
9.8450,-4.596605754,19.06467288,1085.113168
9.8500,-4.597797593,19.06221196,1085.115203
9.8550,-4.599108252,19.05940019,1085.117057
9.8600,-4.600503706,19.0563046,1085.118728
9.8650,-4.602058748,19.05288683,1085.120239
9.8700,-4.603749432,19.04920143,1085.121575
9.8750,-4.605539616,19.04534424,1085.122748
9.8800,-4.607495241,19.04130096,1085.123775
9.8850,-4.60956108,19.03712361,1085.12464
9.8900,-4.61170609,19.03283875,1085.125335
9.8950,-4.61396613,19.02846505,1085.125881
9.9000,-4.616316998,19.02405513,1085.126269
9.9050,-4.61876791,19.0196256,1085.126509
9.9100,-4.621296123,19.01519954,1085.126603
9.9150,-4.62389086,19.01081821,1085.126541
9.9200,-4.626523057,19.0065185,1085.12633
9.9250,-4.629201578,19.00235852,1085.125991
9.9300,-4.631932373,18.99832618,1085.125508
9.9350,-4.634700377,18.99445767,1085.124908
9.9400,-4.637525029,18.9907357,1085.124178
9.9450,-4.640418372,18.98719109,1085.123344
9.9500,-4.643345847,18.9838339,1085.122391
9.9550,-4.646309042,18.98066394,1085.121324
9.9600,-4.649356484,18.97767883,1085.120147
9.9650,-4.652489838,18.97487142,1085.118872
9.9700,-4.655720701,18.97224429,1085.117506
9.9750,-4.659064971,18.96977001,1085.116047
9.9800,-4.66246835,18.96745109,1085.114475
9.9850,-4.665972528,18.965292,1085.112811
9.9900,-4.669567584,18.96325111,1085.111035
9.9950,-4.673234495,18.96132223,1085.109154
10.0000,-4.676998508,18.95947433,1085.10717
10.0050,-4.680840764,18.95770578,1085.105073
10.0100,-4.684778648,18.95597959,1085.102861
10.0150,-4.688817891,18.95424679,1085.100528
10.0200,-4.692921122,18.95249746,1085.098056
10.0250,-4.697092824,18.95077259,1085.095451
10.0300,-4.70133008,18.94902635,1085.09271
10.0350,-4.705632388,18.94721867,1085.089829
10.0400,-4.709967556,18.94539901,1085.08681
10.0450,-4.714369645,18.943474,1085.083639
10.0500,-4.718804699,18.94145194,1085.080307
10.0550,-4.72332823,18.93931492,1085.076844
10.0600,-4.727933287,18.93707149,1085.073252
10.0650,-4.73262029,18.93469284,1085.069514
10.0700,-4.737389105,18.9321881,1085.065658
10.0750,-4.742244531,18.92953863,1085.061657
10.0800,-4.74721839,18.92675678,1085.057553
10.0850,-4.752264531,18.92388835,1085.05334
10.0900,-4.757402455,18.92089391,1085.049002
10.0950,-4.762641667,18.91781516,1085.04456
10.1000,-4.767966962,18.91463639,1085.040025
10.1050,-4.773331538,18.9113891,1085.035379
10.1100,-4.778749234,18.90810378,1085.030645
10.1150,-4.784184245,18.90480773,1085.025809
10.1200,-4.789677106,18.90146242,1085.020877
10.1250,-4.795196043,18.89812341,1085.015876
10.1300,-4.800750953,18.89476361,1085.010783
10.1350,-4.806351585,18.89140037,1085.005613
10.1400,-4.811988619,18.88807003,1085.000367
10.1450,-4.817670327,18.88477688,1084.995064
10.1500,-4.823396089,18.88151356,1084.989693
10.1550,-4.829190968,18.8783357,1084.984288
10.1600,-4.835065425,18.87522779,1084.978853
10.1650,-4.840961447,18.87220341,1084.973359
10.1700,-4.846901319,18.86930116,1084.967836
10.1750,-4.852865371,18.86652473,1084.962256
10.1800,-4.858856693,18.86389685,1084.95665
10.1850,-4.86488097,18.86140362,1084.951013
10.1900,-4.870962823,18.85903062,1084.945331
10.1950,-4.877095494,18.85680789,1084.939618
10.2000,-4.883259425,18.85473496,1084.933869
10.2050,-4.889463422,18.85283387,1084.928084
10.2100,-4.895709749,18.85110877,1084.922265
10.2150,-4.902000941,18.8495496,1084.916419
10.2200,-4.908316717,18.84820462,1084.910532
10.2250,-4.914670326,18.84702823,1084.90462
10.2300,-4.921055803,18.8461255,1084.898716
10.2350,-4.927450398,18.84544683,1084.892777
10.2400,-4.933835002,18.84505052,1084.886829
10.2450,-4.94022156,18.84495166,1084.880875
10.2500,-4.946599007,18.84516126,1084.874902
10.2550,-4.952966713,18.84568334,1084.868912
10.2600,-4.959326095,18.8464973,1084.862918
10.2650,-4.965671296,18.84762764,1084.85691
10.2700,-4.971979835,18.8490532,1084.850872
10.2750,-4.978235964,18.85079271,1084.844797
10.2800,-4.984493525,18.8528627,1084.838718
10.2850,-4.990687143,18.85521835,1084.832595
10.2900,-4.996834203,18.85788758,1084.826444
10.2950,-5.002907384,18.8608438,1084.820234
10.3000,-5.008898182,18.86413255,1084.813974
10.3050,-5.014805361,18.86771276,1084.807649
10.3100,-5.020628424,18.87154003,1084.801239
10.3150,-5.026345772,18.87563555,1084.794747
10.3200,-5.031931705,18.87996956,1084.788129
10.3250,-5.037400383,18.88448329,1084.781382
10.3300,-5.042718624,18.88918492,1084.77449
10.3350,-5.04791801,18.89404166,1084.767442
10.3400,-5.053003259,18.89896251,1084.76022
10.3450,-5.05793856,18.90398493,1084.752819
10.3500,-5.062724611,18.90906172,1084.74523
10.3550,-5.067340215,18.91415684,1084.737424
10.3600,-5.071815675,18.91928928,1084.729417
10.3650,-5.07617065,18.92440557,1084.721209
10.3700,-5.080424464,18.92951427,1084.712816
10.3750,-5.084554011,18.93461679,1084.70422
10.3800,-5.088540267,18.93970798,1084.695403
10.3850,-5.092393759,18.94471989,1084.686359
10.3900,-5.096138715,18.9496981,1084.67712
10.3950,-5.099765921,18.95463058,1084.667678
10.4000,-5.103270221,18.95950948,1084.658026
10.4050,-5.106693071,18.96436577,1084.648197
10.4100,-5.110042994,18.96917159,1084.638181
10.4150,-5.113320654,18.97390206,1084.627977
10.4200,-5.116531748,18.97859234,1084.617603
10.4250,-5.119691973,18.98320647,1084.607041
10.4300,-5.122794843,18.98777634,1084.596315
10.4350,-5.125848451,18.99231137,1084.585437
10.4400,-5.128794558,18.99682516,1084.574374
10.4450,-5.131649897,19.00129444,1084.563137
10.4500,-5.134405189,19.00571248,1084.551714
10.4550,-5.137060103,19.01010216,1084.540121
10.4600,-5.139623724,19.01442302,1084.528342
10.4650,-5.142085795,19.01869026,1084.516386
10.4700,-5.14442644,19.02289113,1084.504228
10.4750,-5.146672624,19.02700908,1084.491887
10.4800,-5.148834713,19.03102613,1084.479354
10.4850,-5.15090573,19.03494653,1084.466622
10.4900,-5.152932536,19.03874774,1084.453722
10.4950,-5.154884197,19.04241042,1084.440626
10.5000,-5.156794492,19.04595149,1084.427362
10.5050,-5.158634546,19.04934862,1084.413918
10.5100,-5.160467095,19.05260952,1084.400316
10.5150,-5.162276701,19.05574423,1084.38656
10.5200,-5.164108209,19.05873371,1084.372665
10.5250,-5.165964773,19.06157804,1084.358624
10.5300,-5.167824591,19.06423829,1084.344419
10.5350,-5.169728862,19.06674343,1084.330084
10.5400,-5.171658362,19.06905603,1084.315589
10.5450,-5.173607844,19.07121695,1084.300941
10.5500,-5.175586778,19.07318418,1084.286144
10.5550,-5.177570924,19.07498289,1084.271201
10.5600,-5.179537665,19.07666697,1084.256095
10.5650,-5.181483529,19.07825617,1084.240851
10.5700,-5.183418694,19.07976881,1084.22546
10.5750,-5.185276433,19.08124049,1084.209913
10.5800,-5.187015299,19.08262306,1084.194177
10.5850,-5.188686775,19.083929,1084.178263
10.5900,-5.190211323,19.08515331,1084.162139
10.5950,-5.191618066,19.08629772,1084.145809
10.6000,-5.192909972,19.08731006,1084.129257
10.6050,-5.194064059,19.08824179,1084.112485
10.6100,-5.195073732,19.08907521,1084.095493
10.6150,-5.195963058,19.08984745,1084.078291
10.6200,-5.196726172,19.0905577,1084.060889
10.6250,-5.197349245,19.09120995,1084.043278
10.6300,-5.197837958,19.09177601,1084.025457
10.6350,-5.198180565,19.09232215,1084.007428
10.6400,-5.198350627,19.09286008,1083.98918
10.6450,-5.19838569,19.09338168,1083.97072
10.6500,-5.198286994,19.09391179,1083.952056
10.6550,-5.198015676,19.09448167,1083.933174
10.6600,-5.197560256,19.09506741,1083.914081
10.6650,-5.196891537,19.09565807,1083.894757
10.6700,-5.19600857,19.09627325,1083.875197
10.6750,-5.194900953,19.09691193,1083.855409
10.6800,-5.193571363,19.09754183,1083.835403
10.6850,-5.192035872,19.09819497,1083.815179
10.6900,-5.190256052,19.09884011,1083.794719
10.6950,-5.188232027,19.09946483,1083.774029
10.7000,-5.186000772,19.10006082,1083.753114
10.7050,-5.1835258,19.10059336,1083.731959
10.7100,-5.180832723,19.10104101,1083.710576
10.7150,-5.177933128,19.10140435,1083.688968
10.7200,-5.174828459,19.10168601,1083.66715
10.7250,-5.171573394,19.10184378,1083.645143
10.7300,-5.168172705,19.10182624,1083.62294
10.7350,-5.164619249,19.10164263,1083.600546
10.7400,-5.160987819,19.10125252,1083.577989
10.7450,-5.157282701,19.10068682,1083.555274
10.7500,-5.153525505,19.09994088,1083.532421
10.7550,-5.149737198,19.09897582,1083.509423
10.7600,-5.145915039,19.09782898,1083.486285
10.7650,-5.142124324,19.09647933,1083.463032
10.7700,-5.13837823,19.09489264,1083.439666
10.7750,-5.134695272,19.09304456,1083.416179
10.7800,-5.131060446,19.09096256,1083.392573
10.7850,-5.127562513,19.08863312,1083.368878
10.7900,-5.124144178,19.08605152,1083.345088
10.7950,-5.120833569,19.08324831,1083.321219
10.8000,-5.117605203,19.08025139,1083.297265
10.8050,-5.114499935,19.07704096,1083.27323
10.8100,-5.111470913,19.07365144,1083.249115
10.8150,-5.108578909,19.07007767,1083.224945
10.8200,-5.10577944,19.06632514,1083.200715
10.8250,-5.103050414,19.06244781,1083.176428
10.8300,-5.100347794,19.05847672,1083.152082
10.8350,-5.097700168,19.05447374,1083.127699
10.8400,-5.095107856,19.05043409,1083.103281
10.8450,-5.092550254,19.04639249,1083.078826
10.8500,-5.090005909,19.04233471,1083.054331
10.8550,-5.087461134,19.03835925,1083.029802
10.8600,-5.084938998,19.03441624,1083.005241
10.8650,-5.082405361,19.03052619,1082.980633
10.8700,-5.079852958,19.02672948,1082.956
10.8750,-5.077294223,19.02298961,1082.931331
10.8800,-5.074710288,19.01936854,1082.906644
10.8850,-5.07207239,19.01586055,1082.881918
10.8900,-5.069406569,19.01251706,1082.857182
10.8950,-5.066687358,19.00935871,1082.832428
10.9000,-5.063869975,19.00638466,1082.80763
10.9050,-5.060938718,19.00361909,1082.782797
10.9100,-5.057838748,19.00108298,1082.757903
10.9150,-5.054575427,18.99872162,1082.732931
10.9200,-5.051153283,18.99652771,1082.707889
10.9250,-5.04756394,18.99451995,1082.682766
10.9300,-5.04382651,18.99265559,1082.65756
10.9350,-5.039904212,18.99087488,1082.632266
10.9400,-5.035817202,18.98922174,1082.60688
10.9450,-5.031536377,18.9876459,1082.581401
10.9500,-5.027044204,18.98614808,1082.555823
10.9550,-5.022386103,18.98467795,1082.530158
10.9600,-5.017547385,18.98325293,1082.504384
10.9650,-5.012528105,18.98187098,1082.478515
10.9700,-5.007352714,18.98049067,1082.452555
10.9750,-5.002048215,18.97911272,1082.4265
10.9800,-4.996613386,18.97771288,1082.400352
10.9850,-4.991032858,18.97629141,1082.374098
10.9900,-4.985295934,18.97484592,1082.347742
10.9950,-4.979448167,18.97335184,1082.321285
11.0000,-4.973477467,18.97179929,1082.294729
11.0050,-4.967468334,18.97012117,1082.268091
11.0100,-4.961412094,18.96833505,1082.241372
11.0150,-4.955349886,18.96639575,1082.214572
11.0200,-4.949317124,18.96424303,1082.187683
11.0250,-4.943291212,18.96191545,1082.160701
11.0300,-4.937335286,18.95941071,1082.133648
11.0350,-4.931406971,18.95669705,1082.106503
11.0400,-4.925513236,18.95381081,1082.079289
11.0450,-4.919653313,18.95075612,1082.051998
11.0500,-4.913862322,18.94750174,1082.024629
11.0550,-4.908147586,18.94404969,1081.997177
11.0600,-4.902502505,18.94039809,1081.969643
11.0650,-4.896909087,18.93657273,1081.942017
11.0700,-4.891390014,18.93260734,1081.914321
11.0750,-4.885923038,18.92854382,1081.886563
11.0800,-4.880501878,18.92437983,1081.858735
11.0850,-4.875053956,18.92012748,1081.830827
11.0900,-4.869615409,18.91582749,1081.802831
11.0950,-4.864174485,18.91146362,1081.774741
11.1000,-4.858721343,18.90701654,1081.746551
11.1050,-4.853265071,18.90253814,1081.71827
11.1100,-4.847817179,18.89801249,1081.689896
11.1150,-4.842329314,18.89348699,1081.661399
11.1200,-4.836818739,18.8889628,1081.63279
11.1250,-4.831300585,18.88439754,1081.604063
11.1300,-4.825836559,18.87981718,1081.575224
11.1350,-4.820388268,18.87518661,1081.546267
11.1400,-4.814980692,18.87052595,1081.517198
11.1450,-4.809597323,18.86581891,1081.488011
11.1500,-4.804262752,18.86109793,1081.458719
11.1550,-4.798919658,18.85635536,1081.429319
11.1600,-4.793512558,18.85162009,1081.39981
11.1650,-4.788030217,18.84689698,1081.370198
11.1700,-4.782441148,18.8421693,1081.340459
11.1750,-4.776770914,18.83743955,1081.310632
11.1800,-4.770994891,18.83270405,1081.280693
11.1850,-4.765073927,18.82801557,1081.250671
11.1900,-4.758968343,18.82334483,1081.220557
11.1950,-4.752646138,18.81869213,1081.190349
11.2000,-4.746137879,18.81402767,1081.160072
11.2050,-4.739425411,18.80931595,1081.129708
11.2100,-4.732548581,18.80457558,1081.099297
11.2150,-4.725470078,18.79978567,1081.068834
11.2200,-4.718199827,18.79493169,1081.038329
11.2250,-4.710712739,18.7899811,1081.007783
11.2300,-4.70298233,18.78493018,1080.977191
11.2350,-4.695087578,18.77973063,1080.946579
11.2400,-4.68700594,18.77439608,1080.915962
11.2450,-4.678819115,18.76889439,1080.885352
11.2500,-4.670545165,18.76319164,1080.854764
11.2550,-4.662194264,18.75728772,1080.824212
11.2600,-4.653808755,18.75116721,1080.793706
11.2650,-4.645408766,18.74478163,1080.763257
11.2700,-4.636987936,18.73813947,1080.732871
11.2750,-4.628549045,18.73121911,1080.702568
11.2800,-4.620059628,18.72405088,1080.672343
11.2850,-4.611526942,18.71662625,1080.642209
11.2900,-4.602962945,18.70889032,1080.61216
11.2950,-4.594397945,18.70084406,1080.58222
11.3000,-4.585787131,18.69248146,1080.552354
11.3050,-4.577101825,18.68381857,1080.522574
11.3100,-4.568359569,18.67488125,1080.492896
11.3150,-4.559557593,18.66565538,1080.463321
11.3200,-4.550670432,18.65618244,1080.433856
11.3250,-4.541664604,18.6464563,1080.4045
11.3300,-4.532566932,18.63646472,1080.375245
11.3350,-4.523397298,18.62624956,1080.346107
11.3400,-4.514176602,18.61573245,1080.317058
11.3450,-4.50489084,18.60492573,1080.288102
11.3500,-4.495495112,18.59388272,1080.25923
11.3550,-4.486002706,18.58262638,1080.230467
11.3600,-4.476415606,18.57113474,1080.201804
11.3650,-4.466748637,18.55942002,1080.173227
11.3700,-4.457022485,18.54747697,1080.144731
11.3750,-4.447259132,18.53536829,1080.116323
11.3800,-4.437459558,18.52308896,1080.087987
11.3850,-4.427655912,18.51066345,1080.059726
11.3900,-4.417816522,18.49813926,1080.031529
11.3950,-4.407947394,18.48553986,1080.003393
11.4000,-4.398070154,18.47288649,1079.97532
11.4050,-4.388180766,18.4601592,1079.947308
11.4100,-4.378264924,18.44740629,1079.919332
11.4150,-4.368344484,18.43461845,1079.891409
11.4200,-4.35839192,18.42186587,1079.863525
11.4250,-4.348414455,18.40919871,1079.835688
11.4300,-4.338395278,18.39659521,1079.807885
11.4350,-4.328308866,18.38408365,1079.780109
11.4400,-4.318092023,18.37172133,1079.752347
11.4450,-4.307778874,18.35949919,1079.724612
11.4500,-4.297362339,18.34742269,1079.696889
11.4550,-4.28686805,18.33544325,1079.669179
11.4600,-4.27632454,18.32359492,1079.641492
11.4650,-4.265768606,18.31185431,1079.613821
11.4700,-4.255181729,18.3002341,1079.586175
11.4750,-4.24452522,18.28875295,1079.558522
11.4800,-4.23381554,18.2774378,1079.53089
11.4850,-4.22303691,18.26625464,1079.50327
11.4900,-4.212189267,18.25517915,1079.475661
11.4950,-4.201302826,18.24419312,1079.448093
11.5000,-4.190360106,18.23334667,1079.420558
11.5050,-4.179362078,18.2226336,1079.393071
11.5100,-4.168258591,18.21204576,1079.36561
11.5150,-4.157080817,18.20158943,1079.338185
11.5200,-4.145841042,18.19129387,1079.310796
11.5250,-4.134549342,18.1811166,1079.283446
11.5300,-4.123233997,18.17104179,1079.25614
11.5350,-4.111849181,18.16114463,1079.228875
11.5400,-4.100442769,18.15136417,1079.201668
11.5450,-4.088928806,18.14173102,1079.174488
11.5500,-4.077293298,18.13226842,1079.14734
11.5550,-4.065497143,18.12298242,1079.12022
11.5600,-4.053529103,18.11383619,1079.093135
11.5650,-4.041409425,18.10488151,1079.066091
11.5700,-4.02909709,18.09609212,1079.039068
11.5750,-4.016564111,18.08743814,1079.012067
11.5800,-4.003876682,18.07894685,1078.985119
11.5850,-3.991002032,18.07058009,1078.958212
11.5900,-3.977972769,18.06234733,1078.931358
11.5950,-3.964747238,18.05423682,1078.904543
11.6000,-3.95140123,18.04623973,1078.877791
11.6050,-3.937862455,18.03834292,1078.851076
11.6100,-3.924158388,18.03049319,1078.824402
11.6150,-3.910295185,18.02272496,1078.797775
11.6200,-3.896243046,18.01498935,1078.771171
11.6250,-3.882074385,18.0072697,1078.744597
11.6300,-3.867759964,17.99956393,1078.718056
11.6350,-3.853340764,17.99183925,1078.691541
11.6400,-3.838824915,17.98413796,1078.665078
11.6450,-3.824215298,17.97641176,1078.638669
11.6500,-3.809546732,17.96866362,1078.612322
11.6550,-3.794816551,17.96084645,1078.586019
11.6600,-3.780085626,17.9529688,1078.559769
11.6650,-3.765366942,17.94504409,1078.533594
11.6700,-3.750622445,17.93708342,1078.507485
11.6750,-3.735849194,17.92900926,1078.481433
11.6800,-3.721012633,17.92090157,1078.455444
11.6850,-3.706155566,17.91270193,1078.429506
11.6900,-3.691268527,17.90445314,1078.403632
11.6950,-3.676345216,17.89614592,1078.377811
11.7000,-3.661388369,17.88781349,1078.352048
11.7050,-3.646383783,17.87944154,1078.326326
11.7100,-3.631339244,17.8710397,1078.300664
11.7150,-3.616258554,17.86260686,1078.275057
11.7200,-3.601114871,17.85413835,1078.249498
11.7250,-3.585907306,17.84566106,1078.223993
11.7300,-3.570596936,17.83719113,1078.198547
11.7350,-3.555200563,17.82872984,1078.173149
11.7400,-3.5397973,17.82027339,1078.14783
11.7450,-3.524310556,17.8118419,1078.122565
11.7500,-3.508788795,17.80346398,1078.097372
11.7550,-3.493182899,17.79513576,1078.072242
11.7600,-3.477496645,17.78685071,1078.047166
11.7650,-3.461677768,17.77860732,1078.022149
11.7700,-3.445763043,17.77042653,1077.99721
11.7750,-3.429790778,17.76226752,1077.972366
11.7800,-3.413751655,17.75410636,1077.947605
11.7850,-3.397670016,17.74592178,1077.922939
11.7900,-3.381586962,17.73773825,1077.898375
11.7950,-3.365446598,17.72953044,1077.873894
11.8000,-3.349288544,17.7213026,1077.849513
11.8050,-3.333120865,17.71300228,1077.82522
11.8100,-3.316991601,17.70460581,1077.801027
11.8150,-3.300862126,17.69613021,1077.776931
11.8200,-3.284688009,17.68749371,1077.752933
11.8250,-3.26848481,17.67874484,1077.729034
11.8300,-3.252210722,17.6699031,1077.705229
11.8350,-3.235918333,17.66089668,1077.681517
11.8400,-3.219589062,17.65172012,1077.65789
11.8450,-3.203274367,17.64237489,1077.634363
11.8500,-3.18694522,17.63288412,1077.610923
11.8550,-3.170651369,17.62317787,1077.587567
11.8600,-3.154401476,17.61327846,1077.564305
11.8650,-3.138126138,17.60316899,1077.54111
11.8700,-3.121867119,17.59284307,1077.517989
11.8750,-3.105655082,17.58232337,1077.494948
11.8800,-3.08942673,17.5716229,1077.471966
11.8850,-3.073224599,17.56073697,1077.449053
11.8900,-3.057019855,17.54969679,1077.426211
11.8950,-3.040824989,17.53847318,1077.403448
11.9000,-3.024596681,17.52705857,1077.38077
11.9050,-3.008427361,17.51546764,1077.358202
11.9100,-2.992296975,17.50368557,1077.335738
11.9150,-2.976204686,17.49170933,1077.313388
11.9200,-2.960212668,17.47951943,1077.291189
11.9250,-2.94433632,17.4671178,1077.269148
11.9300,-2.928523626,17.45452409,1077.247261
11.9350,-2.912790907,17.44171121,1077.225537
11.9400,-2.897136264,17.42869909,1077.203968
11.9450,-2.881588853,17.41555826,1077.182573
11.9500,-2.866127112,17.40220372,1077.161342
11.9550,-2.850765851,17.38871025,1077.140297
11.9600,-2.835472212,17.37507083,1077.11945
11.9650,-2.820215683,17.36132264,1077.098804
11.9700,-2.805040871,17.34747244,1077.078376
11.9750,-2.789924842,17.33357397,1077.058174
11.9800,-2.774915698,17.31961381,1077.038202
11.9850,-2.759929466,17.30568396,1077.01847
11.9900,-2.744974765,17.29171696,1076.998967
11.9950,-2.730021173,17.27778862,1076.979704
12.0000,-2.715044637,17.26387547,1076.960668
12.0050,-2.700074981,17.25004463,1076.941878
12.0100,-2.685100746,17.23626467,1076.923319
12.0150,-2.670119924,17.22256661,1076.904984
12.0200,-2.655213673,17.20895139,1076.886891
12.0250,-2.640341411,17.1954239,1076.869018
12.0300,-2.62554397,17.1820114,1076.851367
12.0350,-2.610819092,17.16875532,1076.833946
12.0400,-2.596135971,17.15564845,1076.816738
12.0450,-2.581579219,17.14265615,1076.799771
12.0500,-2.567100207,17.12976385,1076.783032
12.0550,-2.552778808,17.11701328,1076.766536
12.0600,-2.538675024,17.10438558,1076.750305
12.0650,-2.524817051,17.09188216,1076.73433
12.0700,-2.511223689,17.07948664,1076.718596
12.0750,-2.497898493,17.067232,1076.703105
12.0800,-2.484811035,17.05513485,1076.687851
12.0850,-2.47197095,17.04320992,1076.672824
12.0900,-2.45935023,17.03144457,1076.658012
12.0950,-2.446997206,17.01988288,1076.643421
12.1000,-2.434829659,17.00848782,1076.629023
12.1050,-2.422899959,16.9973012,1076.614842
12.1100,-2.411153627,16.9863351,1076.600849
12.1150,-2.3996062,16.97555889,1076.587042
12.1200,-2.388243769,16.96498021,1076.5734
12.1250,-2.377076341,16.95455988,1076.559913
12.1300,-2.366069537,16.94429266,1076.546564
12.1350,-2.355172242,16.93417482,1076.533341
12.1400,-2.344353241,16.92415949,1076.520228
12.1450,-2.333578928,16.91419864,1076.507213
12.1500,-2.322891997,16.90420361,1076.494293
12.1550,-2.312247449,16.89419695,1076.481457
12.1600,-2.301621213,16.884165,1076.4687
12.1650,-2.291051761,16.87410548,1076.456034
12.1700,-2.280489245,16.86398388,1076.443444
12.1750,-2.269917445,16.85377094,1076.430922
12.1800,-2.259363825,16.84341773,1076.418476
12.1850,-2.248793696,16.832922,1076.406108
12.1900,-2.238200702,16.82225212,1076.393817
12.1950,-2.227548352,16.81138008,1076.381595
12.2000,-2.216875858,16.80027405,1076.369451
12.2050,-2.206156384,16.78889634,1076.35738
12.2100,-2.195374216,16.77723998,1076.345381
12.2150,-2.184518874,16.76528511,1076.333456
12.2200,-2.173596715,16.75302664,1076.321599
12.2250,-2.162551184,16.74048016,1076.309801
12.2300,-2.151446898,16.72760775,1076.298074
12.2350,-2.140257741,16.71445479,1076.286417
12.2400,-2.12896295,16.70102209,1076.274828
12.2450,-2.117591141,16.68727488,1076.263305
12.2500,-2.106125623,16.67332063,1076.251843
12.2550,-2.094599915,16.65917651,1076.240444
12.2600,-2.082971227,16.64486234,1076.229082
12.2650,-2.071228352,16.63041747,1076.217743
12.2700,-2.059360219,16.61584517,1076.206422
12.2750,-2.047403836,16.60118663,1076.195121
12.2800,-2.035331791,16.58644305,1076.183827
12.2850,-2.023228534,16.57165694,1076.172556
12.2900,-2.01112717,16.55685255,1076.161312
12.2950,-1.999082435,16.54200595,1076.1501
12.3000,-1.98710028,16.52717115,1076.138923
12.3050,-1.975203861,16.51235681,1076.127785
12.3100,-1.963425693,16.49761102,1076.116704
12.3150,-1.951763114,16.48294558,1076.105686
12.3200,-1.940270528,16.46837523,1076.094739
12.3250,-1.928948728,16.45393792,1076.083866
12.3300,-1.917838154,16.43962861,1076.073079
12.3350,-1.906977159,16.42543971,1076.062379
12.3400,-1.896386904,16.41136452,1076.051763
12.3450,-1.886043171,16.3974757,1076.041221
12.3500,-1.875964782,16.38383762,1076.030753
12.3550,-1.86615493,16.37040749,1076.020355
12.3600,-1.856576228,16.35722016,1076.01002
12.3650,-1.847258722,16.3443023,1075.999763
12.3700,-1.838209265,16.33166091,1075.989598
12.3750,-1.829385252,16.31925539,1075.979514
12.3800,-1.820799875,16.30711199,1075.969516
12.3850,-1.812443606,16.29523891,1075.95961
12.3900,-1.804273895,16.28366751,1075.949794
12.3950,-1.796234733,16.27239378,1075.940058
12.4000,-1.788356564,16.26142132,1075.930418
12.4050,-1.780536506,16.25074535,1075.920844
12.4100,-1.77272079,16.24033303,1075.911332
12.4150,-1.764860127,16.23020889,1075.901879
12.4200,-1.756923243,16.22036462,1075.892481
12.4250,-1.748838826,16.21079326,1075.883124
12.4300,-1.740578307,16.20142869,1075.873808
12.4350,-1.732120287,16.19228831,1075.864536
12.4400,-1.72342659,16.18338795,1075.855299
12.4450,-1.714463384,16.17471795,1075.846103
12.4500,-1.70522456,16.16624236,1075.836947
12.4550,-1.695671596,16.15795889,1075.827831
12.4600,-1.685785703,16.14984299,1075.818751
12.4650,-1.675568706,16.14187649,1075.809713
12.4700,-1.665013684,16.13406093,1075.800726
12.4750,-1.654112873,16.12642713,1075.791792
12.4800,-1.642812528,16.11893584,1075.782905
12.4850,-1.631129119,16.11157258,1075.774063
12.4900,-1.619057657,16.10433773,1075.765277
12.4950,-1.60662668,16.09725287,1075.756556
12.5000,-1.593763516,16.09031296,1075.747889
12.5050,-1.580470036,16.08349847,1075.739277
12.5100,-1.566729625,16.07679476,1075.730718
12.5150,-1.552543024,16.07019561,1075.722219
12.5200,-1.537876538,16.06368015,1075.71377
12.5250,-1.522693955,16.05721711,1075.705369
12.5300,-1.506946118,16.05086579,1075.697003
12.5350,-1.490660159,16.04458789,1075.688678
12.5400,-1.473807944,16.03839126,1075.680391
12.5450,-1.456349553,16.03227914,1075.672127
12.5500,-1.438317369,16.02622929,1075.663895
12.5550,-1.419665053,16.02020678,1075.655677
12.5600,-1.400412781,16.01426848,1075.647481
12.5650,-1.380623576,16.00838818,1075.639322
12.5700,-1.360246463,16.00258046,1075.631177
12.5750,-1.339301842,15.99682825,1075.623048
12.5800,-1.317867166,15.99111851,1075.614953
12.5850,-1.295915825,15.98544339,1075.60687
12.5900,-1.27347271,15.97984452,1075.598807
12.5950,-1.250601238,15.97431648,1075.59077
12.6000,-1.227367814,15.96884777,1075.582766
12.6050,-1.203828261,15.96348071,1075.574803
12.6100,-1.180051504,15.95818202,1075.566884
12.6150,-1.156130887,15.95298885,1075.559021
12.6200,-1.132043268,15.94791126,1075.551205
12.6250,-1.107911523,15.94292611,1075.543453
12.6300,-1.083801341,15.93808572,1075.535774
12.6350,-1.059760703,15.93337369,1075.528174
12.6400,-1.03586224,15.92880849,1075.520663
12.6450,-1.012202478,15.92437984,1075.513256
12.6500,-0.9888329643,15.92006135,1075.505957
12.6550,-0.9658183819,15.91587096,1075.498772
12.6600,-0.9431528145,15.91180149,1075.491696
12.6650,-0.9208564134,15.90785165,1075.484721
12.6700,-0.8989497051,15.90405473,1075.477851
12.6750,-0.8774643967,15.90043171,1075.471082
12.6800,-0.8564415936,15.89697753,1075.464427
12.6850,-0.8359007257,15.89370056,1075.457885
12.6900,-0.8158921096,15.8906021,1075.451464
12.6950,-0.7964272018,15.88765924,1075.445168
12.7000,-0.7774781433,15.88489134,1075.438991
12.7050,-0.7590887657,15.88230594,1075.432947
12.7100,-0.7412772427,15.87989785,1075.427046
12.7150,-0.7240760483,15.87762868,1075.421293
12.7200,-0.7074172325,15.87549895,1075.415685
12.7250,-0.6913592579,15.87348917,1075.410241
12.7300,-0.6758926992,15.87162849,1075.404968
12.7350,-0.6609921072,15.86990862,1075.399861
12.7400,-0.6466847024,15.86826929,1075.394933
12.7450,-0.6329943702,15.86671427,1075.390193
12.7500,-0.6198636034,15.86528,1075.385634
12.7550,-0.607350322,15.863999,1075.381273
12.7600,-0.5954388596,15.86286028,1075.377108
12.7650,-0.5840968706,15.86186627,1075.373141
12.7700,-0.5733160434,15.86105371,1075.369371
12.7750,-0.5631233335,15.86041946,1075.365807
12.7800,-0.553519057,15.85999118,1075.362452
12.7850,-0.5445345787,15.85979817,1075.359317
12.7900,-0.5361330116,15.8598222,1075.356396
12.7950,-0.5282868924,15.86012673,1075.353686
12.8000,-0.5210244741,15.86070612,1075.351191
12.8050,-0.514319407,15.86156909,1075.348909
12.8100,-0.5081312872,15.86273289,1075.346832
12.8150,-0.5024857355,15.86421646,1075.344963
12.8200,-0.4973259377,15.86604318,1075.343292
12.8250,-0.4926740002,15.86823724,1075.341824
12.8300,-0.4885197385,15.87076636,1075.340555
12.8350,-0.4848235771,15.87364238,1075.339474
12.8400,-0.4815697837,15.87683976,1075.338575
12.8450,-0.4787205676,15.880366,1075.337849
12.8500,-0.4762192354,15.88420492,1075.337282
12.8550,-0.4740358634,15.88833961,1075.33687
12.8600,-0.4721460525,15.89273813,1075.336604
12.8650,-0.4704897801,15.89734967,1075.33647
12.8700,-0.4690881397,15.90218659,1075.336471
12.8750,-0.4679260055,15.90718364,1075.336601
12.8800,-0.4669417691,15.91230926,1075.336843
12.8850,-0.4661304507,15.91750608,1075.337198
12.8900,-0.4654952228,15.92272811,1075.337661
12.8950,-0.4650158789,15.92796471,1075.338229
12.9000,-0.4647364436,15.93317584,1075.338905
12.9050,-0.464645618,15.93827161,1075.339687
12.9100,-0.4647526473,15.94328176,1075.340575
12.9150,-0.4650077424,15.94813769,1075.341559
12.9200,-0.4654615004,15.95282592,1075.342646
12.9250,-0.4660784965,15.95728984,1075.343828
12.9300,-0.4668613515,15.96148453,1075.345104
12.9350,-0.4678552789,15.96542153,1075.346481
12.9400,-0.4690183673,15.9690435,1075.347951
12.9450,-0.4703257693,15.97232097,1075.349507
12.9500,-0.4718093318,15.97521595,1075.351157
12.9550,-0.4734166972,15.97775096,1075.35289
12.9600,-0.4751951196,15.9798907,1075.354716
12.9650,-0.4771498683,15.981691,1075.356639
12.9700,-0.4792665532,15.98310262,1075.358655
12.9750,-0.4815659916,15.98416915,1075.360776
12.9800,-0.4840296063,15.9848718,1075.362995
12.9850,-0.4866611522,15.98519406,1075.365316
12.9900,-0.4894563461,15.98514747,1075.36774
12.9950,-0.4924510245,15.98479043,1075.370282
13.0000,-0.4956603652,15.98408095,1075.372948
13.0050,-0.4990249209,15.98309938,1075.375733
13.0100,-0.5026308568,15.98184781,1075.378656
13.0150,-0.506437251,15.98033292,1075.381716
13.0200,-0.5105363128,15.97859203,1075.384934
13.0250,-0.5149228059,15.97666624,1075.388315
13.0300,-0.5196325298,15.97459375,1075.391867
13.0350,-0.5246749068,15.97239654,1075.395596
13.0400,-0.5300502031,15.97013398,1075.399508
13.0450,-0.5358232212,15.96785715,1075.403625
13.0500,-0.5419917994,15.9655964,1075.407949
13.0550,-0.5485386045,15.96333913,1075.412482
13.0600,-0.5554987681,15.96114451,1075.41724
13.0650,-0.5629192215,15.9590631,1075.422232
13.0700,-0.5708260498,15.9571105,1075.42747
13.0750,-0.5792067563,15.95527909,1075.432958
13.0800,-0.5880996597,15.95362194,1075.438707
13.0850,-0.5974543041,15.95218576,1075.444715
13.0900,-0.607287398,15.95095951,1075.450984
13.0950,-0.6176344514,15.94995082,1075.457527
13.1000,-0.6284563756,15.9492165,1075.464341
13.1050,-0.639781178,15.94877675,1075.471436
13.1100,-0.6516197231,15.94864142,1075.478822
13.1150,-0.663952706,15.94879088,1075.486496
13.1200,-0.676787857,15.94924492,1075.494469
13.1250,-0.6901213017,15.94998498,1075.50274
13.1300,-0.7039436832,15.95101477,1075.511317
13.1350,-0.718230507,15.95229223,1075.520201
13.1400,-0.7329588251,15.95385481,1075.529393
13.1450,-0.7481205055,15.95569168,1075.538896
13.1500,-0.7637430869,15.95776765,1075.548719
13.1550,-0.7797299381,15.96007148,1075.558846
13.1600,-0.7961036409,15.96257776,1075.569282
13.1650,-0.8128510276,15.96530323,1075.58003
13.1700,-0.8298927518,15.96817025,1075.591073
13.1750,-0.8472139357,15.97122341,1075.602414
13.1800,-0.8647961646,15.9744502,1075.614053
13.1850,-0.8826492883,15.97784864,1075.62599
13.1900,-0.900756518,15.98139872,1075.638226
13.1950,-0.9191159959,15.98509291,1075.650755
13.2000,-0.9376901897,15.98891213,1075.663578
13.2050,-0.9564181006,15.99294245,1075.676673
13.2100,-0.9753004052,15.99712272,1075.690051
13.2150,-0.9943015311,16.0014733,1075.703696
13.2200,-1.013409692,16.00601682,1075.717611
13.2250,-1.032644178,16.01075259,1075.731791
13.2300,-1.05197527,16.0156671,1075.746231
13.2350,-1.071378922,16.02074921,1075.760927
13.2400,-1.090847662,16.026063,1075.775879
13.2450,-1.110390763,16.03162975,1075.791085
13.2500,-1.12997244,16.0374392,1075.806536
13.2550,-1.149609531,16.04349446,1075.822229
13.2600,-1.169274297,16.04979836,1075.838159
13.2650,-1.18894512,16.05629699,1075.854322
13.2700,-1.208593288,16.06303015,1075.870706
13.2750,-1.228234475,16.06996023,1075.887315
13.2800,-1.24785916,16.07706411,1075.904146
13.2850,-1.2674158,16.08437345,1075.921183
13.2900,-1.286906471,16.09186123,1075.938429
13.2950,-1.306331313,16.09952424,1075.955883
13.3000,-1.325673355,16.10734763,1075.973531
13.3050,-1.34496951,16.11522736,1075.991379
13.3100,-1.364144914,16.12321013,1076.009416
13.3150,-1.383211796,16.13130868,1076.02765
13.3200,-1.402202281,16.1394885,1076.04608
13.3250,-1.421083445,16.14768183,1076.064696
13.3300,-1.439883519,16.15588838,1076.083507
13.3350,-1.458624802,16.16409604,1076.102515
13.3400,-1.477329936,16.17230651,1076.121727
13.3450,-1.495946601,16.18049743,1076.141122
13.3500,-1.514575671,16.18868956,1076.160723
13.3550,-1.533196538,16.19687498,1076.180524
13.3600,-1.551821745,16.20505161,1076.200523
13.3650,-1.570474194,16.21321507,1076.220722
13.3700,-1.589208948,16.22137284,1076.241122
13.3750,-1.608032882,16.22955314,1076.261725
13.3800,-1.626957424,16.2377348,1076.282529
13.3850,-1.646009952,16.2459191,1076.303535
13.3900,-1.665226796,16.25414297,1076.324748
13.3950,-1.684610439,16.26238467,1076.346168
13.4000,-1.7042338,16.27062374,1076.367813
13.4050,-1.724085297,16.27885312,1076.389667
13.4100,-1.744213961,16.2871006,1076.411741
13.4150,-1.764588846,16.29534108,1076.434025
13.4200,-1.785267685,16.30360346,1076.456523
13.4250,-1.80622587,16.31186688,1076.479228
13.4300,-1.827483864,16.32012721,1076.50214
13.4350,-1.849066508,16.32841291,1076.525256
13.4400,-1.870947545,16.33670193,1076.548567
13.4450,-1.893139889,16.34498045,1076.572071
13.4500,-1.915615412,16.35326896,1076.595764
13.4550,-1.938399989,16.36157611,1076.619653
13.4600,-1.961462937,16.36992929,1076.643725
13.4650,-1.98478233,16.3783107,1076.667968
13.4700,-2.008365254,16.38677008,1076.692387
13.4750,-2.032171537,16.39527107,1076.716967
13.4800,-2.056179488,16.40384341,1076.741704
13.4850,-2.080320787,16.41250728,1076.766579
13.4900,-2.104576122,16.42130764,1076.791591
13.4950,-2.128892216,16.43021974,1076.816717
13.5000,-2.153216425,16.43925056,1076.841949
13.5050,-2.177547278,16.44835641,1076.86728
13.5100,-2.201806339,16.45758242,1076.892684
13.5150,-2.226026277,16.46691877,1076.918171
13.5200,-2.250133616,16.47633074,1076.943724
13.5250,-2.274097512,16.48583482,1076.969333
13.5300,-2.297861927,16.49549881,1076.994988
13.5350,-2.321345519,16.50524728,1077.020655
13.5400,-2.344561111,16.51511535,1077.046331
13.5450,-2.367463761,16.52508887,1077.072007
13.5500,-2.390013314,16.53520934,1077.097669
13.5550,-2.412176712,16.54543333,1077.123315
13.5600,-2.433892515,16.55578648,1077.148919
13.5650,-2.455122566,16.56628163,1077.174465
13.5700,-2.475873717,16.57693227,1077.19996
13.5750,-2.496075793,16.58776276,1077.22537
13.5800,-2.515700377,16.59877265,1077.250703
13.5850,-2.534730955,16.6099344,1077.275943
