type,name,time_units,begin_time,frequency,count,units
signal_3d,"Noraxon MyoMotion-Trajectories-Radial styloid process RT","s",0.0000,200,4916,"mm"

time,x,y,z
0.0000,146.4104928,52.53985054,989.0808846
0.0050,146.3963993,52.52707334,989.0803355
0.0100,146.3823084,52.51429331,989.079786
0.0150,146.36822,52.50151046,989.0792362
0.0200,146.3528297,52.4874314,989.0786251
0.0250,146.3361947,52.47210652,989.077952
0.0300,146.3183828,52.4556095,989.0772173
0.0350,146.2994651,52.43803315,989.0764234
0.0400,146.2795118,52.41948358,989.0755742
0.0450,146.2585925,52.40007134,989.0746747
0.0500,146.2367768,52.37990599,989.0737304
0.0550,146.2141341,52.35909924,989.0727483
0.0600,146.190731,52.33776769,989.0717385
0.0650,146.1666267,52.31602774,989.0707143
0.0700,146.1418695,52.2939903,989.0696926
0.0750,146.116494,52.27176467,989.0686946
0.0800,146.0905188,52.24946772,989.0677476
0.0850,146.063948,52.227226,989.066884
0.0900,146.0367782,52.20516574,989.0661374
0.0950,146.0090086,52.18339973,989.0655391
0.1000,145.9806484,52.16202282,989.0651154
0.1050,145.9517219,52.14111765,989.0648892
0.1100,145.9222721,52.12076172,989.0648809
0.1150,145.8923666,52.10103053,989.0651081
0.1200,145.862101,52.08200118,989.0655847
0.1250,145.831596,52.06375788,989.0663216
0.1300,145.8009937,52.04639587,989.067327
0.1350,145.7704541,52.03002254,989.0686073
0.1400,145.7401492,52.01475384,989.0701672
0.1450,145.7102541,52.00070438,989.0720094
0.1500,145.6809404,51.98797592,989.074132
0.1550,145.6198393,51.94929163,989.0752454
0.1600,145.5596794,51.91065002,989.0763191
0.1650,145.5006184,51.87296152,989.077455
0.1700,145.4428694,51.83616447,989.078761
0.1750,145.3854653,51.79986792,989.0800059
0.1800,145.3303881,51.76398932,989.0810075
0.1850,145.2764323,51.72886532,989.0819837
0.1900,145.2245342,51.6941938,989.0827363
0.1950,145.1737818,51.66023652,989.0832913
0.2000,145.1246978,51.6259108,989.0834693
0.2050,145.076885,51.59089417,989.0832933
0.2100,145.0311105,51.55652438,989.0827401
0.2150,144.9872456,51.52235991,989.0818722
0.2200,144.9457523,51.48832619,989.080408
0.2250,144.9061869,51.45368432,989.0783631
0.2300,144.8691567,51.41879987,989.0759106
0.2350,144.8338768,51.38386059,989.0729661
0.2400,144.8004244,51.34908677,989.0696795
0.2450,144.7682132,51.31365462,989.0658532
0.2500,144.7376995,51.27646132,989.0612944
0.2550,144.7085414,51.23796493,989.056212
0.2600,144.6807548,51.19951555,989.0507442
0.2650,144.6540011,51.15929242,989.0447064
0.2700,144.6275964,51.11852769,989.03848
0.2750,144.6026167,51.07570223,989.0315222
0.2800,144.5781802,51.03198463,989.0242692
0.2850,144.5538135,50.98709593,989.0166977
0.2900,144.5306938,50.94132183,989.0087194
0.2950,144.5077146,50.89480779,989.0005884
0.3000,144.4850286,50.84672519,988.9921598
0.3050,144.4611779,50.79718733,988.9836892
0.3100,144.4369689,50.7477044,988.9753222
0.3150,144.4128708,50.69725665,988.9668389
0.3200,144.387853,50.64566545,988.958335
0.3250,144.3616964,50.59327299,988.9498792
0.3300,144.3343015,50.53935577,988.9414269
0.3350,144.3062076,50.48407664,988.9329231
0.3400,144.2773816,50.42871952,988.9245621
0.3450,144.2475628,50.37316322,988.9164258
0.3500,144.2173888,50.31766344,988.9084674
0.3550,144.1866406,50.26305395,988.9010236
0.3600,144.154801,50.20937226,988.89397
0.3650,144.1228098,50.15660268,988.8873181
0.3700,144.0886121,50.10394299,988.8810819
0.3750,144.054286,50.05243619,988.8752651
0.3800,144.0186246,50.00148666,988.8699276
0.3850,143.9827247,49.95148593,988.8649591
0.3900,143.9459571,49.90241505,988.8604564
0.3950,143.9077703,49.85376002,988.8564533
0.4000,143.869443,49.80644729,988.852955
0.4050,143.8313384,49.76036274,988.8497673
0.4100,143.7933429,49.71471024,988.8469146
0.4150,143.7555991,49.66918046,988.8442333
0.4200,143.7183886,49.62469909,988.8418771
0.4250,143.681366,49.57954741,988.8394813
0.4300,143.6443611,49.53486342,988.8372193
0.4350,143.6077373,49.49061256,988.8350955
0.4400,143.5712069,49.44720192,988.8331541
0.4450,143.5363224,49.40271828,988.8308072
0.4500,143.5015989,49.35883712,988.8285773
0.4550,143.4674099,49.314612,988.8262251
0.4600,143.4332391,49.27200302,988.8241544
0.4650,143.4000012,49.22925816,988.8219158
0.4700,143.3673517,49.18701133,988.8196304
0.4750,143.3359155,49.14577574,988.8174573
0.4800,143.3044081,49.10512148,988.8152745
0.4850,143.2737045,49.06496302,988.8130117
0.4900,143.2446635,49.02531726,988.8105422
0.4950,143.215353,48.98645938,988.8082549
0.5000,143.1874756,48.9486329,988.8058495
0.5050,143.1601155,48.9115544,988.8034423
0.5100,143.1329999,48.87568404,988.8011292
0.5150,143.1059588,48.84029378,988.7986887
0.5200,143.0781601,48.80613011,988.796555
0.5250,143.0485134,48.77270769,988.7947111
0.5300,143.0161872,48.740237,988.7930633
0.5350,142.9816259,48.70947766,988.7919055
0.5400,142.9442177,48.67968414,988.7909575
0.5450,142.9037914,48.65204272,988.7906036
0.5500,142.8600743,48.62666605,988.7907569
0.5550,142.8133539,48.60328905,988.7912114
0.5600,142.7630814,48.58144908,988.7919996
0.5650,142.7097712,48.56208728,988.7931685
0.5700,142.6546452,48.54514306,988.7945724
0.5750,142.5959252,48.53110819,988.7965467
0.5800,142.5341149,48.51946725,988.7986797
0.5850,142.4700407,48.50944976,988.8010237
0.5900,142.4024172,48.50259171,988.8038781
0.5950,142.3309161,48.49696192,988.8070197
0.6000,142.2557438,48.4937986,988.810529
0.6050,142.1772648,48.4923409,988.8142768
0.6100,142.0947715,48.4929645,988.8185073
0.6150,142.0075453,48.49536833,988.8231853
0.6200,141.915222,48.49906088,988.8283483
0.6250,141.8178377,48.50545173,988.8342917
0.6300,141.7140297,48.51433826,988.8410223
0.6350,141.6037347,48.52454473,988.8485785
0.6400,141.4862799,48.53629708,988.8570184
0.6450,141.3622441,48.54948222,988.8662488
0.6500,141.2306794,48.56457102,988.8765142
0.6550,141.0922377,48.58006771,988.8874197
0.6600,140.9475175,48.59703357,988.8991926
0.6650,140.7958097,48.6133702,988.9116338
0.6700,140.6395634,48.63069089,988.924704
0.6750,140.476046,48.64851555,988.938692
0.6800,140.3076786,48.66745521,988.9533875
0.6850,140.1326745,48.6854118,988.9688756
0.6900,139.9509068,48.70402243,988.9854702
0.6950,139.7640068,48.72280134,989.0029537
0.7000,139.5698056,48.74206808,989.0218439
0.7050,139.3686264,48.76234693,989.0424507
0.7100,139.159872,48.78188968,989.064544
0.7150,138.9432489,48.80312442,989.0887421
0.7200,138.7182137,48.82461395,989.1149978
0.7250,138.484457,48.84703458,989.1435471
0.7300,138.242023,48.87067398,989.1745741
0.7350,137.9883365,48.89378142,989.2082256
0.7400,137.7246083,48.91748953,989.2448104
0.7450,137.4477413,48.9430339,989.2849001
0.7500,137.1591097,48.96905416,989.3282494
0.7550,136.8587431,48.99667645,989.3749931
0.7600,136.545395,49.02568962,989.4254413
0.7650,136.2184574,49.05742754,989.4797389
0.7700,135.8776847,49.09158321,989.5379074
0.7750,135.5230756,49.12816512,989.5999143
0.7800,135.1569256,49.16713857,989.6655572
0.7850,134.7781364,49.20936276,989.7350674
0.7900,134.3859057,49.25563074,989.8085589
0.7950,133.9824684,49.30492893,989.8855688
0.8000,133.5674367,49.35676179,989.9660638
0.8050,133.1424172,49.41218835,990.0498944
0.8100,132.7085451,49.46936651,990.1366273
0.8150,132.2652584,49.52979238,990.2267206
0.8200,131.8133297,49.59294075,990.3197943
0.8250,131.3545156,49.65780412,990.4155301
0.8300,130.8893043,49.72493793,990.5139069
0.8350,130.4171432,49.79349917,990.6147122
0.8400,129.9389813,49.86454813,990.7182349
0.8450,129.4554794,49.93673818,990.8238559
0.8500,128.9656345,50.00967674,990.9319084
0.8550,128.4698491,50.08357901,991.042255
0.8600,127.9680879,50.15903922,991.1551495
0.8650,127.4602816,50.23608312,991.2705322
0.8700,126.9468293,50.3136307,991.3881567
0.8750,126.4270347,50.39224715,991.5083517
0.8800,125.9003485,50.47186528,991.6312454
0.8850,125.366077,50.55288261,991.7568972
0.8900,124.8251624,50.63458235,991.8852494
0.8950,124.2771976,50.71912955,992.0166406
0.9000,123.7224974,50.80383305,992.1506367
0.9050,123.1618813,50.8907586,992.2875649
0.9100,122.5950592,50.97956767,992.4273844
0.9150,122.0230871,51.06982648,992.5698945
0.9200,121.4470285,51.16224171,992.7149625
0.9250,120.8661455,51.2559313,992.8625699
0.9300,120.2813453,51.35060506,993.0127341
0.9350,119.6936031,51.44706499,993.1651942
0.9400,119.1025949,51.54372307,993.3198883
0.9450,118.5072182,51.64206798,993.4773429
0.9500,117.9075873,51.74122199,993.6375201
0.9550,117.3041316,51.84176075,993.8003165
0.9600,116.6956882,51.94378079,993.9661442
0.9650,116.0826372,52.04778919,994.1350041
0.9700,115.4633523,52.15374214,994.3072323
0.9750,114.8389797,52.26170967,994.4827912
0.9800,114.2083235,52.37123802,994.6617834
0.9850,113.5729765,52.48488289,994.844262
0.9900,112.9316417,52.59977583,995.0300639
0.9950,112.2849956,52.71694072,995.2191557
1.0000,111.6333298,52.83606506,995.4113871
1.0050,110.9773165,52.95717897,995.6067853
1.0100,110.3153051,53.08065492,995.8056248
1.0150,109.6493703,53.20511635,996.0072588
1.0200,108.9778412,53.33156477,996.2123174
1.0250,108.3000947,53.45999716,996.421122
1.0300,107.616297,53.5903259,996.6336637
1.0350,106.928772,53.72332199,996.849615
1.0400,106.2348763,53.85784353,997.0692166
1.0450,105.5354973,53.9941043,997.2925089
1.0500,104.830429,54.13186795,997.5195308
1.0550,104.1187384,54.27208998,997.7507293
1.0600,103.4011878,54.41349312,997.9856611
1.0650,102.6782826,54.55564567,998.2245058
1.0700,101.950804,54.69802662,998.4667721
1.0750,101.2181372,54.84273476,998.7131176
1.0800,100.4804603,54.98899842,998.9634043
1.0850,99.73728427,55.13611559,999.2174815
1.0900,98.98902201,55.28443583,999.4755456
1.0950,98.23614033,55.43384524,999.7374831
1.1000,97.47800712,55.58519299,1000.003615
1.1050,96.7144218,55.73728482,1000.273865
1.1100,95.94428635,55.89085876,1000.54858
1.1150,95.16929279,56.04517736,1000.827388
1.1200,94.38929684,56.2001075,1001.110373
1.1250,93.60398393,56.35635587,1001.397889
1.1300,92.81447962,56.51230794,1001.689444
1.1350,92.02034823,56.66904972,1001.985414
1.1400,91.22188801,56.82582016,1002.285663
1.1450,90.42032296,56.98318848,1002.590341
1.1500,89.61671132,57.14187605,1002.899307
1.1550,88.81008934,57.30015773,1003.212878
1.1600,88.00168363,57.45779755,1003.530786
1.1650,87.19227212,57.61442684,1003.852999
1.1700,86.3806848,57.76870882,1004.179785
1.1750,85.56902973,57.92198579,1004.510992
1.1800,84.75700497,58.07302546,1004.846717
1.1850,83.94532335,58.22308984,1005.187091
1.1900,83.13308503,58.37091227,1005.532382
1.1950,82.32129957,58.51662332,1005.882555
1.2000,81.50833526,58.66094908,1006.238404
1.2050,80.69294409,58.8038942,1006.60023
1.2100,79.87646,58.94364872,1006.967645
1.2150,79.05579123,59.08122206,1007.341614
1.2200,78.23201572,59.2168389,1007.722145
1.2250,77.4039206,59.35066882,1008.109701
1.2300,76.5711918,59.4845009,1008.504658
1.2350,75.73191688,59.61751857,1008.907647
1.2400,74.8867156,59.75037429,1009.318628
1.2450,74.0339907,59.88210061,1009.737824
1.2500,73.1741574,60.01360614,1010.165418
1.2550,72.30628474,60.14465656,1010.601948
1.2600,71.43043303,60.27610416,1011.047383
1.2650,70.54656675,60.40800602,1011.501782
1.2700,69.65506533,60.54068239,1011.965181
1.2750,68.75590616,60.67386168,1012.437512
1.2800,67.84830517,60.80855707,1012.919345
1.2850,66.93211089,60.94282368,1013.410431
1.2900,66.00929975,61.07808358,1013.910559
1.2950,65.07899864,61.21389821,1014.420276
1.3000,64.14050153,61.35117569,1014.939687
1.3050,63.19369107,61.48953111,1015.468876
1.3100,62.24141669,61.63095109,1016.007591
1.3150,61.28109354,61.77508836,1016.556746
1.3200,60.31363261,61.92212493,1017.116151
1.3250,59.33919713,62.07316293,1017.686152
1.3300,58.35708548,62.22801334,1018.266965
1.3350,57.36655696,62.38718605,1018.859042
1.3400,56.36749433,62.55097886,1019.462703
1.3450,55.36013519,62.71982106,1020.078369
1.3500,54.34287726,62.89365662,1020.706636
1.3550,53.3163516,63.07144053,1021.347471
1.3600,52.27961643,63.25399981,1022.001548
1.3650,51.23158287,63.44179338,1022.669527
1.3700,50.17251123,63.6353142,1023.351875
1.3750,49.1026272,63.83330695,1024.048506
1.3800,48.01961708,64.0360379,1024.760346
1.3850,46.92507361,64.24392059,1025.487442
1.3900,45.81835108,64.45494208,1026.229951
1.3950,44.69965664,64.67048169,1026.988184
1.4000,43.56891866,64.88928544,1027.762341
1.4050,42.42539264,65.11217847,1028.553199
1.4100,41.27028319,65.33886316,1029.360459
1.4150,40.10279655,65.57043621,1030.184567
1.4200,38.92330774,65.80477931,1031.025197
1.4250,37.73208737,66.04286754,1031.882595
1.4300,36.5290341,66.28631063,1032.757415
1.4350,35.31557842,66.53343274,1033.649149
1.4400,34.09183985,66.78479393,1034.557433
1.4450,32.85674795,67.04015086,1035.482788
1.4500,31.61130608,67.29919952,1036.424888
1.4550,30.35709473,67.56381083,1037.383394
1.4600,29.09272376,67.83262438,1038.358795
1.4650,27.81830379,68.10577418,1039.351121
1.4700,26.53435256,68.38560737,1040.360615
1.4750,25.23986487,68.67121775,1041.387736
1.4800,23.93695167,68.96336907,1042.431477
1.4850,22.62448479,69.26090709,1043.492287
1.4900,21.30422974,69.56530079,1044.570049
1.4950,19.97599187,69.87535307,1045.664551
1.5000,18.64079076,70.19267419,1046.775481
1.5050,17.30022035,70.51572312,1047.902343
1.5100,15.953412,70.84555187,1049.044998
1.5150,14.60269173,71.18263191,1050.203409
1.5200,13.24729586,71.52703719,1051.377833
1.5250,11.88877592,71.87737679,1052.566706
1.5300,10.52795776,72.23306105,1053.770132
1.5350,9.165855743,72.5947561,1054.987495
1.5400,7.802003701,72.96210632,1056.219246
1.5450,6.439494099,73.33687925,1057.464809
1.5500,5.077645665,73.71870288,1058.723888
1.5550,3.7172662,74.1077192,1059.996126
1.5600,2.359059084,74.50317742,1061.281311
1.5650,1.003092548,74.90587521,1062.57943
1.5700,-0.3500643182,75.31491313,1063.890145
1.5750,-1.70063791,75.72989317,1065.213371
1.5800,-3.047439927,76.15157935,1066.54847
1.5850,-4.389160216,76.5794388,1067.894884
1.5900,-5.725628149,77.01424172,1069.252853
1.5950,-7.058019093,77.45517413,1070.622458
1.6000,-8.383477234,77.90147575,1072.003074
1.6050,-9.703284662,78.35258685,1073.394868
1.6100,-11.01773362,78.80763414,1074.797739
1.6150,-12.3259029,79.26565486,1076.211333
1.6200,-13.62800862,79.72516159,1077.636067
1.6250,-14.92423883,80.18404846,1079.070613
1.6300,-16.21373362,80.64378562,1080.515736
1.6350,-17.49745138,81.10153141,1081.971075
1.6400,-18.77476627,81.55571031,1083.435836
1.6450,-20.04449309,82.00687822,1084.9095
1.6500,-21.30632262,82.45449403,1086.392076
1.6550,-22.56074995,82.89771846,1087.883036
1.6600,-23.80683092,83.33598811,1089.382052
1.6650,-25.04403044,83.76905951,1090.888339
1.6700,-26.27266789,84.19654932,1092.401919
1.6750,-27.49150673,84.61696292,1093.921959
1.6800,-28.70158376,85.03065154,1095.448091
1.6850,-29.90211536,85.43664243,1096.980105
1.6900,-31.09359515,85.83451092,1098.517101
1.6950,-32.27579011,86.2241106,1100.058869
1.7000,-33.44879621,86.60609926,1101.605061
1.7050,-34.61127382,86.97968602,1103.154123
1.7100,-35.76386935,87.34470251,1104.706313
1.7150,-36.90639045,87.70055307,1106.260733
1.7200,-38.03823784,88.04865364,1107.817163
1.7250,-39.15926198,88.38854849,1109.375106
1.7300,-40.26885089,88.71885566,1110.933731
1.7350,-41.36775947,89.04080327,1112.493505
1.7400,-42.45629829,89.35433455,1114.054701
1.7450,-43.53288413,89.65864368,1115.61494
1.7500,-44.5984886,89.95491105,1117.175325
1.7550,-45.65318802,90.2411842,1118.734898
1.7600,-46.69607174,90.51928588,1120.292856
1.7650,-47.72766257,90.78854148,1121.849417
1.7700,-48.7477588,91.04834101,1123.40403
1.7750,-49.75521519,91.29985779,1124.955664
1.7800,-50.75107198,91.5424668,1126.504662
1.7850,-51.734285,91.77629901,1128.051098
1.7900,-52.70552314,92.00165375,1129.594372
1.7950,-53.66434102,92.2178149,1131.13426
1.8000,-54.61099366,92.42539589,1132.671066
1.8050,-55.54509994,92.62473312,1134.204202
1.8100,-56.46614058,92.81564266,1135.733895
1.8150,-57.37477183,92.99833066,1137.25904
1.8200,-58.27055151,93.17133088,1138.779744
1.8250,-59.15309813,93.33668259,1140.296843
1.8300,-60.02338789,93.49214221,1141.809365
1.8350,-60.88076938,93.64046525,1143.318053
1.8400,-61.72587823,93.78063974,1144.822489
1.8450,-62.55989683,93.91152174,1146.322682
1.8500,-63.38257925,94.03337644,1147.819359
1.8550,-64.19406793,94.14572056,1149.312458
1.8600,-64.99395704,94.24901506,1150.801101
1.8650,-65.78269412,94.34438971,1152.285978
1.8700,-66.56088468,94.43104782,1153.767012
1.8750,-67.32848007,94.51005051,1155.244308
1.8800,-68.085655,94.58057799,1156.717927
1.8850,-68.83375388,94.64433675,1158.189106
1.8900,-69.57196161,94.70114537,1159.657374
1.8950,-70.30075649,94.7510268,1161.122673
1.9000,-71.02138102,94.79432354,1162.586272
1.9050,-71.73267226,94.83163277,1164.047826
1.9100,-72.43536419,94.86284371,1165.508416
1.9150,-73.12997212,94.88898626,1166.96776
1.9200,-73.81710164,94.90974346,1168.425869
1.9250,-74.49649357,94.9271656,1169.884533
1.9300,-75.16837637,94.93934021,1171.343283
1.9350,-75.83307392,94.94776852,1172.803052
1.9400,-76.48947151,94.95196268,1174.264017
1.9450,-77.14016653,94.95086803,1175.72661
1.9500,-77.78490493,94.9443856,1177.191202
1.9550,-78.42308064,94.93363678,1178.657819
1.9600,-79.05536656,94.91867448,1180.127053
1.9650,-79.68017643,94.89970212,1181.598664
1.9700,-80.29788341,94.87635475,1183.073193
1.9750,-80.90873238,94.84912336,1184.550554
1.9800,-81.51060934,94.81804388,1186.030712
1.9850,-82.10536694,94.78237157,1187.514225
1.9900,-82.69181394,94.74320506,1189.001412
1.9950,-83.27039299,94.69989197,1190.491916
2.0000,-83.84061697,94.65251995,1191.985597
2.0050,-84.40234272,94.60192125,1193.48345
2.0100,-84.95515628,94.54944633,1194.985152
2.0150,-85.49876627,94.49381498,1196.490863
2.0200,-86.03209131,94.43641918,1198.000539
2.0250,-86.55540001,94.37824282,1199.514462
2.0300,-87.06903313,94.31931031,1201.032847
2.0350,-87.5723274,94.25962794,1202.555331
2.0400,-88.06477007,94.19950203,1204.082302
2.0450,-88.54751313,94.13896744,1205.615696
2.0500,-89.02043195,94.07727579,1207.154725
2.0550,-89.48419913,94.01567532,1208.700462
2.0600,-89.93970371,93.95280175,1210.252875
2.0650,-90.38610569,93.88860483,1211.811891
2.0700,-90.82390596,93.82359369,1213.377006
2.0750,-91.25466623,93.75637546,1214.949571
2.0800,-91.67818314,93.68826078,1216.529322
2.0850,-92.09472554,93.61783983,1218.115865
2.0900,-92.50648356,93.54481711,1219.709775
2.0950,-92.91314678,93.47022276,1221.311361
2.1000,-93.3156145,93.39353153,1222.920333
2.1050,-93.71413598,93.31444083,1224.536115
2.1100,-94.10969938,93.23286536,1226.159944
2.1150,-94.50160192,93.14884988,1227.791158
2.1200,-94.89154557,93.06323285,1229.429592
2.1250,-95.28023143,92.97553536,1231.07602
2.1300,-95.66714149,92.88703646,1232.730234
2.1350,-96.05281781,92.79586581,1234.392123
2.1400,-96.43839606,92.7036803,1236.062415
2.1450,-96.82336998,92.6105179,1237.740017
2.1500,-97.20752203,92.51663422,1239.424861
2.1550,-97.59160717,92.42298843,1241.116883
2.1600,-97.97512751,92.33076839,1242.81697
2.1650,-98.35785205,92.23858217,1244.524908
2.1700,-98.74024,92.14753239,1246.240489
2.1750,-99.12018244,92.05879657,1247.963832
2.1800,-99.49836881,91.97169719,1249.695008
2.1850,-99.87359586,91.88596064,1251.433096
2.1900,-100.2470727,91.80238542,1253.17878
2.1950,-100.6167254,91.72089635,1254.932067
2.2000,-100.9827215,91.64184117,1256.69191
2.2050,-101.3456593,91.56413613,1258.45827
2.2100,-101.7057557,91.48832646,1260.230614
2.2150,-102.0626154,91.4148983,1262.010077
2.2200,-102.4161307,91.34386605,1263.795936
2.2250,-102.7664497,91.27363076,1265.587416
2.2300,-103.1131788,91.20442407,1267.383933
2.2350,-103.4551718,91.13554814,1269.184673
2.2400,-103.7934486,91.06992324,1270.989416
2.2450,-104.126734,91.00598111,1272.798721
2.2500,-104.4561642,90.94487279,1274.611759
2.2550,-104.7809791,90.88615901,1276.427896
2.2600,-105.1013864,90.82866726,1278.246524
2.2650,-105.4181244,90.77320829,1280.067258
2.2700,-105.7299305,90.72152889,1281.889413
2.2750,-106.0373941,90.67284054,1283.713733
2.2800,-106.3395347,90.62856012,1285.539476
2.2850,-106.6349977,90.58943075,1287.365995
2.2900,-106.9230146,90.55549877,1289.192546
2.2950,-107.2033892,90.52705969,1291.019063
2.3000,-107.4763492,90.50268412,1292.845532
2.3050,-107.7426263,90.48257167,1294.670338
2.3100,-108.0014121,90.46497056,1296.493697
2.3150,-108.2542256,90.45036066,1298.315616
2.3200,-108.5003084,90.43811021,1300.135339
2.3250,-108.7402179,90.42646877,1301.952983
2.3300,-108.9741829,90.41765224,1303.768574
2.3350,-109.2020981,90.41109091,1305.580895
2.3400,-109.4241945,90.40580396,1307.389228
2.3450,-109.6403801,90.40155909,1309.193394
2.3500,-109.8517888,90.39873404,1310.99297
2.3550,-110.0568697,90.39746301,1312.787634
2.3600,-110.2566755,90.39846888,1314.577492
2.3650,-110.4521988,90.40064314,1316.361791
2.3700,-110.6430635,90.40324294,1318.141756
2.3750,-110.8302389,90.40479239,1319.915605
2.3800,-111.0146872,90.40502395,1321.684214
2.3850,-111.1965335,90.40607414,1323.446683
2.3900,-111.374671,90.40597101,1325.202896
2.3950,-111.5489725,90.4065389,1326.952721
2.4000,-111.7196919,90.40703511,1328.69544
2.4050,-111.8863014,90.40817215,1330.43194
2.4100,-112.0490283,90.41039123,1332.161307
2.4150,-112.2078207,90.4124132,1333.883645
2.4200,-112.3622536,90.41530693,1335.59898
2.4250,-112.5117896,90.41944523,1337.306828
2.4300,-112.6571115,90.42570855,1339.008364
2.4350,-112.7972687,90.43324529,1340.702451
2.4400,-112.931219,90.44218319,1342.387802
2.4450,-113.0588333,90.4514865,1344.064429
2.4500,-113.1806985,90.46014809,1345.732192
2.4550,-113.2972026,90.46730056,1347.390481
2.4600,-113.4094447,90.47288735,1349.039188
2.4650,-113.5170526,90.47628779,1350.676885
2.4700,-113.6203621,90.47722357,1352.304118
2.4750,-113.7216042,90.4749414,1353.920894
2.4800,-113.8199675,90.47026592,1355.527434
2.4850,-113.9166403,90.46432039,1357.123498
2.4900,-114.0104003,90.45858176,1358.708947
2.4950,-114.1018217,90.45490859,1360.283826
2.5000,-114.1891401,90.4544891,1361.848532
2.5050,-114.2719462,90.45917551,1363.403833
2.5100,-114.3486369,90.46895759,1364.948973
2.5150,-114.4188052,90.48288427,1366.482903
2.5200,-114.4811982,90.50189534,1368.005426
2.5250,-114.535886,90.52619352,1369.516971
2.5300,-114.5844472,90.55500508,1371.017583
2.5350,-114.6262556,90.58876723,1372.507395
2.5400,-114.6612212,90.6252835,1373.986259
2.5450,-114.6897974,90.66455197,1375.45265
2.5500,-114.7101618,90.70695174,1376.906799
2.5550,-114.723383,90.75082173,1378.34836
2.5600,-114.728128,90.79749093,1379.776626
2.5650,-114.7244925,90.8461591,1381.192466
2.5700,-114.7134886,90.89375184,1382.595334
2.5750,-114.6955438,90.94157579,1383.984571
2.5800,-114.6715466,90.9884327,1385.36026
2.5850,-114.6423828,91.03387235,1386.722656
2.5900,-114.6093199,91.07623788,1388.071498
2.5950,-114.5707295,91.11612469,1389.406601
2.6000,-114.5279126,91.15427505,1390.72878
2.6050,-114.4791774,91.19027603,1392.038637
2.6100,-114.4253728,91.22610003,1393.336301
2.6150,-114.364447,91.26122571,1394.621774
2.6200,-114.2981023,91.29589302,1395.896192
2.6250,-114.2251548,91.33229417,1397.159715
2.6300,-114.1451992,91.36942715,1398.412362
2.6350,-114.0580097,91.40759949,1399.655096
2.6400,-113.9632531,91.44614466,1400.888466
2.6450,-113.8596604,91.48586902,1402.112902
2.6500,-113.7471254,91.52547905,1403.328114
2.6550,-113.6265285,91.56343376,1404.534244
2.6600,-113.497046,91.598404,1405.730841
2.6650,-113.3585842,91.63062409,1406.918412
2.6700,-113.2132785,91.65790375,1408.096787
2.6750,-113.0603407,91.68089351,1409.266161
2.6800,-112.901172,91.69823065,1410.426556
2.6850,-112.7364543,91.70950505,1411.578388
2.6900,-112.5678597,91.71611016,1412.721612
2.6950,-112.3953376,91.71727313,1413.856548
2.7000,-112.2176926,91.71278013,1414.983337
2.7050,-112.0357009,91.70367109,1416.102035
2.7100,-111.8476926,91.68959082,1417.212225
2.7150,-111.6550693,91.67148071,1418.31551
2.7200,-111.4578736,91.64906466,1419.412065
2.7250,-111.2560073,91.62218046,1420.500248
2.7300,-111.0485241,91.59197649,1421.579904
2.7350,-110.8376358,91.55824242,1422.65207
2.7400,-110.6227606,91.52065687,1423.717481
2.7450,-110.4049149,91.48088453,1424.776182
2.7500,-110.1841832,91.44027823,1425.827937
2.7550,-109.9603526,91.39734656,1426.873489
2.7600,-109.7332409,91.35186975,1427.91344
2.7650,-109.5029448,91.30608455,1428.949098
2.7700,-109.268568,91.26122308,1429.979901
2.7750,-109.0291429,91.21593968,1431.005628
2.7800,-108.7838698,91.17091728,1432.026137
2.7850,-108.5316312,91.12551294,1433.04199
2.7900,-108.273478,91.07735702,1434.052478
2.7950,-108.0099619,91.0257724,1435.057624
2.8000,-107.7433595,90.96910421,1436.05776
2.8050,-107.473585,90.90734396,1437.052864
2.8100,-107.2006516,90.83972787,1438.043295
2.8150,-106.9244907,90.76725429,1439.029166
2.8200,-106.6451445,90.68988253,1440.011586
2.8250,-106.3612534,90.60838645,1440.989281
2.8300,-106.0708019,90.52329519,1441.96265
2.8350,-105.7735377,90.4362497,1442.932407
2.8400,-105.466976,90.34700949,1443.898001
2.8450,-105.1509664,90.25611094,1444.859772
2.8500,-104.8265218,90.16151677,1445.817207
2.8550,-104.4925509,90.06418977,1446.771415
2.8600,-104.1490252,89.96223369,1447.722452
2.8650,-103.7965343,89.85554121,1448.669311
2.8700,-103.435631,89.74343474,1449.611655
2.8750,-103.0658803,89.62464051,1450.550338
2.8800,-102.6885767,89.49773952,1451.485218
2.8850,-102.3026057,89.36202147,1452.415847
2.8900,-101.9074547,89.21946796,1453.343289
2.8950,-101.5051901,89.06643233,1454.267137
2.9000,-101.0940458,88.90366747,1455.187914
2.9050,-100.6773594,88.72989398,1456.10535
2.9100,-100.254806,88.54509309,1457.019102
2.9150,-99.82760423,88.34878464,1457.929617
2.9200,-99.39627543,88.13977627,1458.837022
2.9250,-98.9613855,87.91812766,1459.740505
2.9300,-98.52429728,87.68407676,1460.641348
2.9350,-98.0854426,87.43641727,1461.539108
2.9400,-97.64486874,87.17660197,1462.433969
2.9450,-97.20516123,86.90432401,1463.325596
2.9500,-96.76479058,86.62056353,1464.213819
2.9550,-96.32407312,86.32675887,1465.098412
2.9600,-95.88304579,86.02425287,1465.978298
2.9650,-95.44300872,85.71238695,1466.855373
2.9700,-95.00399212,85.39408565,1467.729292
2.9750,-94.5654776,85.06979311,1468.599944
2.9800,-94.12672159,84.74111196,1469.466761
2.9850,-93.68857874,84.40902799,1470.329857
2.9900,-93.25006659,84.07146419,1471.1897
2.9950,-92.81234066,83.73003893,1472.045495
3.0000,-92.37515612,83.38788004,1472.896675
3.0050,-91.93950507,83.04427866,1473.743291
3.0100,-91.50618148,82.70177336,1474.585712
3.0150,-91.07319998,82.36096074,1475.423566
3.0200,-90.63961881,82.02401936,1476.256239
3.0250,-90.20543929,81.69205876,1477.084367
3.0300,-89.77034699,81.36371619,1477.906727
3.0350,-89.33272853,81.04141836,1478.723967
3.0400,-88.89426551,80.72492351,1479.535365
3.0450,-88.4541097,80.41401774,1480.34164
3.0500,-88.01201126,80.10812968,1481.142468
3.0550,-87.56745948,79.80993788,1481.938046
3.0600,-87.12048227,79.51885415,1482.72746
3.0650,-86.67103147,79.2346852,1483.511077
3.0700,-86.22022021,78.95623644,1484.288424
3.0750,-85.76819955,78.6848124,1485.059665
3.0800,-85.31574423,78.42032148,1485.825724
3.0850,-84.86335136,78.16145941,1486.586305
3.0900,-84.41143313,77.90959481,1487.342052
3.0950,-83.95814836,77.66507393,1488.093275
3.1000,-83.50368466,77.42710367,1488.83922
3.1050,-83.04774653,77.19579394,1489.580348
3.1100,-82.5903438,76.97127939,1490.317034
3.1150,-82.1332025,76.75287012,1491.050119
3.1200,-81.67559632,76.54140809,1491.779509
3.1250,-81.21949484,76.33531887,1492.506161
3.1300,-80.76467218,76.13520239,1493.230389
3.1350,-80.31129513,75.93981795,1493.951348
3.1400,-79.85911941,75.74980149,1494.670147
3.1450,-79.40744556,75.56509157,1495.386027
3.1500,-78.95614857,75.3854283,1496.099828
3.1550,-78.50439635,75.21074545,1496.810122
3.1600,-78.05150973,75.0418813,1497.51757
3.1650,-77.59820657,74.87612721,1498.222176
3.1700,-77.14466954,74.71488921,1498.924602
3.1750,-76.69066194,74.55727732,1499.623896
3.1800,-76.23656826,74.4023707,1500.320024
3.1850,-75.78403771,74.24932806,1501.013532
3.1900,-75.33393491,74.09577116,1501.703688
3.1950,-74.8863903,73.94299296,1502.391402
3.2000,-74.44262786,73.79073824,1503.075887
3.2050,-74.00158414,73.63767428,1503.757335
3.2100,-73.5637957,73.48294246,1504.436754
3.2150,-73.12963312,73.32703207,1505.113986
3.2200,-72.69888836,73.1707383,1505.788951
3.2250,-72.27113446,73.0138303,1506.461897
3.2300,-71.84516444,72.85542615,1507.13132
3.2350,-71.4206794,72.69714256,1507.797939
3.2400,-70.99812824,72.5377414,1508.461606
3.2450,-70.57626257,72.37745192,1509.122189
3.2500,-70.15581766,72.21568445,1509.780446
3.2550,-69.73803136,72.05193018,1510.436881
3.2600,-69.32257962,71.88521318,1511.092728
3.2650,-68.909496,71.71794761,1511.746473
3.2700,-68.49774888,71.54834589,1512.397771
3.2750,-68.08806097,71.37616371,1513.046587
3.2800,-67.68135515,71.20241513,1513.693087
3.2850,-67.27711168,71.02611834,1514.33675
3.2900,-66.87586762,70.8501663,1514.977172
3.2950,-66.47759293,70.67513817,1515.61518
3.3000,-66.08201429,70.50124917,1516.25109
3.3050,-65.68914588,70.32849169,1516.884177
3.3100,-65.30005483,70.15680896,1517.514632
3.3150,-64.91438243,69.98747081,1518.141024
3.3200,-64.53382691,69.81975942,1518.764477
3.3250,-64.15753529,69.65473815,1519.385323
3.3300,-63.78552797,69.4942954,1520.003199
3.3350,-63.41742415,69.33865314,1520.618109
3.3400,-63.0515072,69.18978893,1521.229474
3.3450,-62.68738997,69.04674369,1521.837052
3.3500,-62.32589634,68.9107376,1522.440851
3.3550,-61.96539427,68.78131975,1523.040533
3.3600,-61.60426931,68.66088652,1523.635564
3.3650,-61.24289341,68.54903313,1524.225438
3.3700,-60.88014649,68.44591221,1524.810726
3.3750,-60.51535132,68.35162812,1525.390425
3.3800,-60.14928708,68.26536915,1525.963507
3.3850,-59.7801125,68.18839646,1526.529739
3.3900,-59.40848803,68.11929016,1527.088515
3.3950,-59.03617395,68.05704461,1527.639874
3.4000,-58.66158096,68.002409,1528.183702
3.4050,-58.28649814,67.95544275,1528.719345
3.4100,-57.90973987,67.91564099,1529.24607
3.4150,-57.53042862,67.88282445,1529.763332
3.4200,-57.15008155,67.85647874,1530.271558
3.4250,-56.76873338,67.83649624,1530.770401
3.4300,-56.38704141,67.82207836,1531.259088
3.4350,-56.00541472,67.81258147,1531.737547
3.4400,-55.62511937,67.80875097,1532.204995
3.4450,-55.24669827,67.80890066,1532.662725
3.4500,-54.87030019,67.81378468,1533.109564
3.4550,-54.49619948,67.82372257,1533.546684
3.4600,-54.12597986,67.8370847,1533.973306
3.4650,-53.760204,67.85461722,1534.3901
3.4700,-53.39720925,67.87478396,1534.796129
3.4750,-53.03739385,67.89742274,1535.192107
3.4800,-52.68034091,67.92203641,1535.578313
3.4850,-52.3259949,67.94882207,1535.95539
3.4900,-51.97470318,67.97806169,1536.323594
3.4950,-51.62633592,68.00828356,1536.68321
3.5000,-51.28139882,68.03777136,1537.034324
3.5050,-50.93979835,68.06759662,1537.377679
3.5100,-50.60176628,68.09717225,1537.713167
3.5150,-50.26686328,68.12631149,1538.041045
3.5200,-49.9350984,68.15408314,1538.361574
3.5250,-49.60635821,68.1790811,1538.675158
3.5300,-49.28113989,68.20179042,1538.982921
3.5350,-48.95941538,68.22109227,1539.284551
3.5400,-48.64208823,68.23591989,1539.580327
3.5450,-48.32854459,68.24562099,1539.870997
3.5500,-48.02031964,68.25117581,1540.157473
3.5550,-47.71683017,68.25146785,1540.439592
3.5600,-47.41872012,68.24786531,1540.718831
3.5650,-47.12560359,68.23915719,1540.995771
3.5700,-46.83882809,68.22592835,1541.271319
3.5750,-46.55776409,68.2089034,1541.545737
3.5800,-46.28155338,68.18700314,1541.819528
3.5850,-46.0119668,68.15976993,1542.093889
3.5900,-45.74885982,68.12755682,1542.369355
3.5950,-45.49262248,68.089497,1542.64718
3.6000,-45.24439915,68.04475196,1542.927794
3.6050,-45.00291326,67.99422017,1543.212201
3.6100,-44.76828287,67.93921728,1543.501511
3.6150,-44.54095292,67.87824217,1543.796536
3.6200,-44.31887512,67.81192625,1544.096546
3.6250,-44.10359249,67.73874417,1544.401834
3.6300,-43.89520779,67.65865258,1544.71362
3.6350,-43.69380462,67.57177447,1545.031659
3.6400,-43.49860532,67.47776633,1545.356841
3.6450,-43.30975581,67.37794837,1545.688763
3.6500,-43.12496776,67.27213119,1546.026856
3.6550,-42.94640434,67.16008044,1546.370927
3.6600,-42.77255247,67.04017791,1546.720153
3.6650,-42.60272651,66.91274637,1547.074257
3.6700,-42.43631356,66.77871573,1547.432107
3.6750,-42.27304912,66.6373788,1547.793585
3.6800,-42.11238638,66.48980387,1548.157943
3.6850,-41.95481225,66.33555176,1548.525271
3.6900,-41.79994136,66.17520114,1548.89492
3.6950,-41.64555666,66.00972638,1549.265781
3.7000,-41.49285169,65.83958211,1549.63706
3.7050,-41.34037967,65.66478929,1550.008116
3.7100,-41.19027632,65.48678594,1550.379284
3.7150,-41.04209757,65.30482982,1550.749241
3.7200,-40.89484596,65.11982158,1551.116933
3.7250,-40.74817359,64.93261364,1551.482088
3.7300,-40.60352974,64.74485957,1551.844306
3.7350,-40.46027829,64.5567187,1552.203497
3.7400,-40.31891033,64.36727098,1552.559716
3.7450,-40.17974723,64.17881658,1552.911245
3.7500,-40.04207631,63.99073684,1553.258516
3.7550,-39.90661417,63.80335227,1553.600877
3.7600,-39.77369337,63.61792505,1553.938612
3.7650,-39.64178044,63.434501,1554.270995
3.7700,-39.51256026,63.25553662,1554.598807
3.7750,-39.38557867,63.08193201,1554.921819
3.7800,-39.26156699,62.91398882,1555.239602
3.7850,-39.14117714,62.7521554,1555.551152
3.7900,-39.02326373,62.59780173,1555.857212
3.7950,-38.90855005,62.45040165,1556.157095
3.8000,-38.79793001,62.31119333,1556.450904
3.8050,-38.69054899,62.18137509,1556.738391
3.8100,-38.58639804,62.0601974,1557.018964
3.8150,-38.48701298,61.94824595,1557.293042
3.8200,-38.39008599,61.84627304,1557.560226
3.8250,-38.29756617,61.75400325,1557.81988
3.8300,-38.20976349,61.67190258,1558.072095
3.8350,-38.12651159,61.60042158,1558.316353
3.8400,-38.04844757,61.54143537,1558.553799
3.8450,-37.9756704,61.49463267,1558.783545
3.8500,-37.90780798,61.45965965,1559.005692
3.8550,-37.84443702,61.4369247,1559.220139
3.8600,-37.78663166,61.42570482,1559.426119
3.8650,-37.73379166,61.42621031,1559.623692
3.8700,-37.68673557,61.43825371,1559.813144
3.8750,-37.64599816,61.46040328,1559.994886
3.8800,-37.61233346,61.49209751,1560.169416
3.8850,-37.58457968,61.53422976,1560.336221
3.8900,-37.56324842,61.58678722,1560.495822
3.8950,-37.54811128,61.64932923,1560.647004
3.9000,-37.53852802,61.72187076,1560.790213
3.9050,-37.53476069,61.8040568,1560.925568
3.9100,-37.53663732,61.89433423,1561.052037
3.9150,-37.54469735,61.99263072,1561.170017
3.9200,-37.56007438,62.09806782,1561.279899
3.9250,-37.58100132,62.21170778,1561.381632
3.9300,-37.60785185,62.3325918,1561.475091
3.9350,-37.64185167,62.459473,1561.559713
3.9400,-37.68286364,62.59230541,1561.635083
3.9450,-37.73039714,62.72996448,1561.700976
3.9500,-37.78512536,62.87210539,1561.757942
3.9550,-37.8461562,63.01926841,1561.805744
3.9600,-37.91530409,63.17112143,1561.845125
3.9650,-37.99136178,63.3264515,1561.875044
3.9700,-38.07517566,63.48582481,1561.895753
3.9750,-38.16657136,63.649116,1561.9069
3.9800,-38.26529312,63.81593485,1561.908518
3.9850,-38.37149656,63.98673982,1561.899833
3.9900,-38.48450903,64.16090209,1561.880207
3.9950,-38.60404996,64.33833198,1561.848933
4.0000,-38.73032951,64.51835165,1561.806555
4.0050,-38.86303649,64.70107276,1561.752338
4.0100,-39.00191736,64.88567861,1561.68607
4.0150,-39.14753394,65.07272091,1561.607715
4.0200,-39.29977961,65.26188048,1561.516986
4.0250,-39.45972589,65.45323163,1561.413034
4.0300,-39.62552401,65.64602289,1561.296797
4.0350,-39.79847377,65.83992991,1561.167542
4.0400,-39.97876433,66.03605972,1561.025345
4.0450,-40.16553296,66.23480028,1560.870267
4.0500,-40.35970532,66.43588417,1560.702522
4.0550,-40.56286699,66.63823554,1560.522412
4.0600,-40.77365287,66.84152786,1560.32906
4.0650,-40.99223405,67.0475949,1560.123292
4.0700,-41.21793353,67.25557325,1559.904456
4.0750,-41.45168019,67.46497524,1559.673034
4.0800,-41.69406427,67.67668576,1559.430089
4.0850,-41.94405736,67.89132939,1559.175403
4.0900,-42.2033793,68.10787358,1558.908905
4.0950,-42.47183847,68.32890182,1558.632015
4.1000,-42.7480766,68.55456847,1558.344215
4.1050,-43.03304596,68.78385713,1558.04499
4.1100,-43.32588725,69.01864992,1557.735222
4.1150,-43.62695415,69.25725116,1557.414603
4.1200,-43.93700633,69.50139406,1557.083495
4.1250,-44.25461441,69.75097322,1556.742458
4.1300,-44.57939329,70.00565227,1556.391708
4.1350,-44.91097796,70.26570881,1556.031649
4.1400,-45.24889865,70.53079939,1555.661683
4.1450,-45.59339348,70.80136332,1555.282633
4.1500,-45.94426383,71.07532584,1554.893376
4.1550,-46.30236655,71.35417133,1554.495615
4.1600,-46.6673808,71.63629643,1554.089802
4.1650,-47.04076871,71.92221946,1553.676273
4.1700,-47.42094789,72.21140179,1553.254566
4.1750,-47.80982693,72.50371481,1552.826077
4.1800,-48.20713577,72.79926008,1552.390659
4.1850,-48.61267268,73.09774918,1551.94929
4.1900,-49.02627605,73.3983564,1551.501637
4.1950,-49.4484289,73.70150325,1551.048998
4.2000,-49.87921474,74.00691152,1550.591287
4.2050,-50.31904981,74.31511008,1550.128995
4.2100,-50.76681794,74.62570982,1549.662568
4.2150,-51.22230746,74.9389144,1549.192137
4.2200,-51.6858284,75.25528607,1548.718179
4.2250,-52.15759988,75.57395693,1548.24054
4.2300,-52.63658603,75.89446043,1547.758927
4.2350,-53.12190243,76.21704723,1547.273625
4.2400,-53.61288761,76.54161464,1546.783501
4.2450,-54.10987476,76.86777398,1546.288272
4.2500,-54.61225302,77.19455484,1545.787439
4.2550,-55.12030717,77.52129093,1545.281171
4.2600,-55.63280993,77.84776794,1544.769297
4.2650,-56.15020414,78.17481333,1544.251954
4.2700,-56.67226616,78.50065532,1543.72795
4.2750,-57.19865776,78.82577058,1543.197605
4.2800,-57.72996209,79.14960427,1542.660926
4.2850,-58.26581919,79.47147572,1542.117959
4.2900,-58.80525381,79.79099973,1541.568192
4.2950,-59.34934561,80.10782326,1541.012197
4.3000,-59.89832007,80.42277662,1540.44955
4.3050,-60.45267032,80.73494859,1539.880257
4.3100,-61.01373464,81.0427986,1539.304017
4.3150,-61.58034983,81.34837916,1538.721249
4.3200,-62.1533575,81.65110137,1538.131611
4.3250,-62.73088959,81.95021016,1537.534963
4.3300,-63.31471589,82.24645432,1536.929953
4.3350,-63.90330184,82.54123349,1536.31714
4.3400,-64.49594364,82.83397507,1535.695895
4.3450,-65.09241926,83.12360608,1535.066365
4.3500,-65.6924077,83.41163109,1534.42792
4.3550,-66.29454786,83.69790324,1533.779897
4.3600,-66.8986113,83.98297619,1533.122561
4.3650,-67.50443992,84.26631736,1532.45522
4.3700,-68.11222302,84.54657755,1531.77814
4.3750,-68.72140337,84.82350956,1531.090505
4.3800,-69.33156516,85.09754694,1530.391731
4.3850,-69.94266801,85.36706357,1529.682288
4.3900,-70.55338905,85.63333341,1528.96294
4.3950,-71.16330349,85.89506305,1528.232566
4.4000,-71.77202215,86.15200668,1527.491482
4.4050,-72.37994425,86.40500557,1526.741363
4.4100,-72.98800121,86.653184,1525.982012
4.4150,-73.59402259,86.89711367,1525.213257
4.4200,-74.19831793,87.13541651,1524.434384
4.4250,-74.79945705,87.36908423,1523.645752
4.4300,-75.39873032,87.59769296,1522.847593
4.4350,-75.99638158,87.82028263,1522.040428
4.4400,-76.59259192,88.03663371,1521.225087
4.4450,-77.18700393,88.24581287,1520.40123
4.4500,-77.77946859,88.44939784,1519.570282
4.4550,-78.36943066,88.64654002,1518.731965
4.4600,-78.95752662,88.83771244,1517.886336
4.4650,-79.54262632,89.0219093,1517.033772
4.4700,-80.12598771,89.19907551,1516.174936
4.4750,-80.70642562,89.36921754,1515.30927
4.4800,-81.28422587,89.53214839,1514.437332
4.4850,-81.85905772,89.68768864,1513.558488
4.4900,-82.43105387,89.83589793,1512.673509
4.4950,-82.99851249,89.97696115,1511.782593
4.5000,-83.56282117,90.10958728,1510.886139
4.5050,-84.1235111,90.23385023,1509.984125
4.5100,-84.68154987,90.3499103,1509.077535
4.5150,-85.23655069,90.45886469,1508.165934
4.5200,-85.78806653,90.56037145,1507.250554
4.5250,-86.33645861,90.6549776,1506.331223
4.5300,-86.88171942,90.74443345,1505.407869
4.5350,-87.42226083,90.82848433,1504.480835
4.5400,-87.96025491,90.90573617,1503.550724
4.5450,-88.49554493,90.97774103,1502.618335
4.5500,-89.02694043,91.04436204,1501.683887
4.5550,-89.55409522,91.10748753,1500.747546
4.5600,-90.07749651,91.16611728,1499.80862
4.5650,-90.59696714,91.22123708,1498.867108
4.5700,-91.11109134,91.27400347,1497.924179
4.5750,-91.62050557,91.32299915,1496.979158
4.5800,-92.12351475,91.37003721,1496.032319
4.5850,-92.62231783,91.41382438,1495.083423
4.5900,-93.11729578,91.45586715,1494.13321
4.5950,-93.60864946,91.49581515,1493.180974
4.6000,-94.09555212,91.53379619,1492.227084
4.6050,-94.5786663,91.56943692,1491.271459
4.6100,-95.05571226,91.60604117,1490.314588
4.6150,-95.52807677,91.6408243,1489.3554
4.6200,-95.99566016,91.67397007,1488.393803
4.6250,-96.45961228,91.70628954,1487.430183
4.6300,-96.91920365,91.73744663,1486.465406
4.6350,-97.37555816,91.76746021,1485.499302
4.6400,-97.82923291,91.7967283,1484.531959
4.6450,-98.27994971,91.82696836,1483.563414
4.6500,-98.72828652,91.85781702,1482.592838
4.6550,-99.17326301,91.89001312,1481.620653
4.6600,-99.61652271,91.92414173,1480.647319
4.6650,-100.0581661,91.96008203,1479.672352
4.6700,-100.4989242,91.99869674,1478.695761
4.6750,-100.9387371,92.04128278,1477.717681
4.6800,-101.3769878,92.08677242,1476.737571
4.6850,-101.8144063,92.13799893,1475.756034
4.6900,-102.251127,92.19343652,1474.771291
4.6950,-102.6874414,92.2538475,1473.783471
4.7000,-103.1245576,92.31920723,1472.792307
4.7050,-103.5616013,92.38929457,1471.797748
4.7100,-103.9984886,92.4638105,1470.798515
4.7150,-104.4361789,92.54301819,1469.794496
4.7200,-104.8758277,92.62631413,1468.78657
4.7250,-105.3180455,92.71429407,1467.774282
4.7300,-105.7617344,92.80618376,1466.756124
4.7350,-106.2090478,92.90228432,1465.732187
4.7400,-106.6574364,93.00338574,1464.70091
4.7450,-107.1081417,93.10954938,1463.663237
4.7500,-107.5611845,93.22004041,1462.618081
4.7550,-108.0162159,93.33437383,1461.564829
4.7600,-108.4724661,93.45157568,1460.50353
4.7650,-108.93023,93.57193126,1459.433566
4.7700,-109.3889433,93.6943859,1458.355193
4.7750,-109.848203,93.81981189,1457.268661
4.7800,-110.3069476,93.94743945,1456.173415
4.7850,-110.7648072,94.07726236,1455.070571
4.7900,-111.2209925,94.20925722,1453.959906
4.7950,-111.6760301,94.34239342,1452.840567
4.8000,-112.1286528,94.47745411,1451.713189
4.8050,-112.5777765,94.61396663,1450.577291
4.8100,-113.0218467,94.75263573,1449.432339
4.8150,-113.4603077,94.89253834,1448.278766
4.8200,-113.8913233,95.03339409,1447.116122
4.8250,-114.3161452,95.17561176,1445.944844
4.8300,-114.7344441,95.31813447,1444.766241
4.8350,-115.147023,95.46122879,1443.579472
4.8400,-115.5518356,95.60646341,1442.385414
4.8450,-115.9484116,95.75321482,1441.18361
4.8500,-116.3373719,95.90314654,1439.973702
4.8550,-116.7173986,96.05570707,1438.755059
4.8600,-117.088813,96.21011003,1437.528638
4.8650,-117.4522496,96.36684677,1436.294493
4.8700,-117.807912,96.52594798,1435.052103
4.8750,-118.1550932,96.68843678,1433.801575
4.8800,-118.4950388,96.8531208,1432.542271
4.8850,-118.8252627,97.02224557,1431.27446
4.8900,-119.1462948,97.19593419,1429.998021
4.8950,-119.4576125,97.37451093,1428.712702
4.9000,-119.7598155,97.5577112,1427.417571
4.9050,-120.0523033,97.74551973,1426.113547
4.9100,-120.3367166,97.93684247,1424.799647
4.9150,-120.6138773,98.13203414,1423.476487
4.9200,-120.8834851,98.33174639,1422.14381
4.9250,-121.1457576,98.53445243,1420.802196
4.9300,-121.4008337,98.7406493,1419.451163
4.9350,-121.6472146,98.94978252,1418.089873
4.9400,-121.8866013,99.16133173,1416.719679
4.9450,-122.1193536,99.37387245,1415.339157
4.9500,-122.3453972,99.58746227,1413.949974
4.9550,-122.5660413,99.80174725,1412.551663
4.9600,-122.7807248,100.0160508,1411.14402
4.9650,-122.9897789,100.2301721,1409.726871
4.9700,-123.1921335,100.4430641,1408.300614
4.9750,-123.3885929,100.6540893,1406.864449
4.9800,-123.5801215,100.8635091,1405.419235
4.9850,-123.7661426,101.0688534,1403.964332
4.9900,-123.9486477,101.2704166,1402.500364
4.9950,-124.1277302,101.4683628,1401.027876
5.0000,-124.3035138,101.6629346,1399.546833
5.0050,-124.4749642,101.8540049,1398.056074
5.0100,-124.6424862,102.0419358,1396.557209
5.0150,-124.8060209,102.2270893,1395.050263
5.0200,-124.9637896,102.4098675,1393.534491
5.0250,-125.1168935,102.5882741,1392.009463
5.0300,-125.2650574,102.763901,1390.476021
5.0350,-125.406706,102.9365756,1388.934454
5.0400,-125.5435132,103.1042818,1387.385308
5.0450,-125.6748404,103.2680998,1385.828013
5.0500,-125.8005949,103.4277896,1384.262102
5.0550,-125.921288,103.5827558,1382.687965
5.0600,-126.0361017,103.7342618,1381.10568
5.0650,-126.1456529,103.8820376,1379.515569
5.0700,-126.2486219,104.0257745,1377.917292
5.0750,-126.3446379,104.1660808,1376.310896
5.0800,-126.4341449,104.3022704,1374.696446
5.0850,-126.5175498,104.4343743,1373.073461
5.0900,-126.5936361,104.5620846,1371.441715
5.0950,-126.662163,104.6853367,1369.801924
5.1000,-126.7229231,104.8035086,1368.153994
5.1050,-126.7758246,104.9163055,1366.497933
5.1100,-126.8218743,105.0231144,1364.833023
5.1150,-126.8612935,105.1237725,1363.160486
5.1200,-126.8940781,105.2194186,1361.479186
5.1250,-126.9186244,105.3090523,1359.7909
5.1300,-126.9336716,105.3934859,1358.093209
5.1350,-126.939734,105.4731739,1356.387495
5.1400,-126.9361067,105.5488476,1354.673727
5.1450,-126.9217733,105.6202582,1352.952088
5.1500,-126.8962192,105.6857877,1351.221851
5.1550,-126.859093,105.7456216,1349.483647
5.1600,-126.8097801,105.8018009,1347.737446
5.1650,-126.7472793,105.8511163,1345.983246
5.1700,-126.6712222,105.8930503,1344.221137
5.1750,-126.5816372,105.9280786,1342.450837
5.1800,-126.4786556,105.9557708,1340.673057
5.1850,-126.3624058,105.9749731,1338.887188
5.1900,-126.2328201,105.9829941,1337.093961
5.1950,-126.0901679,105.9794337,1335.294607
5.2000,-125.9345223,105.9625663,1333.490391
5.2050,-125.7665609,105.9309943,1331.680209
5.2100,-125.5860015,105.8838605,1329.865005
5.2150,-125.3926962,105.8212518,1328.044977
5.2200,-125.18819,105.7419635,1326.221828
5.2250,-124.9721857,105.6468385,1324.39387
5.2300,-124.7452218,105.5332445,1322.562096
5.2350,-124.5097535,105.4024996,1320.727647
5.2400,-124.2656766,105.2539053,1318.889567
5.2450,-124.0149635,105.0884967,1317.049421
5.2500,-123.7571185,104.9070437,1315.206985
5.2550,-123.49294,104.7098268,1313.363232
5.2600,-123.2226617,104.4993115,1311.517938
5.2650,-122.9462633,104.2760562,1309.67233
5.2700,-122.6655193,104.042409,1307.826593
5.2750,-122.3794351,103.8003934,1305.981773
5.2800,-122.0871104,103.551654,1304.13753
5.2850,-121.788261,103.2989267,1302.293362
5.2900,-121.4817429,103.0448831,1300.449732
5.2950,-121.1677663,102.7892669,1298.606365
5.3000,-120.8455535,102.5342702,1296.763703
5.3050,-120.516072,102.280501,1294.922126
5.3100,-120.1772509,102.0298566,1293.080758
5.3150,-119.8291018,101.7835653,1291.23972
5.3200,-119.4728492,101.5422305,1289.398345
5.3250,-119.10804,101.3069357,1287.556878
5.3300,-118.7352402,101.0778041,1285.715676
5.3350,-118.3541202,100.8545468,1283.874068
5.3400,-117.9641494,100.638952,1282.032477
5.3450,-117.564852,100.4305165,1280.190271
5.3500,-117.1574073,100.2287372,1278.349168
5.3550,-116.740665,100.034044,1276.508089
5.3600,-116.3158592,99.84556187,1274.66789
5.3650,-115.8840183,99.6631295,1272.828266
5.3700,-115.4454629,99.48749404,1270.988608
5.3750,-115.0002343,99.31884847,1269.148524
5.3800,-114.5477221,99.15794186,1267.30826
5.3850,-114.0881365,99.00341363,1265.467561
5.3900,-113.6221087,98.85584868,1263.625677
5.3950,-113.1501749,98.71305098,1261.782779
5.4000,-112.6718423,98.57442854,1259.939236
5.4050,-112.1879787,98.44020323,1258.095651
5.4100,-111.697034,98.31114297,1256.252581
5.4150,-111.1993149,98.18536131,1254.409746
5.4200,-110.694813,98.06160989,1252.567497
5.4250,-110.1837082,97.94042993,1250.725287
5.4300,-109.6672535,97.82038355,1248.884565
5.4350,-109.1438014,97.70119192,1247.044807
5.4400,-108.6144991,97.58198286,1245.206455
5.4450,-108.0804181,97.46228483,1243.370344
5.4500,-107.5425536,97.34270782,1241.536452
5.4550,-107.0004305,97.22200619,1239.704086
5.4600,-106.4539761,97.09930787,1237.873213
5.4650,-105.9041116,96.97598299,1236.043717
5.4700,-105.3517934,96.85118259,1234.2163
5.4750,-104.7964516,96.7255655,1232.391589
5.4800,-104.2372408,96.59811447,1230.56935
5.4850,-103.6747834,96.46732351,1228.750498
5.4900,-103.108329,96.33490711,1226.935722
5.4950,-102.5379699,96.19987531,1225.124616
5.5000,-101.9631746,96.06285996,1223.317808
5.5050,-101.383454,95.92494384,1221.515131
5.5100,-100.7994664,95.7850364,1219.717058
5.5150,-100.210425,95.64415544,1217.924147
5.5200,-99.61465045,95.50212116,1216.135439
5.5250,-99.01159309,95.35999389,1214.351735
5.5300,-98.40103587,95.2182949,1212.573428
5.5350,-97.78155983,95.07639755,1210.799634
5.5400,-97.15270651,94.93446149,1209.031323
5.5450,-96.51409912,94.79170261,1207.26876
5.5500,-95.86735275,94.64682441,1205.511843
5.5550,-95.21236857,94.49945153,1203.76047
5.5600,-94.54982953,94.34962149,1202.015301
5.5650,-93.88055305,94.19679894,1200.276336
5.5700,-93.20391409,94.04041299,1198.544077
5.5750,-92.52108343,93.88107172,1196.819035
5.5800,-91.83240523,93.7191067,1195.101133
5.5850,-91.14025887,93.55426358,1193.391782
5.5900,-90.44577634,93.38552697,1191.690963
5.5950,-89.74713758,93.21540442,1189.99867
5.6000,-89.04505927,93.04460694,1188.315563
5.6050,-88.34000376,92.87294683,1186.640957
5.6100,-87.63304339,92.70055746,1184.975221
5.6150,-86.92571761,92.52661763,1183.31921
5.6200,-86.2176846,92.35157979,1181.672955
5.6250,-85.50925281,92.17648168,1180.037119
5.6300,-84.80089836,91.99960531,1178.412088
5.6350,-84.09302381,91.82235488,1176.798185
5.6400,-83.38504942,91.6447735,1175.194235
5.6450,-82.67715766,91.46701219,1173.600788
5.6500,-81.96854864,91.29128301,1172.017393
5.6550,-81.26078607,91.11786538,1170.444967
5.6600,-80.5527207,90.94810656,1168.882545
5.6650,-79.8439724,90.78197671,1167.330213
5.6700,-79.13408068,90.62098354,1165.788023
5.6750,-78.42445132,90.46300978,1164.256223
5.6800,-77.71399634,90.30945565,1162.733426
5.6850,-77.00233332,90.16129758,1161.219911
5.6900,-76.29045827,90.01720772,1159.71575
5.6950,-75.57779378,89.87904161,1158.220513
5.7000,-74.86433575,89.7476514,1156.733545
5.7050,-74.15025889,89.622165,1155.253618
5.7100,-73.43707321,89.50185044,1153.781266
5.7150,-72.72348003,89.38762438,1152.315516
5.7200,-72.00989878,89.28056167,1150.857413
5.7250,-71.29555124,89.17876279,1149.405871
5.7300,-70.58081947,89.08287716,1147.961026
5.7350,-69.86661417,88.99270128,1146.522887
5.7400,-69.15221001,88.90751271,1145.091287
5.7450,-68.43673933,88.82760943,1143.665441
5.7500,-67.7194962,88.75275535,1142.245745
5.7550,-67.00071273,88.68216089,1140.832071
5.7600,-66.27984115,88.61548249,1139.423684
5.7650,-65.55607291,88.55197578,1138.020725
5.7700,-64.82909429,88.49225428,1136.622939
5.7750,-64.09943288,88.43411785,1135.230439
5.7800,-63.36693785,88.37611436,1133.842623
5.7850,-62.6312391,88.32057544,1132.459589
5.7900,-61.8921962,88.26553745,1131.080326
5.7950,-61.14872674,88.21128929,1129.705184
5.8000,-60.40042192,88.15519051,1128.333201
5.8050,-59.64791421,88.09692217,1126.965797
5.8100,-58.88841649,88.037614,1125.602106
5.8150,-58.12259732,87.97535042,1124.242261
5.8200,-57.34905183,87.90948083,1122.885585
5.8250,-56.56873453,87.83884659,1121.533042
5.8300,-55.7805025,87.76360652,1120.183502
5.8350,-54.98500343,87.68402101,1118.838239
5.8400,-54.18032149,87.59884192,1117.496482
5.8450,-53.36583712,87.50948745,1116.158137
5.8500,-52.53955417,87.41598517,1114.823126
5.8550,-51.70170193,87.31872799,1113.491717
5.8600,-50.85216525,87.21724371,1112.163703
5.8650,-49.98967698,87.11238154,1110.839427
5.8700,-49.11442416,87.00458843,1109.518585
5.8750,-48.22603252,86.89172732,1108.200519
5.8800,-47.32602753,86.77415347,1106.886396
5.8850,-46.41142749,86.65332735,1105.575278
5.8900,-45.4813197,86.52863132,1104.267321
5.8950,-44.53773885,86.40022179,1102.9631
5.9000,-43.58116234,86.2671263,1101.662671
5.9050,-42.61198076,86.12964372,1100.366082
5.9100,-41.63108374,85.98765275,1099.073867
5.9150,-40.63716564,85.84232093,1097.785469
5.9200,-39.63068675,85.69269877,1096.501124
5.9250,-38.61237139,85.53839395,1095.220961
5.9300,-37.5808228,85.38167713,1093.944686
5.9350,-36.53658056,85.22233802,1092.671984
5.9400,-35.48199828,85.06102087,1091.404474
5.9450,-34.41693103,84.89783148,1090.142029
5.9500,-33.34158103,84.73321618,1088.884332
5.9550,-32.25557956,84.56704246,1087.630988
5.9600,-31.15987745,84.39981055,1086.382771
5.9650,-30.05482791,84.23171505,1085.139568
5.9700,-28.94235394,84.06264408,1083.902065
5.9750,-27.82271003,83.89359456,1082.670213
5.9800,-26.69776074,83.72356047,1081.44484
5.9850,-25.5683847,83.55247818,1080.225833
5.9900,-24.43534142,83.38212981,1079.013895
5.9950,-23.29842835,83.21246748,1077.809062
6.0000,-22.15864494,83.04329868,1076.610723
6.0050,-21.01740254,82.875464,1075.420377
6.0100,-19.87351279,82.70927121,1074.237223
6.0150,-18.72887409,82.54632643,1073.062388
6.0200,-17.58377441,82.38459663,1071.894527
6.0250,-16.44045855,82.22538662,1070.735137
6.0300,-15.29840699,82.0679785,1069.583796
6.0350,-14.15806773,81.9121547,1068.440974
6.0400,-13.01975906,81.75819319,1067.306349
6.0450,-11.88433155,81.60526217,1066.180476
6.0500,-10.75174017,81.45179606,1065.063243
6.0550,-9.622576112,81.29909377,1063.955036
6.0600,-8.49690374,81.14519259,1062.856424
6.0650,-7.374601991,80.98916486,1061.76715
6.0700,-6.254682066,80.82962216,1060.686907
6.0750,-5.136959074,80.66683517,1059.615599
6.0800,-4.020005929,80.50192155,1058.553105
6.0850,-2.902777969,80.33359919,1057.498982
6.0900,-1.785056862,80.1626825,1056.453389
6.0950,-0.666892795,79.98842607,1055.415759
6.1000,0.4524733412,79.81194775,1054.385825
6.1050,1.575097876,79.63206576,1053.362361
6.1100,2.700083764,79.44756292,1052.345666
6.1150,3.829158556,79.25968913,1051.335136
6.1200,4.960103374,79.06780227,1050.331536
6.1250,6.094213273,78.87057719,1049.33391
6.1300,7.231634401,78.6681796,1048.342479
6.1350,8.373129891,78.46021536,1047.35646
6.1400,9.516367815,78.24708532,1046.37697
6.1450,10.66185324,78.02803289,1045.403941
6.1500,11.80820678,77.80255293,1044.437904
6.1550,12.95565634,77.57067063,1043.479044
6.1600,14.10398272,77.33218429,1042.527694
6.1650,15.25096183,77.08620825,1041.584456
6.1700,16.39841713,76.83218167,1040.649026
6.1750,17.54629865,76.57117258,1039.72165
6.1800,18.69479904,76.30237852,1038.802577
6.1850,19.84312911,76.02564024,1037.892196
6.1900,20.9916647,75.74004458,1036.990317
6.1950,22.14017937,75.44649058,1036.097599
6.2000,23.28833241,75.14345101,1035.213909
6.2050,24.43497829,74.83112154,1034.340212
6.2100,25.5800724,74.50859188,1033.476266
6.2150,26.72279952,74.17506984,1032.622391
6.2200,27.86007538,73.83187317,1031.779899
6.2250,28.99157725,73.47929685,1030.948932
6.2300,30.11496569,73.11579446,1030.129664
6.2350,31.22805785,72.74333851,1029.32326
6.2400,32.33087634,72.36063286,1028.529034
6.2450,33.42157813,71.96984703,1027.747572
6.2500,34.49674479,71.56986431,1026.979809
6.2550,35.55690732,71.16246002,1026.225423
6.2600,36.60005426,70.74771745,1025.484724
6.2650,37.62624693,70.32679005,1024.757814
6.2700,38.63549167,69.90103365,1024.044421
6.2750,39.62739678,69.46947268,1023.344684
6.2800,40.60250195,69.03401538,1022.65856
6.2850,41.56076773,68.59541663,1021.986147
6.2900,42.50333261,68.15309071,1021.327208
6.2950,43.42961795,67.70742682,1020.681533
6.3000,44.33999787,67.25909842,1020.049922
6.3050,45.23631262,66.80850685,1019.431796
6.3100,46.118898,66.35553716,1018.826917
6.3150,46.98902761,65.89950873,1018.234893
6.3200,47.84888419,65.4417516,1017.655598
6.3250,48.70049124,64.98222511,1017.088222
6.3300,49.5450275,64.52107403,1016.532483
6.3350,50.38402912,64.05946466,1015.988065
6.3400,51.21938474,63.59724102,1015.4541
6.3450,52.05208036,63.13471226,1014.930421
6.3500,52.88321969,62.67350815,1014.416538
6.3550,53.71303868,62.2128273,1013.912424
6.3600,54.54224287,61.75321649,1013.417223
6.3650,55.37180434,61.2962705,1012.930983
6.3700,56.20176051,60.84232455,1012.453374
6.3750,57.03190001,60.39142558,1011.984296
6.3800,57.86177124,59.94421686,1011.523704
6.3850,58.69072141,59.50067858,1011.071402
6.3900,59.51988017,59.06107635,1010.627026
6.3950,60.34818108,58.62541722,1010.190647
6.4000,61.17691817,58.19519764,1009.76206
6.4050,62.0049004,57.77042431,1009.341242
6.4100,62.83143413,57.35175946,1008.928191
6.4150,63.65761897,56.939285,1008.522512
6.4200,64.4841834,56.53333599,1008.123906
6.4250,65.31176887,56.13465636,1007.73207
6.4300,66.14079751,55.74360483,1007.346939
6.4350,66.97109782,55.35972204,1006.968351
6.4400,67.80388277,54.98429941,1006.596108
6.4450,68.6383394,54.61636766,1006.229928
6.4500,69.47512419,54.25611925,1005.869471
6.4550,70.31521669,53.90437503,1005.514646
6.4600,71.15793145,53.55981682,1005.165303
6.4650,72.00519428,53.2241005,1004.820817
6.4700,72.85623791,52.89749322,1004.481457
6.4750,73.70913607,52.57981687,1004.147485
6.4800,74.56451622,52.27191182,1003.818596
6.4850,75.42123815,51.97346562,1003.494917
6.4900,76.27891349,51.68620928,1003.176714
6.4950,77.13734207,51.4082229,1002.863482
6.5000,77.99643021,51.1402453,1002.555267
6.5050,78.85507343,50.88194957,1002.25201
6.5100,79.71204366,50.63298584,1001.953992
6.5150,80.56552467,50.39313166,1001.661297
6.5200,81.41622062,50.16080086,1001.373404
6.5250,82.26159599,49.93582532,1001.090946
6.5300,83.10162647,49.71859991,1000.81378
6.5350,83.93667995,49.50840267,1000.541702
6.5400,84.76484158,49.30431613,1000.274928
6.5450,85.58598099,49.10517372,1000.01324
6.5500,86.40207339,48.91069448,999.7559154
6.5550,87.21014349,48.72108873,999.5038219
6.5600,88.01259895,48.53482348,999.2560644
6.5650,88.80780683,48.35289847,999.0129142
6.5700,89.59595355,48.17315493,998.7740973
6.5750,90.37768123,47.99751457,998.5395695
6.5800,91.15288462,47.82509897,998.3089186
6.5850,91.92233494,47.65491008,998.0818401
6.5900,92.6846532,47.48748612,997.8586997
6.5950,93.4414535,47.32276727,997.6390419
6.6000,94.19233999,47.1605882,997.4226153
6.6050,94.93719116,46.9998174,997.2092843
6.6100,95.67709571,46.83975567,996.9985922
6.6150,96.41200103,46.68044172,996.7905349
6.6200,97.14150099,46.52236451,996.5851704
6.6250,97.86663113,46.36572722,996.3821675
6.6300,98.58750931,46.20992413,996.1813562
6.6350,99.3041595,46.0545384,995.9828013
6.6400,100.0155849,45.89935678,995.7866016
6.6450,100.7233996,45.74346652,995.59202
6.6500,101.4266219,45.5872753,995.3994627
6.6550,102.1267584,45.42978057,995.208295
6.6600,102.8227165,45.27209762,995.0190345
6.6650,103.5150586,45.11343341,994.8313355
6.6700,104.204017,44.95338984,994.6450322
6.6750,104.8900316,44.79227312,994.4601351
6.6800,105.5736549,44.63107612,994.2766133
6.6850,106.255612,44.46939267,994.0943849
6.6900,106.9354006,44.30709038,993.9132541
6.6950,107.6143853,44.1438224,993.7329424
6.7000,108.2907976,43.9799896,993.5537909
6.7050,108.9657149,43.81627184,993.3757381
6.7100,109.6403135,43.6533717,993.1987671
6.7150,110.3143179,43.48875157,993.0222326
6.7200,110.9868783,43.3237696,992.8467231
6.7250,111.6577051,43.15900286,992.6724985
6.7300,112.3257389,42.99254776,992.499252
6.7350,112.9910546,42.82464354,992.3271635
6.7400,113.6532392,42.65430561,992.1561843
6.7450,114.311688,42.48145276,991.9865884
6.7500,114.9655376,42.30567608,991.8185947
6.7550,115.6144207,42.12560661,991.6517857
6.7600,116.2580647,41.94285028,991.4866123
6.7650,116.8947194,41.75539715,991.3231575
6.7700,117.5251563,41.56343912,991.1612597
6.7750,118.1499385,41.36739757,991.000973
6.7800,118.7690665,41.16735286,990.8422193
6.7850,119.3829208,40.96252808,990.6848584
6.7900,119.9905127,40.75217339,990.5289049
6.7950,120.5925348,40.53742244,990.3742631
6.8000,121.1898933,40.31793759,990.220741
6.8050,121.7825482,40.09467242,990.0683751
6.8100,122.370461,39.86710655,989.9170359
6.8150,122.954385,39.63479051,989.7666117
6.8200,123.5328184,39.39968016,989.6174735
6.8250,124.1070259,39.1625374,989.4694652
6.8300,124.6767535,38.92346543,989.3225946
6.8350,125.2392299,38.68179716,989.1772756
6.8400,125.795303,38.43957512,989.0336118
6.8450,126.3435307,38.19727089,988.8918186
6.8500,126.8830546,37.95598775,988.7523567
6.8550,127.4134326,37.7152824,988.6151624
6.8600,127.9326584,37.47710658,988.4806315
6.8650,128.4408229,37.24047614,988.3488807
6.8700,128.9369304,37.00675271,988.2202364
6.8750,129.4196174,36.77476354,988.0947001
6.8800,129.8869612,36.54456659,987.9728302
6.8850,130.3381319,36.31673286,987.8547137
6.8900,130.7728521,36.09199555,987.7404538
6.8950,131.1894238,35.86960215,987.6302756
6.9000,131.5874635,35.65087946,987.5244208
6.9050,131.9666474,35.43601458,987.4229137
6.9100,132.3244696,35.22593064,987.3264063
6.9150,132.6614989,35.01985451,987.2345666
6.9200,132.9773826,34.81765484,987.1473138
6.9250,133.2709221,34.61790292,987.0648208
6.9300,133.5411538,34.42239064,986.9874153
6.9350,133.7872408,34.2301619,986.9149821
6.9400,134.0096193,34.04171084,986.8475679
6.9450,134.2054212,33.85720908,986.7856818
6.9500,134.3759091,33.6767157,986.7291503
6.9550,134.5193458,33.49983255,986.6780499
6.9600,134.636188,33.32735543,986.6325788
6.9650,134.7253384,33.15795258,986.5926504
6.9700,134.7860877,32.99339225,986.5586226
6.9750,134.8191024,32.83252347,986.5300855
6.9800,134.8239638,32.67502661,986.5073239
6.9850,134.8011683,32.52138294,986.4899846
6.9900,134.7505952,32.37080582,986.4782774
6.9950,134.6731448,32.22454261,986.4722494
7.0000,134.5694215,32.08138196,986.4715702
7.0050,134.4401248,31.94027516,986.4758869
7.0100,134.2854975,31.80009791,986.4850391
7.0150,134.1057969,31.66338916,986.4994448
7.0200,133.9023008,31.52834246,986.5185202
7.0250,133.6781707,31.39630494,986.5418788
7.0300,133.4336689,31.2667376,986.569636
7.0350,133.1705957,31.13931615,986.6012254
7.0400,132.8900018,31.01528295,986.6365111
7.0450,132.5936123,30.89232189,986.6750229
7.0500,132.2829218,30.77231941,986.716539
7.0550,131.9590685,30.65390077,986.7608095
7.0600,131.6241282,30.53729551,986.8074037
7.0650,131.2813804,30.42237455,986.8557088
7.0700,130.9297813,30.30995343,986.9059525
7.0750,130.5710585,30.1990283,986.957592
7.0800,130.2057367,30.0886892,987.0105582
7.0850,129.8344628,29.98100613,987.0649119
7.0900,129.4582886,29.87649253,987.1207233
7.0950,129.0778413,29.77403353,987.1777039
7.1000,128.6919589,29.67429395,987.2362357
7.1050,128.3024816,29.57590907,987.2958785
7.1100,127.9079128,29.48114193,987.3572618
7.1150,127.508526,29.39014139,987.4203696
7.1200,127.1035555,29.30222356,987.4855199
7.1250,126.6937008,29.21701639,987.5524368
7.1300,126.2765956,29.13586619,987.622023
7.1350,125.8520687,29.05978877,987.6944871
7.1400,125.4188444,28.98789482,987.7702532
7.1450,124.9750452,28.92081603,987.8499043
7.1500,124.5189909,28.85958374,987.9340395
7.1550,124.0497076,28.8046159,988.023132
7.1600,123.565747,28.75640412,988.1176006
7.1650,123.0649175,28.71588071,988.2180758
7.1700,122.5452123,28.68179512,988.3249344
7.1750,122.0068128,28.65716267,988.4387468
7.1800,121.447802,28.64287976,988.5601112
7.1850,120.8665819,28.63955757,988.6896961
7.1900,120.2631621,28.64725799,988.8275512
7.1950,119.6363144,28.66753931,988.9742483
7.2000,118.9852677,28.69904775,989.1299332
7.2050,118.3087153,28.74283051,989.2951657
7.2100,117.6072908,28.79914947,989.4698997
7.2150,116.8801808,28.87002306,989.6547989
7.2200,116.1263815,28.95413808,989.8501423
7.2250,115.3466456,29.05347924,990.0561755
7.2300,114.540291,29.1664617,990.2730291
7.2350,113.7092404,29.29485559,990.500843
7.2400,112.8527427,29.43756851,990.7398482
7.2450,111.9710046,29.59445119,990.9902718
7.2500,111.0641798,29.76448398,991.2522323
7.2550,110.1319947,29.94798165,991.5261459
7.2600,109.1752227,30.14470012,991.8121449
7.2650,108.1933583,30.35472721,992.1106335
7.2700,107.1874621,30.57732684,992.4215771
7.2750,106.1572794,30.81268151,992.7453804
7.2800,105.1015799,31.06072781,993.0825689
7.2850,104.0213339,31.32055682,993.4333068
7.2900,102.9172333,31.59252067,993.7976763
7.2950,101.7891702,31.87612034,994.1757562
7.3000,100.637322,32.17135898,994.5675343
7.3050,99.46126961,32.47941903,994.9739022
7.3100,98.26232521,32.80042631,995.3945905
7.3150,97.04166353,33.13385629,995.8296485
7.3200,95.80009594,33.48021348,996.2789559
7.3250,94.53562013,33.83708354,996.7427631
7.3300,93.25103259,34.20653216,997.2209022
7.3350,91.94485808,34.5871721,997.7136822
7.3400,90.61903252,34.97721747,998.2208145
7.3450,89.27469492,35.37857347,998.7422394
7.3500,87.91275162,35.78937897,999.2778999
7.3550,86.53408854,36.21007292,999.8278274
7.3600,85.14011274,36.64047532,1000.391977
7.3650,83.73067753,37.07950406,1000.970386
7.3700,82.30827912,37.52593787,1001.562528
7.3750,80.87373996,37.97937732,1002.168267
7.3800,79.42818486,38.43977023,1002.787582
7.3850,77.97359336,38.90531844,1003.419975
7.3900,76.51058634,39.37562821,1004.065314
7.3950,75.04001445,39.85001701,1004.723505
7.4000,73.56315079,40.32917715,1005.394653
7.4050,72.08120091,40.81286914,1006.07848
7.4100,70.59599884,41.29836012,1006.774391
7.4150,69.107246,41.78585111,1007.482487
7.4200,67.6162038,42.27595108,1008.202804
7.4250,66.12142903,42.76787801,1008.935919
7.4300,64.62424799,43.26031281,1009.681246
7.4350,63.12543666,43.7524197,1010.43861
7.4400,61.62683903,44.24487207,1011.207973
7.4450,60.1287752,44.73666841,1011.989234
7.4500,58.63230468,45.22735396,1012.782274
7.4550,57.13786532,45.71694099,1013.587187
7.4600,55.64586852,46.2034335,1014.404017
7.4650,54.15745728,46.6862876,1015.232561
7.4700,52.67398114,47.16605172,1016.072847
7.4750,51.19485305,47.64107871,1016.925178
7.4800,49.72271548,48.11084428,1017.789059
7.4850,48.25818724,48.5748838,1018.664299
7.4900,46.80087878,49.03097784,1019.551267
7.4950,45.35184203,49.4792333,1020.449801
7.5000,43.91245707,49.91894647,1021.359499
7.5050,42.48394477,50.3516218,1022.280282
7.5100,41.06724646,50.77654494,1023.211754
7.5150,39.66302927,51.19173851,1024.153332
7.5200,38.27281577,51.59924712,1025.104841
7.5250,36.89612299,51.99892917,1026.066318
7.5300,35.5332783,52.39162455,1027.037532
7.5350,34.18311296,52.77657515,1028.01853
7.5400,32.84667725,53.15443778,1029.008554
7.5450,31.52373555,53.5264812,1030.007475
7.5500,30.21387771,53.89310762,1031.014926
7.5550,28.91664718,54.25505953,1032.031026
7.5600,27.63093671,54.61146214,1033.055107
7.5650,26.35666469,54.96338907,1034.087042
7.5700,25.09207269,55.31070746,1035.12692
7.5750,23.83767238,55.6552854,1036.174486
7.5800,22.59265252,55.99543183,1037.229063
7.5850,21.35542809,56.33272986,1038.291506
7.5900,20.12454841,56.66882479,1039.3616
7.5950,18.90083003,57.00281122,1040.438865
7.6000,17.68341176,57.3350819,1041.523389
7.6050,16.47230604,57.6646822,1042.614741
7.6100,15.26604403,57.9918695,1043.713197
7.6150,14.06259037,58.31491586,1044.818726
7.6200,12.86203378,58.63469558,1045.931067
7.6250,11.66427808,58.95132781,1047.050522
7.6300,10.46802941,59.26414344,1048.176867
7.6350,9.273421181,59.57489371,1049.31045
7.6400,8.080964613,59.884602,1050.450899
7.6450,6.890536667,60.19249509,1051.598381
7.6500,5.701542555,60.49936997,1052.753091
7.6550,4.514965186,60.80597914,1053.914096
7.6600,3.330263951,61.11122794,1055.08148
7.6650,2.147452504,61.41677923,1056.255601
7.6700,0.9661144411,61.72248084,1057.436555
7.6750,-0.2136056061,62.02772542,1058.624265
7.6800,-1.390880679,62.33328182,1059.817859
7.6850,-2.565373724,62.63846472,1061.016314
7.6900,-3.736946115,62.94425615,1062.219796
7.6950,-4.904655798,63.24947251,1063.427849
7.7000,-6.06781422,63.55332067,1064.639416
7.7050,-7.227772116,63.85633419,1065.854726
7.7100,-8.384455949,64.15944403,1067.073515
7.7150,-9.536398501,64.4622571,1068.295604
7.7200,-10.68375139,64.76348729,1069.520196
7.7250,-11.82328238,65.06439803,1070.7466
7.7300,-12.95596241,65.36450903,1071.97514
7.7350,-14.07937627,65.66404132,1073.204917
7.7400,-15.19456482,65.96204381,1074.436052
7.7450,-16.30098189,66.25916225,1075.668964
7.7500,-17.39881947,66.55373716,1076.903504
7.7550,-18.48737267,66.84471646,1078.138901
7.7600,-19.56649464,67.13353103,1079.375767
7.7650,-20.634089,67.41965443,1080.613644
7.7700,-21.69111932,67.70361983,1081.853433
7.7750,-22.73656486,67.98443913,1083.094766
7.7800,-23.77050562,68.26242913,1084.338587
7.7850,-24.79242155,68.53784042,1085.585031
7.7900,-25.80273784,68.81098274,1086.834544
7.7950,-26.80126183,69.08112412,1088.087498
7.8000,-27.7881108,69.34820315,1089.343901
7.8050,-28.76379733,69.61021979,1090.604006
7.8100,-29.72946708,69.86759293,1091.868504
7.8150,-30.68580955,70.12139976,1093.137848
7.8200,-31.63332134,70.37104261,1094.412547
7.8250,-32.57217023,70.61587324,1095.692718
7.8300,-33.5018966,70.85610116,1096.978632
7.8350,-34.4239442,71.09104472,1098.270304
7.8400,-35.33956957,71.32125457,1099.568946
7.8450,-36.24745048,71.54695178,1100.874374
7.8500,-37.15061066,71.76827456,1102.187892
7.8550,-38.04692291,71.9844172,1103.509094
7.8600,-38.93787199,72.19612742,1104.838884
7.8650,-39.82448715,72.40345354,1106.177671
7.8700,-40.70650786,72.6057918,1107.524937
7.8750,-41.58495438,72.80320085,1108.881727
7.8800,-42.46059558,72.99606177,1110.247861
7.8850,-43.33383183,73.18473491,1111.623433
7.8900,-44.20409829,73.36770288,1113.008569
7.8950,-45.07278325,73.54578967,1114.404032
7.9000,-45.9400867,73.72018887,1115.809741
7.9050,-46.80543177,73.89283294,1117.226289
7.9100,-47.66929785,74.06259029,1118.654093
7.9150,-48.53072167,74.23263692,1120.092571
7.9200,-49.38915414,74.40169282,1121.542143
7.9250,-50.24528505,74.57143341,1123.002489
7.9300,-51.09900006,74.74126821,1124.473769
7.9350,-51.94986893,74.91172113,1125.956279
7.9400,-52.79935511,75.08169169,1127.450121
7.9450,-53.64735382,75.25308451,1128.955646
7.9500,-54.4943681,75.424005,1130.472084
7.9550,-55.34003322,75.59457923,1132.000375
7.9600,-56.18489141,75.76542133,1133.540679
7.9650,-57.02817196,75.93641368,1135.092544
7.9700,-57.86971726,76.10666848,1136.655662
7.9750,-58.70927941,76.27725256,1138.230139
7.9800,-59.54584598,76.44714088,1139.816829
7.9850,-60.37930735,76.61691275,1141.416539
7.9900,-61.20986202,76.78420154,1143.027836
7.9950,-62.03871815,76.95023584,1144.65155
8.0000,-62.86611162,77.11402653,1146.288031
8.0050,-63.69054938,77.27472637,1147.936446
8.0100,-64.51214782,77.43265369,1149.5971
8.0150,-65.33027221,77.58778606,1151.268629
8.0200,-66.14508357,77.74029696,1152.951019
8.0250,-66.95783768,77.88865465,1154.643167
8.0300,-67.76660715,78.03395676,1156.344943
8.0350,-68.57331302,78.17490347,1158.056505
8.0400,-69.37767269,78.31288939,1159.777585
8.0450,-70.17905034,78.44686291,1161.506808
8.0500,-70.97581415,78.57829933,1163.24376
8.0550,-71.76756079,78.70762944,1164.989147
8.0600,-72.55342291,78.83590074,1166.742039
8.0650,-73.33488066,78.96308692,1168.502887
8.0700,-74.11027998,79.08862471,1170.270405
8.0750,-74.87916996,79.21313782,1172.04478
8.0800,-75.64232404,79.33703996,1173.826531
8.0850,-76.3990342,79.45946132,1175.614655
8.0900,-77.1484477,79.58127745,1177.409456
8.0950,-77.88962788,79.7016514,1179.210302
8.1000,-78.62187063,79.82225876,1181.016698
8.1050,-79.34465513,79.94189728,1182.829414
8.1100,-80.05817934,80.06124673,1184.648107
8.1150,-80.76172197,80.17933907,1186.473226
8.1200,-81.45431217,80.29718947,1188.304141
8.1250,-82.13628834,80.41491505,1190.139987
8.1300,-82.80826047,80.53364968,1191.980417
8.1350,-83.46982718,80.65438569,1193.825689
8.1400,-84.12030101,80.77706554,1195.675464
8.1450,-84.76232655,80.90053802,1197.530016
8.1500,-85.39423551,81.02451743,1199.38771
8.1550,-86.01830661,81.14970729,1201.248939
8.1600,-86.63382165,81.27553935,1203.112873
8.1650,-87.24033366,81.40216543,1204.978704
8.1700,-87.83764411,81.52941864,1206.846515
8.1750,-88.42691583,81.65834172,1208.715468
8.1800,-89.00649588,81.78933415,1210.585563
8.1850,-89.57748365,81.92296492,1212.456667
8.1900,-90.14029995,82.05987655,1214.32849
8.1950,-90.69504832,82.20048054,1216.200961
8.2000,-91.2403302,82.34377466,1218.073773
8.2050,-91.77771374,82.49116665,1219.947193
8.2100,-92.30564035,82.64414256,1221.820181
8.2150,-92.82580124,82.8009152,1223.691561
8.2200,-93.33901163,82.9619315,1225.563573
8.2250,-93.84518112,83.12629461,1227.434243
8.2300,-94.34481223,83.29492351,1229.301577
8.2350,-94.83844571,83.46731912,1231.164333
8.2400,-95.32634492,83.64427877,1233.023141
8.2450,-95.81028176,83.82432586,1234.877625
8.2500,-96.28888352,84.00992619,1236.726632
8.2550,-96.76534042,84.20070983,1238.569869
8.2600,-97.23948197,84.39578309,1240.406018
8.2650,-97.71203512,84.59297387,1242.234846
8.2700,-98.18466365,84.79330463,1244.056647
8.2750,-98.65712232,84.99602596,1245.870084
8.2800,-99.12964316,85.20085712,1247.673915
8.2850,-99.60316273,85.40815591,1249.468695
8.2900,-100.0765146,85.61723064,1251.253677
8.2950,-100.5491162,85.82737577,1253.028609
8.3000,-101.019884,86.03850868,1254.792487
8.3050,-101.4883046,86.24945782,1256.545113
8.3100,-101.9522918,86.45950467,1258.285313
8.3150,-102.411792,86.66797392,1260.014492
8.3200,-102.8645412,86.87320536,1261.731983
8.3250,-103.3090203,87.07538362,1263.438178
8.3300,-103.7443544,87.27292942,1265.132878
8.3350,-104.1683688,87.46463708,1266.816456
8.3400,-104.579655,87.6493971,1268.489152
8.3450,-104.975481,87.82800338,1270.150684
8.3500,-105.3554958,87.99832953,1271.8018
8.3550,-105.7185535,88.1590979,1273.441789
8.3600,-106.0630501,88.31053891,1275.070951
8.3650,-106.3871361,88.45132307,1276.688204
8.3700,-106.6915988,88.58099379,1278.29493
8.3750,-106.976358,88.69849847,1279.89021
8.3800,-107.2409787,88.80167242,1281.473823
8.3850,-107.4853629,88.8922726,1283.046364
8.3900,-107.7100736,88.96957307,1284.607807
8.3950,-107.9146105,89.03457139,1286.159563
8.4000,-108.0999524,89.08692049,1287.702146
8.4050,-108.2664565,89.12791648,1289.234737
8.4100,-108.4150916,89.15625771,1290.758196
8.4150,-108.5459834,89.17580334,1292.273017
8.4200,-108.6598743,89.1852452,1293.779775
8.4250,-108.7563961,89.18604213,1295.278568
8.4300,-108.8355124,89.17659755,1296.770569
8.4350,-108.8986386,89.15694025,1298.256197
8.4400,-108.9471972,89.12725034,1299.735458
8.4450,-108.9800011,89.08815015,1301.209366
8.4500,-108.9986739,89.03919833,1302.678736
8.4550,-109.0037034,88.98134259,1304.143885
8.4600,-108.9964507,88.91318554,1305.606112
8.4650,-108.9781006,88.83619708,1307.067044
8.4700,-108.9490509,88.75157936,1308.526896
8.4750,-108.9096364,88.65739045,1309.987187
8.4800,-108.8599366,88.5565298,1311.448137
8.4850,-108.8000556,88.44836764,1312.909792
8.4900,-108.7314256,88.33412955,1314.372921
8.4950,-108.6547789,88.2143413,1315.838265
8.5000,-108.5727329,88.08989947,1317.306222
8.5050,-108.4849567,87.9603869,1318.776155
8.5100,-108.3946294,87.82700189,1320.248602
8.5150,-108.3009972,87.69129477,1321.726053
8.5200,-108.2053275,87.5540213,1323.205197
8.5250,-108.1086221,87.41589842,1324.688736
8.5300,-108.0116469,87.27775993,1326.178099
8.5350,-107.9158224,87.14022578,1327.673991
8.5400,-107.8220571,87.00485603,1329.176147
8.5450,-107.7298862,86.87349996,1330.684338
8.5500,-107.640147,86.7463909,1332.199495
8.5550,-107.552568,86.62487003,1333.721323
8.5600,-107.4678357,86.50863711,1335.250138
8.5650,-107.3850916,86.40006143,1336.785826
8.5700,-107.3042222,86.29820847,1338.327754
8.5750,-107.2255897,86.20422115,1339.876338
8.5800,-107.1506534,86.11704039,1341.431825
8.5850,-107.0785172,86.03453559,1342.993017
8.5900,-107.0096921,85.95755762,1344.560649
8.5950,-106.9434734,85.88596414,1346.133397
8.6000,-106.879979,85.81819769,1347.711552
8.6050,-106.8195382,85.75393925,1349.294804
8.6100,-106.7618293,85.69285743,1350.883134
8.6150,-106.7066791,85.63481651,1352.475163
8.6200,-106.6532365,85.58000957,1354.069978
8.6250,-106.601262,85.527065,1355.666761
8.6300,-106.5517386,85.47634133,1357.264711
8.6350,-106.5038936,85.42970068,1358.863245
8.6400,-106.4571823,85.38656576,1360.460938
8.6450,-106.4136527,85.34427318,1362.05805
8.6500,-106.372465,85.30379638,1363.653254
8.6550,-106.3342493,85.2654857,1365.245742
8.6600,-106.2988458,85.22714763,1366.835473
8.6650,-106.2657015,85.18985183,1368.421759
8.6700,-106.2339481,85.15418525,1370.003167
8.6750,-106.202416,85.1214698,1371.580018
8.6800,-106.1703398,85.09310358,1373.151352
8.6850,-106.1377713,85.06729924,1374.717826
8.6900,-106.1022592,85.04566144,1376.277693
8.6950,-106.0654657,85.02905298,1377.831292
8.7000,-106.0243459,85.01708845,1379.378159
8.7050,-105.979749,85.00955134,1380.918776
8.7100,-105.9299678,85.00770557,1382.451915
8.7150,-105.8752443,85.00880886,1383.976965
8.7200,-105.8151688,85.01348646,1385.494569
8.7250,-105.7492116,85.0208019,1387.004045
8.7300,-105.6778446,85.03136575,1388.504902
8.7350,-105.5994148,85.04504931,1389.995353
8.7400,-105.5140385,85.05974777,1391.476647
8.7450,-105.4217856,85.07671505,1392.947025
8.7500,-105.3219971,85.09736455,1394.406625
8.7550,-105.2154719,85.11973428,1395.855151
8.7600,-105.1015525,85.14477063,1397.292167
8.7650,-104.9810511,85.17202487,1398.716636
8.7700,-104.853078,85.20049883,1400.129528
8.7750,-104.7182791,85.23212295,1401.529608
8.7800,-104.5777278,85.26528071,1402.917669
8.7850,-104.4313854,85.29910259,1404.292972
8.7900,-104.2778888,85.33336416,1405.654919
8.7950,-104.11817,85.36900053,1407.003698
8.8000,-103.9518702,85.40517659,1408.339343
8.8050,-103.7798151,85.44114171,1409.661859
8.8100,-103.6002929,85.47672108,1410.971091
8.8150,-103.4141949,85.51200097,1412.266065
8.8200,-103.2218181,85.54774081,1413.549247
8.8250,-103.0228142,85.58383079,1414.819429
8.8300,-102.8161611,85.62180286,1416.076642
8.8350,-102.6020169,85.66098891,1417.320954
8.8400,-102.380985,85.70046094,1418.55206
8.8450,-102.1528115,85.74056857,1419.770494
8.8500,-101.9174039,85.77950619,1420.976062
8.8550,-101.6741171,85.81718507,1422.168741
8.8600,-101.4236812,85.85351071,1423.349262
8.8650,-101.1658372,85.88857533,1424.51763
8.8700,-100.9007005,85.92215784,1425.674197
8.8750,-100.6267988,85.95306829,1426.818917
8.8800,-100.344441,85.98196479,1427.952415
8.8850,-100.0553791,86.00811915,1429.075238
8.8900,-99.75848916,86.03240248,1430.187288
8.8950,-99.45482933,86.05343376,1431.289688
8.9000,-99.14432648,86.07206187,1432.382081
8.9050,-98.82667184,86.08836645,1433.465364
8.9100,-98.50457406,86.09995258,1434.539507
8.9150,-98.17670089,86.10741915,1435.605556
8.9200,-97.84471537,86.1116504,1436.664166
8.9250,-97.50974454,86.11236865,1437.716161
8.9300,-97.17090443,86.11012049,1438.761726
8.9350,-96.82733775,86.10285443,1439.800262
8.9400,-96.47936947,86.09181106,1440.832556
8.9450,-96.12505223,86.0788368,1441.85858
8.9500,-95.76523932,86.06417354,1442.878934
8.9550,-95.39927578,86.04670353,1443.894265
8.9600,-95.02723478,86.0272771,1444.904138
8.9650,-94.65022123,86.00568907,1445.909858
8.9700,-94.26772762,85.98073993,1446.911781
8.9750,-93.87903408,85.95267637,1447.910068
8.9800,-93.48501251,85.9209392,1448.904813
8.9850,-93.08572456,85.88530474,1449.895689
8.9900,-92.68150348,85.84521044,1450.883532
8.9950,-92.27151724,85.80001184,1451.867879
9.0000,-91.85632105,85.7496449,1452.8491
9.0050,-91.43533999,85.69271296,1453.826713
9.0100,-91.00811642,85.62938007,1454.801527
9.0150,-90.57516853,85.56017377,1455.773369
9.0200,-90.13730689,85.48376965,1456.742396
9.0250,-89.69555488,85.40145143,1457.709553
9.0300,-89.25034306,85.31369445,1458.675368
9.0350,-88.80275015,85.21916845,1459.640197
9.0400,-88.35286306,85.11930311,1460.6035
9.0450,-87.90059532,85.01318922,1461.565592
9.0500,-87.44695654,84.90076241,1462.526844
9.0550,-86.99205592,84.78243549,1463.486779
9.0600,-86.53638667,84.66040943,1464.446141
9.0650,-86.08014085,84.53466059,1465.404851
9.0700,-85.6259659,84.40681458,1466.362702
9.0750,-85.17282111,84.27671099,1467.319117
9.0800,-84.72079098,84.14578507,1468.273566
9.0850,-84.27081564,84.01568716,1469.226535
9.0900,-83.82287083,83.88766071,1470.178122
9.0950,-83.37848105,83.7604315,1471.127084
9.1000,-82.9368488,83.63609144,1472.072822
9.1050,-82.49973253,83.51659388,1473.015457
9.1100,-82.06565586,83.40264752,1473.954348
9.1150,-81.63447255,83.29507954,1474.889632
9.1200,-81.20710012,83.19446175,1475.819563
9.1250,-80.78150541,83.10225699,1476.743893
9.1300,-80.35869139,83.01780182,1477.661968
9.1350,-79.93715795,82.94227208,1478.572497
9.1400,-79.51608405,82.87531894,1479.475382
9.1450,-79.09752606,82.81785856,1480.369518
9.1500,-78.68039605,82.77143243,1481.254322
9.1550,-78.26421514,82.73535132,1482.130162
9.1600,-77.84872923,82.71050087,1482.99589
9.1650,-77.43409674,82.69641435,1483.85115
9.1700,-77.01933344,82.69368196,1484.695399
9.1750,-76.60428271,82.70125829,1485.527963
9.1800,-76.18942312,82.71740888,1486.348497
9.1850,-75.77257221,82.74290559,1487.156525
9.1900,-75.3553731,82.77613746,1487.951989
9.1950,-74.93875416,82.81651056,1488.734785
9.2000,-74.52284185,82.86217317,1489.504661
9.2050,-74.10795495,82.91217207,1490.261449
9.2100,-73.69268568,82.96782891,1491.005674
9.2150,-73.27814933,83.02612536,1491.736558
9.2200,-72.8638731,83.08581457,1492.453982
9.2250,-72.44803579,83.14614388,1493.157849
9.2300,-72.0321047,83.20495833,1493.848022
9.2350,-71.61717627,83.2633703,1494.525278
9.2400,-71.20366807,83.31903107,1495.190055
9.2450,-70.79280432,83.36982106,1495.841791
9.2500,-70.38468242,83.41571377,1496.480987
9.2550,-69.97823843,83.45772774,1497.108053
9.2600,-69.57419936,83.49359751,1497.722488
9.2650,-69.1704214,83.52364795,1498.324855
9.2700,-68.76711757,83.54788725,1498.914332
9.2750,-68.36506096,83.56583908,1499.492187
9.2800,-67.96283711,83.57727359,1500.058357
9.2850,-67.5605183,83.58248802,1500.613257
9.2900,-67.15843441,83.58101546,1501.158652
9.2950,-66.75528774,83.57442233,1501.694254
9.3000,-66.35212819,83.5618072,1502.220792
9.3050,-65.94769239,83.54530196,1502.739818
9.3100,-65.54269779,83.52451242,1503.250759
9.3150,-65.13659865,83.49786093,1503.754763
9.3200,-64.72905789,83.4682592,1504.252801
9.3250,-64.3200114,83.43278155,1504.745188
9.3300,-63.90962928,83.39229602,1505.23155
9.3350,-63.49823997,83.34685532,1505.713156
9.3400,-63.08508887,83.29819452,1506.190343
9.3450,-62.67281692,83.24695153,1506.664372
9.3500,-62.26111794,83.19234667,1507.13523
9.3550,-61.85006476,83.13593108,1507.603995
9.3600,-61.44083383,83.07722308,1508.070526
9.3650,-61.03324907,83.01651575,1508.534874
9.3700,-60.6268472,82.95314056,1508.99686
9.3750,-60.22348582,82.8879586,1509.457909
9.3800,-59.82290222,82.81967694,1509.917918
9.3850,-59.4253433,82.7502807,1510.377711
9.3900,-59.03173101,82.67917578,1510.837871
9.3950,-58.64016908,82.60795065,1511.298005
9.4000,-58.252002,82.53880569,1511.759297
9.4050,-57.86455366,82.47138901,1512.220973
9.4100,-57.4808267,82.4061115,1512.684009
9.4150,-57.09985913,82.34330272,1513.148581
9.4200,-56.72095158,82.28391469,1513.614197
9.4250,-56.34590185,82.22735348,1514.081784
9.4300,-55.97603293,82.17477143,1514.551636
9.4350,-55.61093741,82.12613789,1515.024108
9.4400,-55.2510876,82.08282265,1515.498559
9.4450,-54.89550548,82.04450455,1515.974978
9.4500,-54.54484744,82.01211228,1516.453698
9.4550,-54.19801427,81.98571281,1516.933323
9.4600,-53.85442246,81.96552735,1517.413512
9.4650,-53.51447501,81.95122959,1517.893461
9.4700,-53.17932438,81.94256886,1518.372393
9.4750,-52.85072184,81.94085689,1518.851033
9.4800,-52.5276542,81.94461914,1519.327291
9.4850,-52.2107613,81.95301455,1519.801148
9.4900,-51.90083605,81.96525924,1520.271583
9.4950,-51.59627694,81.98118941,1520.736983
9.5000,-51.2968074,82.00113907,1521.196958
9.5050,-51.00310778,82.02385957,1521.649921
9.5100,-50.71531688,82.04808497,1522.095113
9.5150,-50.43426683,82.07356338,1522.532626
9.5200,-50.1593032,82.10008592,1522.961298
9.5250,-49.89137599,82.12711304,1523.381109
9.5300,-49.62803468,82.15556348,1523.791018
9.5350,-49.37024071,82.18336337,1524.190543
9.5400,-49.11696143,82.21030152,1524.578579
9.5450,-48.86722459,82.23665906,1524.955463
9.5500,-48.62001826,82.26145882,1525.320248
9.5550,-48.37597676,82.283714,1525.672282
9.5600,-48.13408828,82.30387745,1526.012105
9.5650,-47.89423985,82.32259195,1526.339173
9.5700,-47.65511467,82.33896147,1526.654218
9.5750,-47.41636758,82.35073604,1526.956643
9.5800,-47.17637733,82.35865576,1527.246643
9.5850,-46.93441176,82.36269896,1527.524348
9.5900,-46.68997779,82.36322095,1527.789382
9.5950,-46.44263787,82.35872111,1528.042319
9.6000,-46.19260423,82.34915582,1528.283945
9.6050,-45.93967489,82.33432465,1528.514092
9.6100,-45.68445872,82.31373746,1528.733969
9.6150,-45.42636713,82.28892554,1528.94416
9.6200,-45.1680547,82.2568681,1529.144793
9.6250,-44.90959599,82.21985076,1529.336285
9.6300,-44.65199924,82.17612054,1529.520208
9.6350,-44.39656534,82.12695639,1529.696665
9.6400,-44.14509013,82.07239982,1529.867203
9.6450,-43.89683825,82.0110224,1530.031584
9.6500,-43.65360782,81.94558131,1530.191086
9.6550,-43.41702138,81.87642157,1530.346507
9.6600,-43.18539235,81.8041103,1530.498569
9.6650,-42.95941401,81.72978089,1530.647559
9.6700,-42.73882263,81.65538772,1530.794893
9.6750,-42.5236338,81.58134313,1530.940722
9.6800,-42.31589427,81.51003957,1531.086259
9.6850,-42.11441623,81.44201567,1531.231466
9.6900,-41.91907161,81.37820882,1531.376693
9.6950,-41.73061698,81.3206382,1531.523002
9.7000,-41.54763359,81.26808892,1531.669852
9.7050,-41.37127156,81.22089523,1531.818442
9.7100,-41.19984916,81.18065473,1531.968677
9.7150,-41.03295273,81.14761779,1532.119799
9.7200,-40.87134836,81.12180348,1532.273298
9.7250,-40.71360192,81.10310671,1532.428583
9.7300,-40.55897543,81.09132837,1532.585792
9.7350,-40.40739662,81.08705693,1532.744476
9.7400,-40.25888291,81.08896776,1532.904993
9.7450,-40.11200184,81.09752261,1533.066733
9.7500,-39.96821998,81.11063801,1533.229448
9.7550,-39.8275544,81.12855997,1533.393092
9.7600,-39.68982099,81.14883423,1533.556585
9.7650,-39.55573659,81.17166295,1533.720569
9.7700,-39.4245396,81.19481855,1533.883525
9.7750,-39.29601002,81.21542879,1534.045341
9.7800,-39.17086973,81.23429769,1534.205287
9.7850,-39.05060902,81.24917881,1534.362745
9.7900,-38.93394067,81.25927319,1534.517354
9.7950,-38.82138856,81.2626042,1534.668561
9.8000,-38.7142046,81.25880908,1534.815785
9.8050,-38.61329403,81.2467563,1534.959411
9.8100,-38.51755637,81.22515165,1535.097966
9.8150,-38.4277265,81.19353508,1535.231284
9.8200,-38.34371294,81.15198134,1535.359482
9.8250,-38.26664896,81.0998522,1535.481401
9.8300,-38.19740129,81.0364374,1535.597556
9.8350,-38.13473627,80.96239224,1535.707417
9.8400,-38.08055341,80.87695912,1535.811333
9.8450,-38.03540951,80.78056754,1535.908432
9.8500,-37.99928003,80.67455561,1535.999299
9.8550,-37.97139513,80.55862693,1536.083253
9.8600,-37.9510091,80.43510083,1536.160031
9.8650,-37.94051406,80.30233254,1536.230192
9.8700,-37.9395562,80.16281689,1536.293045
9.8750,-37.94706844,80.01943675,1536.348906
9.8800,-37.96534495,79.87196799,1536.397905
9.8850,-37.99282275,79.72207148,1536.439681
9.8900,-38.02857924,79.57060892,1536.474044
9.8950,-38.07406408,79.4180011,1536.5013
9.9000,-38.1287566,79.26641618,1536.521033
9.9050,-38.19288728,79.11633749,1536.533554
9.9100,-38.2657392,78.96824538,1536.53894
9.9150,-38.34777581,78.82327238,1536.536592
9.9200,-38.43731543,78.68304484,1536.527042
9.9250,-38.53484375,78.54921898,1536.510639
9.9300,-38.64084383,78.4218599,1536.486761
9.9350,-38.75421204,78.30156263,1536.456507
9.9400,-38.87611349,78.18792889,1536.419211
9.9450,-39.00636467,78.08211798,1536.375737
9.9500,-39.14401688,77.98437662,1536.325681
9.9550,-39.28908027,77.89437782,1536.269252
9.9600,-39.44345433,77.81282739,1536.206095
9.9650,-39.6065204,77.73967725,1536.136826
9.9700,-39.7786765,77.67489677,1536.061542
9.9750,-39.96006679,77.61830424,1535.980266
9.9800,-40.14874875,77.57028703,1535.89256
9.9850,-40.34598023,77.53087607,1535.798944
9.9900,-40.55129597,77.49926977,1535.69891
9.9950,-40.76359494,77.47497756,1535.592928
10.0000,-40.98324924,77.45750023,1535.481143
10.0050,-41.209754,77.44679138,1535.363218
10.0100,-41.44317737,77.44245384,1535.239195
10.0150,-41.68320127,77.44344973,1535.109077
10.0200,-41.92873594,77.449348,1534.972383
10.0250,-42.18007142,77.46166028,1534.829161
10.0300,-42.43630799,77.47970425,1534.679556
10.0350,-42.69700316,77.5022844,1534.523669
10.0400,-42.96121748,77.53076667,1534.361529
10.0450,-43.22964213,77.56265298,1534.192909
10.0500,-43.50097261,77.59863417,1534.017577
10.0550,-43.77643303,77.63832456,1533.836458
10.0600,-44.05585396,77.68183724,1533.649551
10.0650,-44.33934488,77.72844255,1533.456361
10.0700,-44.6260977,77.77825524,1533.257974
10.0750,-44.91679417,77.83133825,1533.053311
10.0800,-45.21186149,77.88762237,1532.843687
10.0850,-45.50998794,77.94799817,1532.629039
10.0900,-45.81199302,78.01166443,1532.40874
10.0950,-46.11829054,78.07959352,1532.18322
10.1000,-46.42786114,78.15039483,1531.953269
10.1050,-46.73939275,78.22525761,1531.718332
10.1100,-47.05320315,78.30462389,1531.479066
10.1150,-47.36857048,78.38889182,1531.235055
10.1200,-47.6869342,78.47656001,1530.986354
10.1250,-48.00675232,78.56879311,1530.734009
10.1300,-48.32877063,78.66495664,1530.477173
10.1350,-48.65368845,78.76451289,1530.216165
10.1400,-48.98094171,78.86926332,1529.951027
10.1450,-49.31075024,78.97870024,1529.68227
10.1500,-49.64333815,79.09238326,1529.409606
10.1550,-49.97947161,79.21186262,1529.133744
10.1600,-50.31951675,79.336044,1528.854937
10.1650,-50.66176768,79.46579831,1528.572314
10.1700,-51.00696287,79.60141164,1528.286749
10.1750,-51.35505069,79.74324431,1527.997206
10.1800,-51.70556883,79.89156474,1527.704773
10.1850,-52.05863695,80.04598073,1527.409312
10.1900,-52.41539601,80.20666241,1527.110091
10.1950,-52.77531538,80.37434056,1526.807641
10.2000,-53.13780509,80.54877876,1526.501858
10.2050,-53.5034927,80.73056515,1526.192491
10.2100,-53.87214658,80.92036476,1525.879642
10.2150,-54.24390588,81.11722571,1525.563536
10.2200,-54.61867884,81.32287239,1525.24344
10.2250,-54.99619621,81.53548044,1524.920237
10.2300,-55.37621124,81.75797236,1524.594747
10.2350,-55.75844155,81.98909601,1524.265631
10.2400,-56.14191824,82.22999965,1523.933879
10.2450,-56.5271595,82.4813159,1523.59936
10.2500,-56.91410513,82.74325272,1523.261644
10.2550,-57.30248809,83.01629962,1522.920747
10.2600,-57.69194781,83.29920673,1522.577366
10.2650,-58.08252627,83.59302077,1522.231024
10.2700,-58.47367724,83.8968273,1521.881314
10.2750,-58.86492053,84.21143769,1521.527969
10.2800,-59.25801235,84.53676069,1521.171787
10.2850,-59.65073003,84.871595,1520.811991
10.2900,-60.04369911,85.21662205,1520.448828
10.2950,-60.43647453,85.57083919,1520.081445
10.3000,-60.82860015,85.93590885,1519.710015
10.3050,-61.22016504,86.31040861,1519.334143
10.3100,-61.61122917,86.69315149,1518.953244
10.3150,-62.0010775,87.08417267,1518.567574
10.3200,-62.38926397,87.48341374,1518.175619
10.3250,-62.77592669,87.8890219,1517.777486
10.3300,-63.16024164,88.30103359,1517.372748
10.3350,-63.54334075,88.71918549,1516.960706
10.3400,-63.92511775,89.14078808,1516.541101
10.3450,-64.30452464,89.56675155,1516.113843
10.3500,-64.68154105,89.99555192,1515.678756
10.3550,-65.05572334,90.42612961,1515.235029
10.3600,-65.42799734,90.85936238,1514.782817
10.3650,-65.79875859,91.29363545,1514.322256
10.3700,-66.16835036,91.72943285,1513.85373
10.3750,-66.53657413,92.16630538,1513.376632
10.3800,-66.90315262,92.60396543,1512.890366
10.3850,-67.26806642,93.04049853,1512.39495
10.3900,-67.63195576,93.47684867,1511.89127
10.3950,-67.99461976,93.91244878,1511.379152
10.4000,-68.35602675,94.34692581,1510.858363
10.4050,-68.717363,94.78110719,1510.329637
10.4100,-69.0790922,95.21399022,1509.792667
10.4150,-69.44134351,95.64428453,1509.24751
10.4200,-69.80410081,96.07289151,1508.694735
10.4250,-70.16827656,96.49883669,1508.133504
10.4300,-70.53347717,96.92238028,1507.564787
10.4350,-70.89985289,97.34368272,1506.98891
10.4400,-71.26621461,97.76281745,1506.404854
10.4450,-71.63289684,98.17870055,1505.813144
10.4500,-71.99989388,98.59091636,1505.213379
10.4550,-72.36695521,99.0001201,1504.606029
10.4600,-72.73450532,99.40526079,1503.990563
10.4650,-73.10213,99.80630527,1503.367463
10.4700,-73.46950408,100.2031889,1502.735772
10.4750,-73.83724029,100.5950365,1502.096223
10.4800,-74.2058684,100.9814964,1501.448302
10.4850,-74.57548639,101.3625294,1500.791698
10.4900,-74.94706747,101.737404,1500.127394
10.4950,-75.31999618,102.1055214,1499.45454
10.5000,-75.69515275,102.467236,1498.773868
10.5050,-76.0715037,102.8218833,1498.085263
10.5100,-76.45137778,103.1693388,1497.388908
10.5150,-76.83368211,103.5105243,1496.685129
10.5200,-77.22012918,103.8442818,1495.974128
10.5250,-77.61083412,104.1708875,1495.25558
10.5300,-78.00526868,104.4889002,1494.52911
10.5350,-78.40433464,104.7993601,1493.795557
10.5400,-78.80759919,105.1014535,1493.053981
10.5450,-79.21531403,105.3956189,1492.304491
10.5500,-79.62745704,105.6805594,1491.547471
10.5550,-80.04331802,105.9565594,1490.783141
10.5600,-80.46273338,106.2254261,1490.010505
10.5650,-80.88546419,106.4868017,1489.230682
10.5700,-81.31199719,106.7417015,1488.443011
10.5750,-81.74048082,106.9904064,1487.647522
10.5800,-82.16961044,107.2318345,1486.843393
10.5850,-82.60136904,107.4661213,1486.0305
10.5900,-83.03316794,107.6934007,1485.208151
10.5950,-83.46561468,107.9143948,1484.376261
10.6000,-83.89917031,108.1271748,1483.53428
10.6050,-84.33286784,108.3337477,1482.68217
10.6100,-84.76612125,108.5337922,1481.820164
10.6150,-85.19974713,108.7286999,1480.948103
10.6200,-85.63330734,108.9180475,1480.066607
10.6250,-86.06632726,109.1022937,1479.175283
10.6300,-86.49852255,109.2810234,1478.274253
10.6350,-86.92990467,109.4559142,1477.363293
10.6400,-87.35949808,109.6277521,1476.442018
10.6450,-87.78833443,109.7968046,1475.510264
10.6500,-88.21616019,109.9641303,1474.568226
10.6550,-88.64209125,110.1304505,1473.615348
10.6600,-89.06520887,110.2950049,1472.652399
10.6650,-89.4846862,110.4576992,1471.678698
10.6700,-89.90053265,110.6193718,1470.69384
10.6750,-90.31181142,110.7804325,1469.698363
10.6800,-90.71815606,110.9398322,1468.692963
10.6850,-91.12032137,111.0987258,1467.677057
10.6900,-91.51661115,111.2568123,1466.650515
10.6950,-91.90661281,111.4140401,1465.613684
10.7000,-92.29126669,111.5708433,1464.566294
10.7050,-92.6692526,111.7262656,1463.508273
10.7100,-93.0410252,111.8800765,1462.439899
10.7150,-93.40655514,112.0330679,1461.361079
10.7200,-93.76551637,112.1854264,1460.272492
10.7250,-94.11923475,112.3360692,1459.174713
10.7300,-94.46757934,112.4838204,1458.067668
10.7350,-94.80991651,112.6294616,1456.951586
10.7400,-95.14824408,112.7716919,1455.827249
10.7450,-95.48230857,112.9121387,1454.694674
10.7500,-95.81231263,113.0508192,1453.554637
10.7550,-96.13887412,113.1867977,1452.406832
10.7600,-96.46183139,113.3214046,1451.251179
10.7650,-96.78282883,113.4543048,1450.088259
10.7700,-97.10192714,113.5848503,1448.918231
10.7750,-97.41973377,113.7125106,1447.740662
10.7800,-97.73552627,113.8385742,1446.555536
10.7850,-98.05203239,113.9622738,1445.363394
10.7900,-98.36745088,114.0829537,1444.164685
10.7950,-98.6824077,114.2018464,1442.959628
10.8000,-98.996387,114.3193914,1441.747988
10.8050,-99.31060865,114.4350125,1440.529726
10.8100,-99.62341302,114.549797,1439.305148
10.8150,-99.93682132,114.6628816,1438.074821
10.8200,-100.2493941,114.774255,1436.838955
10.8250,-100.5606807,114.8851034,1435.597605
10.8300,-100.8695126,114.9956477,1434.351047
10.8350,-101.1768591,115.107447,1433.099552
10.8400,-101.4828411,115.2198036,1431.843432
10.8450,-101.7869815,115.3335939,1430.582447
10.8500,-102.0885136,115.4480875,1429.317029
10.8550,-102.3873641,115.5659717,1428.046832
10.8600,-102.684051,115.6858474,1426.771991
10.8650,-102.9775455,115.8084951,1425.492127
10.8700,-103.2676849,115.9344521,1424.208026
10.8750,-103.5548813,116.0625576,1422.919454
10.8800,-103.8385766,116.194134,1421.627068
10.8850,-104.1178836,116.3293315,1420.330291
10.8900,-104.3937043,116.4688939,1419.029971
10.8950,-104.6656408,116.6128622,1417.725848
10.9000,-104.9324021,116.7615582,1416.417102
10.9050,-105.1936437,116.9150698,1415.104253
10.9100,-105.4480577,117.0739064,1413.786383
10.9150,-105.6959899,117.2363968,1412.462912
10.9200,-105.9371753,117.4028055,1411.134188
10.9250,-106.1716921,117.573396,1409.799624
10.9300,-106.4002038,117.7467643,1408.459076
10.9350,-106.6212794,117.9211892,1407.113162
10.9400,-106.8355915,118.0983137,1405.761143
10.9450,-107.0423274,118.276032,1404.403677
10.9500,-107.240827,118.4546868,1403.040574
10.9550,-107.4319748,118.6333699,1401.67227
10.9600,-107.6159594,118.8122057,1400.297495
10.9650,-107.7923562,118.9914073,1398.916993
10.9700,-107.96195,119.1694344,1397.531044
10.9750,-108.1256159,119.3464911,1396.139043
10.9800,-108.2831846,119.5219657,1394.741134
10.9850,-108.4342342,119.6959774,1393.336914
10.9900,-108.578381,119.8684292,1391.926569
10.9950,-108.7168293,120.0388958,1390.509847
11.0000,-108.8491457,120.2069334,1389.08716
11.0050,-108.9775804,120.3706898,1387.658882
11.0100,-109.1017822,120.5306882,1386.225177
11.0150,-109.222752,120.6860931,1384.785731
11.0200,-109.3416068,120.8351031,1383.340175
11.0250,-109.4574879,120.9794537,1381.888002
11.0300,-109.5720479,121.1190517,1380.429802
11.0350,-109.6843458,121.2526615,1378.964981
11.0400,-109.7941103,121.3817013,1377.494434
11.0450,-109.9016174,121.5059639,1376.017602
11.0500,-110.0079361,121.6244704,1374.534241
11.0550,-110.1131954,121.7375257,1373.043914
11.0600,-110.2169962,121.8452321,1371.546817
11.0650,-110.319137,121.9478804,1370.042412
11.0700,-110.4202457,122.0460023,1368.531515
11.0750,-110.5193577,122.1411134,1367.014513
11.0800,-110.616741,122.2324325,1365.490969
11.0850,-110.7100297,122.3206052,1363.961123
11.0900,-110.8006733,122.406531,1362.423674
11.0950,-110.8882698,122.4897975,1360.87847
11.1000,-110.9723599,122.5700096,1359.325527
11.1050,-111.0531963,122.6485433,1357.764823
11.1100,-111.1310834,122.7248393,1356.196296
11.1150,-111.2044896,122.8009053,1354.618545
11.1200,-111.2738459,122.8765676,1353.03191
11.1250,-111.3393612,122.950875,1351.43628
11.1300,-111.4026917,123.0248265,1349.830975
11.1350,-111.4627548,123.097098,1348.216348
11.1400,-111.5201375,123.1683554,1346.592254
11.1450,-111.5741025,123.2384661,1344.958584
11.1500,-111.6255744,123.3077109,1343.31552
11.1550,-111.6726899,123.3759774,1341.663514
11.1600,-111.7141714,123.4432456,1340.003045
11.1650,-111.7496374,123.5094525,1338.334586
11.1700,-111.7782316,123.5741861,1336.657285
11.1750,-111.8003124,123.6374011,1334.973092
11.1800,-111.8153668,123.6988504,1333.280986
11.1850,-111.8222607,123.7594146,1331.582801
11.1900,-111.8196803,123.8184613,1329.878797
11.1950,-111.8068432,123.8757285,1328.169058
11.2000,-111.7844555,123.9301942,1326.454987
11.2050,-111.7519938,123.9810635,1324.735872
11.2100,-111.7104874,124.0285404,1323.013351
11.2150,-111.6588273,124.0720973,1321.287665
11.2200,-111.5976934,124.110465,1319.559445
11.2250,-111.5261989,124.1429938,1317.829128
11.2300,-111.4434277,124.1698869,1316.096794
11.2350,-111.3518106,124.1891875,1314.363405
11.2400,-111.2508375,124.2009073,1312.629914
11.2450,-111.1423938,124.2047956,1310.896431
11.2500,-111.0272008,124.1994265,1309.163736
11.2550,-110.9054705,124.1847996,1307.4326
11.2600,-110.7782418,124.1607011,1305.703331
11.2650,-110.6464387,124.1251008,1303.976658
11.2700,-110.5095079,124.0788935,1302.252967
11.2750,-110.3676331,124.0211859,1300.53355
11.2800,-110.2197412,123.9532525,1298.818297
11.2850,-110.0661386,123.8746528,1297.108065
11.2900,-109.9073376,123.7837105,1295.402752
11.2950,-109.7443738,123.6800752,1293.703355
11.3000,-109.5760549,123.5638813,1292.008385
11.3050,-109.4015345,123.4356931,1290.318747
11.3100,-109.2214564,123.2959923,1288.634932
11.3150,-109.0361459,123.1438167,1286.957263
11.3200,-108.8447599,122.980639,1285.286198
11.3250,-108.6464742,122.8062579,1283.622293
11.3300,-108.442201,122.6202291,1281.964903
11.3350,-108.2319326,122.4246802,1280.314638
11.3400,-108.0164386,122.217416,1278.670022
11.3450,-107.7952915,121.9989719,1277.031298
11.3500,-107.5674467,121.7706678,1275.398009
11.3550,-107.3332918,121.5331043,1273.771445
11.3600,-107.0930529,121.2855664,1272.1511
11.3650,-106.846844,121.0290229,1270.535847
11.3700,-106.595205,120.7634672,1268.925141
11.3750,-106.3388005,120.4905019,1267.318901
11.3800,-106.0774673,120.2104085,1265.716198
11.3850,-105.8121162,119.9237879,1264.116695
11.3900,-105.5416895,119.6323156,1262.519843
11.3950,-105.2661524,119.3369685,1260.925437
11.4000,-104.9862254,119.038075,1259.333215
11.4050,-104.7016636,118.7353617,1257.743193
11.4100,-104.4118078,118.4305678,1256.153772
11.4150,-104.1175188,118.1229675,1254.565779
11.4200,-103.8176566,117.8150782,1252.97832
11.4250,-103.5122504,117.5084616,1251.391447
11.4300,-103.2011444,117.2020301,1249.804748
11.4350,-102.8832093,116.8972677,1248.218076
11.4400,-102.5566406,116.5958792,1246.630962
11.4450,-102.2226368,116.2971047,1245.043923
11.4500,-101.8804872,116.0018969,1243.456261
11.4550,-101.5308804,115.7089232,1241.868084
11.4600,-101.1743874,115.4193158,1240.279477
11.4650,-100.8121108,115.1321171,1238.689829
11.4700,-100.4433043,114.8480871,1237.099718
11.4750,-100.0672414,114.5670209,1235.507397
11.4800,-99.68410178,114.2900737,1233.914192
11.4850,-99.29375038,114.0158199,1232.319886
11.4900,-98.89626706,113.7434418,1230.724596
11.4950,-98.49235398,113.4727622,1229.130115
11.5000,-98.08164071,113.204848,1227.535891
11.5050,-97.66437134,112.9393051,1225.943092
11.5100,-97.23907414,112.6761413,1224.351101
11.5150,-96.80674461,112.4152168,1222.760189
11.5200,-96.36740165,112.1577043,1221.170086
11.5250,-95.92149142,111.9021985,1219.580995
11.5300,-95.47012326,111.647631,1217.992977
11.5350,-95.01145974,111.3969847,1216.405971
11.5400,-94.54741909,111.1476416,1214.82071
11.5450,-94.07572108,110.9003131,1213.236103
11.5500,-93.59616694,110.6553843,1211.652493
11.5550,-93.10782737,110.4129367,1210.070119
11.5600,-92.61068403,110.1717718,1208.489841
11.5650,-92.10484024,109.933882,1206.911584
11.5700,-91.58967115,109.6977735,1205.334685
11.5750,-91.0646519,109.4624826,1203.759617
11.5800,-90.53159545,109.2287249,1202.187444
11.5850,-89.98986482,108.9951454,1200.617829
11.5900,-89.44034436,108.7619806,1199.051158
11.5950,-88.88157874,108.5294824,1197.486938
11.6000,-88.31574456,108.2972293,1195.926012
11.6050,-87.74110248,108.0645758,1194.367606
11.6100,-87.15816565,107.8305195,1192.811872
11.6150,-86.5670608,107.5960466,1191.259011
11.6200,-85.96681721,107.3600184,1189.708055
11.6250,-85.359421,107.1216355,1188.158702
11.6300,-84.74392525,106.881245,1186.611275
11.6350,-84.12157634,106.6374025,1185.065014
11.6400,-83.49282228,106.3911599,1183.521242
11.6450,-82.85787312,106.1412147,1181.980354
11.6500,-82.21765199,105.8876995,1180.4427
11.6550,-81.57210168,105.6291116,1178.907316
11.6600,-80.92254895,105.3659598,1177.374209
11.6650,-80.26963399,105.0984578,1175.844548
11.6700,-79.61220746,104.8271491,1174.318135
11.6750,-78.95041331,104.549648,1172.794726
11.6800,-78.28311232,104.2685795,1171.274728
11.6850,-77.61128143,103.9822718,1169.757256
11.6900,-76.93465757,103.6920621,1168.242914
11.6950,-76.2534134,103.3969861,1166.731146
11.7000,-75.56726864,103.0984856,1165.222148
11.7050,-74.87591907,102.7957803,1163.715057
11.7100,-74.18000387,102.4887612,1162.210822
11.7150,-73.47954517,102.1774399,1160.70929
11.7200,-72.7739796,101.8614114,1159.210133
11.7250,-72.06359808,101.5410567,1157.713847
11.7300,-71.3472083,101.217357,1156.220927
11.7350,-70.62523086,100.8899385,1154.730487
11.7400,-69.89998845,100.55872,1153.243885
11.7450,-69.1689362,100.2248486,1151.760206
11.7500,-68.43358948,99.88882131,1150.280097
11.7550,-67.69262252,99.55071287,1148.803504
11.7600,-66.94568381,99.21066269,1147.32966
11.7650,-66.19165816,98.86879806,1145.859441
11.7700,-65.43193536,98.52530887,1144.393719
11.7750,-64.66759336,98.17953277,1142.933548
11.7800,-63.89829001,97.83078356,1141.478292
11.7850,-63.12461815,97.4789531,1140.028715
11.7900,-62.34746406,97.12468955,1138.584582
11.7950,-61.56538492,96.76718181,1137.145267
11.8000,-60.77941088,96.40678653,1135.711438
11.8050,-59.98947273,96.04211179,1134.282257
11.8100,-59.19692182,95.6724407,1132.858084
11.8150,-58.4006437,95.29860688,1131.439104
11.8200,-57.59984833,94.91872034,1130.026181
11.8250,-56.79499929,94.53382355,1128.619158
11.8300,-55.98436725,94.1454433,1127.21794
11.8350,-55.16991825,93.75045592,1125.82208
11.8400,-54.35093431,93.34893698,1124.43121
11.8450,-53.52897065,92.9408544,1123.045942
11.8500,-52.70286381,92.52714476,1121.665645
11.8550,-51.87430488,92.10493398,1120.289788
11.8600,-51.04348004,91.67500139,1118.918772
11.8650,-50.20848695,91.23650149,1117.551343
11.8700,-49.37039414,90.78922387,1116.187685
11.8750,-48.52958302,90.33425277,1114.827806
11.8800,-47.68409427,89.87206675,1113.470905
11.8850,-46.83485641,89.40291094,1112.117383
11.8900,-45.98093156,88.92817134,1110.767561
11.8950,-45.1230973,88.44676142,1109.422019
11.9000,-44.26041761,87.9589099,1108.081595
11.9050,-43.39501876,87.4654704,1106.746921
11.9100,-42.52664104,86.96567409,1105.417877
11.9150,-41.65513605,86.46010646,1104.095125
11.9200,-40.78301803,85.94810927,1102.780569
11.9250,-39.91072581,85.42998124,1101.474622
11.9300,-39.03687945,84.90673811,1100.177536
11.9350,-38.16230345,84.37746258,1098.889732
11.9400,-37.28643045,83.84321363,1097.610798
11.9450,-36.4098973,83.30648731,1096.341506
11.9500,-35.53244191,82.76477826,1095.081682
11.9550,-34.65459625,82.22053763,1093.832321
11.9600,-33.77656364,81.67328697,1092.594682
11.9650,-32.89791286,81.12419478,1091.369294
11.9700,-32.02025555,80.57338434,1090.156879
11.9750,-31.14352666,80.02223513,1088.958077
11.9800,-30.26945543,79.46975457,1087.772858
11.9850,-29.39661427,78.91889982,1086.602573
11.9900,-28.52570338,78.36721968,1085.446757
11.9950,-27.65642425,77.81689023,1084.306142
12.0000,-26.78860015,77.26672709,1083.180267
12.0050,-25.9234835,76.71863159,1082.070031
12.0100,-25.06069995,76.17166058,1080.974646
12.0150,-24.19996667,75.62664202,1079.893497
12.0200,-23.34358699,75.08366104,1078.82711
12.0250,-22.49001066,74.54320314,1077.774526
12.0300,-21.64000008,74.00597708,1076.735253
12.0350,-20.79376902,73.47352222,1075.709994
12.0400,-19.95034356,72.94533891,1074.697717
12.0450,-19.11265313,72.42059722,1073.699742
12.0500,-18.27968117,71.89885076,1072.715806
12.0550,-17.45337439,71.38119053,1071.745929
12.0600,-16.63630095,70.86698149,1070.791424
12.0650,-15.82871029,70.35604399,1069.851226
12.0700,-15.03071788,69.84777897,1068.924391
12.0750,-14.24241987,69.34301667,1068.010778
12.0800,-13.46316623,68.84238106,1067.110389
12.0850,-12.69261961,68.3463768,1066.222379
12.0900,-11.93014632,67.85446771,1065.346266
12.0950,-11.17668496,67.36793531,1064.481872
12.1000,-10.42996601,66.88577026,1063.628287
12.1050,-9.691813336,66.40929599,1062.786499
12.1100,-8.960151529,65.93881676,1061.955163
12.1150,-8.235531671,65.47309875,1061.133951
12.1200,-7.516898677,65.01202433,1060.321491
12.1250,-6.804301436,64.55422404,1059.517095
12.1300,-6.09676835,64.0991498,1058.719931
12.1350,-5.392702962,63.64719995,1057.929753
12.1400,-4.690573518,63.1975864,1057.145778
12.1450,-3.989863746,62.74810099,1056.367388
12.1500,-3.291749261,62.29586901,1055.594254
12.1550,-2.594240004,61.84220747,1054.825787
12.1600,-1.896926387,61.38653679,1054.061931
12.1650,-1.200887053,60.92884945,1053.303033
12.1700,-0.5043337949,60.46886243,1052.548691
12.1750,0.1929468774,60.00523561,1051.798526
12.1800,0.890245789,59.5370129,1051.052879
12.1850,1.58809789,59.06440196,1050.31222
12.1900,2.286383503,58.58629007,1049.576567
12.1950,2.985897158,58.10176998,1048.845669
12.2000,3.685328152,57.60991908,1048.119922
12.2050,4.385148053,57.10973697,1047.399305
12.2100,5.085793386,56.60129983,1046.683884
12.2150,5.786931939,56.08388023,1045.974013
12.2200,6.489091757,55.55751605,1045.269044
12.2250,7.19335274,55.02241093,1044.568926
12.2300,7.897734913,54.47716998,1043.873899
12.2350,8.603279314,53.92375788,1043.184043
12.2400,9.309873192,53.36181337,1042.499549
12.2450,10.01693578,52.79005965,1041.819995
12.2500,10.72577591,52.21197199,1041.144964
12.2550,11.43573323,51.62784096,1040.474273
12.2600,12.14883495,51.03785199,1039.806461
12.2650,12.86615111,50.44276392,1039.140514
12.2700,13.58839036,49.84296566,1038.476218
12.2750,14.31513312,49.239436,1037.813206
12.2800,15.04763994,48.63220421,1037.150849
12.2850,15.78410078,48.02235506,1036.489317
12.2900,16.5239958,47.41037959,1035.828463
12.2950,17.26650129,46.79590639,1035.168212
12.3000,18.01169508,46.18059006,1034.508671
12.3050,18.75918128,45.56463305,1033.84985
12.3100,19.5076889,44.94954888,1033.192648
12.3150,20.25707281,44.33594338,1032.537516
12.3200,21.00621633,43.72435449,1031.884611
12.3250,21.7550888,43.11585932,1031.2341
12.3300,22.50265359,42.51075946,1030.586511
12.3350,23.24874768,41.90911402,1029.941528
12.3400,23.99313112,41.31047604,1029.298857
12.3450,24.73747209,40.71704473,1028.657823
12.3500,25.48219014,40.13085465,1028.018159
12.3550,26.22741011,39.55055638,1027.379634
12.3600,26.97458502,38.9773853,1026.742039
12.3650,27.72263273,38.41241717,1026.106178
12.3700,28.47067291,37.85592572,1025.472898
12.3750,29.22017957,37.3071331,1024.841923
12.3800,29.97038683,36.76610363,1024.213436
12.3850,30.7210396,36.23319832,1023.588004
12.3900,31.47323176,35.70971798,1022.965822
12.3950,32.22810184,35.1952625,1022.346752
12.4000,32.98461054,34.69057882,1021.731655
12.4050,33.7462338,34.19534089,1021.119325
12.4100,34.51332036,33.70844382,1020.510157
12.4150,35.28701337,33.23112496,1019.90446
12.4200,36.06770557,32.76270561,1019.302141
12.4250,36.85758405,32.30360406,1018.703021
12.4300,37.65643932,31.85167117,1018.107372
12.4350,38.46449121,31.40790728,1017.515681
12.4400,39.28247979,30.97256635,1016.927835
12.4450,40.11065535,30.5460711,1016.344486
12.4500,40.94868053,30.12731067,1015.765822
12.4550,41.79658914,29.71614538,1015.192201
12.4600,42.65487051,29.3121016,1014.623563
12.4650,43.52256177,28.91472628,1014.060463
12.4700,44.398624,28.52416027,1013.503639
12.4750,45.28320126,28.14170798,1012.953302
12.4800,46.17638528,27.76617186,1012.409714
12.4850,47.07785536,27.39690721,1011.872625
12.4900,47.98636928,27.0342601,1011.342883
12.4950,48.90104355,26.67932958,1010.820913
12.5000,49.82254527,26.33184169,1010.30674
12.5050,50.75022595,25.9911012,1009.800433
12.5100,51.68338671,25.65654134,1009.302227
12.5150,52.62116066,25.32836588,1008.812572
12.5200,53.5634498,25.00559798,1008.331335
12.5250,54.51048085,24.6880676,1007.858762
12.5300,55.46291206,24.3770662,1007.394515
12.5350,56.41925103,24.07142852,1006.938807
12.5400,57.37984228,23.771924,1006.491709
12.5450,58.3455179,23.47826585,1006.052641
12.5500,59.31495358,23.19000088,1005.62185
12.5550,60.28914878,22.90566644,1005.198615
12.5600,61.26790754,22.62759872,1004.783147
12.5650,62.24888194,22.35504749,1004.375887
12.5700,63.23438838,22.0879968,1003.97564
12.5750,64.22389921,21.82598487,1003.582314
12.5800,65.21558383,21.56897062,1003.196245
12.5850,66.21166432,21.3161205,1002.816077
12.5900,67.21186764,21.06894709,1002.4419
12.5950,68.2150319,20.82685567,1002.073498
12.6000,69.22069565,20.58935228,1001.7105
12.6050,70.22815099,20.35723088,1001.35267
12.6100,71.23710762,20.1292682,1000.999465
12.6150,72.24616271,19.90592756,1000.650665
12.6200,73.25698199,19.68759391,1000.305707
12.6250,74.26713581,19.47325808,999.9646823
12.6300,75.27634891,19.26433131,999.6273512
12.6350,76.28314252,19.05977955,999.293736
12.6400,77.28660528,18.86030467,998.963912
12.6450,78.28439501,18.66493226,998.6379309
12.6500,79.27579446,18.47290408,998.3157363
12.6550,80.25958187,18.28428018,997.9972543
12.6600,81.23674866,18.09875154,997.6820274
12.6650,82.20778936,17.91579881,997.3695191
12.6700,83.17316395,17.73664012,997.0596251
12.6750,84.13250099,17.56103838,996.7519799
12.6800,85.08489128,17.3896044,996.4470997
12.6850,86.03023745,17.22239396,996.1448776
12.6900,86.96706833,17.05897383,995.8454647
12.6950,87.89484813,16.89907277,995.5491736
12.7000,88.81415002,16.74275544,995.2557724
12.7050,89.72259982,16.59045358,994.9660801
12.7100,90.61946372,16.44255164,994.6805739
12.7150,91.5025978,16.2973209,994.3995517
12.7200,92.37320272,16.1558868,994.1234308
12.7250,93.227471,16.01738505,993.8530963
12.7300,94.06501687,15.88360136,993.5891999
12.7350,94.88527348,15.75386143,993.3317659
12.7400,95.68595977,15.62706378,993.0815889
12.7450,96.46541615,15.50333232,992.8390567
12.7500,97.22456779,15.38436646,992.604333
12.7550,97.96069713,15.27126397,992.378122
12.7600,98.67345285,15.16394021,992.160548
12.7650,99.36238516,15.06300845,991.951972
12.7700,100.0271063,14.96977342,991.7525634
12.7750,100.6654664,14.8842674,991.5627866
12.7800,101.2769087,14.80758522,991.3828367
12.7850,101.8592579,14.74101906,991.2133349
12.7900,102.4132588,14.68453358,991.0541788
12.7950,102.9383413,14.63985991,990.9054669
12.8000,103.4341121,14.6073685,990.7673123
12.8050,103.8998532,14.5873581,990.6398237
12.8100,104.337061,14.58075867,990.5227362
12.8150,104.7446383,14.58800888,990.416125
12.8200,105.1243795,14.61045905,990.3198179
12.8250,105.4748619,14.64848114,990.2338827
12.8300,105.7968407,14.70155606,990.1581539
12.8350,106.0910838,14.77000853,990.0923691
12.8400,106.3581709,14.85267377,990.0360671
12.8450,106.598636,14.94974659,989.9890637
12.8500,106.8139437,15.06085601,989.9509861
12.8550,107.0047495,15.18560443,989.9216415
12.8600,107.1711714,15.32304791,989.9008765
12.8650,107.3150124,15.47166133,989.8881455
12.8700,107.4347736,15.63156534,989.8836353
12.8750,107.5313124,15.80078445,989.8869622
12.8800,107.6061205,15.97814462,989.8976192
12.8850,107.6587408,16.16232615,989.9157539
12.8900,107.6893882,16.3516968,989.9410695
12.8950,107.6985172,16.54608045,989.9735172
12.9000,107.6848546,16.74375664,990.0130258
12.9050,107.6486835,16.94249792,990.0595649
12.9100,107.5899046,17.14285656,990.1130894
12.9150,107.5102983,17.34324188,990.1733218
12.9200,107.4081413,17.54299908,990.2405009
12.9250,107.2850622,17.7404783,990.3142499
12.9300,107.1401952,17.93401633,990.3946041
12.9350,106.9733474,18.12368191,990.4815308
12.9400,106.7856175,18.30804518,990.5749207
12.9450,106.5781392,18.48603672,990.6744762
12.9500,106.3502827,18.65682159,990.7804653
12.9550,106.1035256,18.82064978,990.8925872
12.9600,105.8370212,18.97646956,991.011024
12.9650,105.5507271,19.125957,991.1360355
12.9700,105.2446937,19.26718461,991.2674543
12.9750,104.9186121,19.40218271,991.4059311
12.9800,104.5729623,19.52920405,991.5509515
12.9850,104.2077083,19.64812982,991.7028434
12.9900,103.8230796,19.75909167,991.8616696
12.9950,103.4179381,19.86372328,992.0279686
13.0000,102.9913476,19.96068962,992.2020426
13.0050,102.5455331,20.05268429,992.3839656
13.0100,102.0775545,20.1392465,992.5743354
13.0150,101.5891579,20.22112004,992.7732749
13.0200,101.0779058,20.29920891,992.9814713
13.0250,100.5443441,20.37495081,993.1992338
13.0300,99.98787415,20.4488193,993.4266588
13.0350,99.40857357,20.52162552,993.6640837
13.0400,98.80681801,20.59501451,993.9117236
13.0450,98.18068306,20.67095605,994.1705841
13.0500,97.53040165,20.75003681,994.4407927
13.0550,96.85704455,20.83210629,994.7224262
13.0600,96.15907402,20.91905923,995.0163685
13.0650,95.43556937,21.01165209,995.3227694
13.0700,94.68584262,21.11063327,995.6422304
13.0750,93.91042973,21.21612124,995.9750822
13.0800,93.10866302,21.32960154,996.3217462
13.0850,92.28194582,21.45266434,996.6824912
13.0900,91.4301735,21.5844126,997.0572627
13.0950,90.55254623,21.72528948,997.4466431
13.1000,89.65044352,21.87679656,997.8506471
13.1050,88.7234757,22.03980703,998.2697855
13.1100,87.77090068,22.21469096,998.7046995
13.1150,86.79387262,22.40079649,999.1552879
13.1200,85.79178842,22.59875296,999.6221759
13.1250,84.76545174,22.80812824,1000.10543
13.1300,83.71500083,23.02920022,1000.605543
13.1350,82.64091419,23.2608145,1001.122817
13.1400,81.54418728,23.50392831,1001.657365
13.1450,80.42561305,23.75885481,1002.209582
13.1500,79.28441372,24.02431239,1002.779811
13.1550,78.12384587,24.30024033,1003.367754
13.1600,76.94349565,24.58525174,1003.973397
13.1650,75.74428446,24.88050341,1004.597188
13.1700,74.52914479,25.1836661,1005.238492
13.1750,73.29866517,25.49606283,1005.897608
13.1800,72.05369427,25.81729722,1006.574591
13.1850,70.79441984,26.14704528,1007.269443
13.1900,69.52164847,26.48487755,1007.982307
13.1950,68.23584274,26.82969967,1008.712737
13.2000,66.93829416,27.18159797,1009.461087
13.2050,65.63180204,27.54212463,1010.226253
13.2100,64.31599019,27.90990784,1011.008931
13.2150,62.99262923,28.28493468,1011.808405
13.2200,61.66255693,28.66785363,1012.624676
13.2250,60.325707,29.05802937,1013.457414
13.2300,58.98348991,29.45520032,1014.306395
13.2350,57.63633626,29.85838633,1015.171488
13.2400,56.28503024,30.2696033,1016.052738
13.2450,54.92955141,30.68889927,1016.949956
13.2500,53.57115568,31.11561828,1017.862732
13.2550,52.21017221,31.54977178,1018.790734
13.2600,50.84727333,31.99093422,1019.73379
13.2650,49.48329451,32.43750734,1020.691693
13.2700,48.11987108,32.89051437,1021.663823
13.2750,46.75616216,33.34835523,1022.650337
13.2800,45.39281686,33.81051589,1023.651118
13.2850,44.03146818,34.27721993,1024.665416
13.2900,42.67220079,34.7479574,1025.693445
13.2950,41.315143,35.22248419,1026.735105
13.3000,39.96124379,35.69979904,1027.789576
13.3050,38.6094262,36.17683185,1028.857004
13.3100,37.26224056,36.65542603,1029.937161
13.3150,35.91904632,37.13569419,1031.030367
13.3200,34.57910056,37.61615531,1032.136352
13.3250,33.24358935,38.09501366,1033.254752
13.3300,31.91153627,38.57217921,1034.385973
13.3350,30.58254014,39.04730753,1035.530024
13.3400,29.25576849,39.52012314,1036.687146
13.3450,27.93345939,39.98999939,1037.856294
13.3500,26.61250585,40.45725497,1039.038322
13.3550,25.29352986,40.92142961,1040.232952
13.3600,23.97654231,41.38249133,1041.439981
13.3650,22.6609998,41.84028981,1042.65949
13.3700,21.34590793,42.29473313,1043.89107
13.3750,20.03123752,42.74678401,1045.134841
13.3800,18.71679271,43.19557955,1046.390557
13.3850,17.40202981,43.6410813,1047.658111
13.3900,16.08603965,44.08409649,1048.937546
13.3950,14.76903462,44.524469,1050.228944
13.4000,13.44887755,44.96167753,1051.53296
13.4050,12.12625426,45.39503703,1052.848663
13.4100,10.80015227,45.82561628,1054.176298
13.4150,9.471619011,46.25298648,1055.515636
13.4200,8.139373033,46.67762027,1056.866393
13.4250,6.80444001,47.09944245,1058.228371
13.4300,5.466316316,47.51822071,1059.601483
13.4350,4.124973528,47.9349262,1060.985245
13.4400,2.781105434,48.34884169,1062.379326
13.4450,1.43467594,48.75972982,1063.783453
13.4500,0.08626902826,49.16805762,1065.197625
13.4550,-1.265023816,49.57365979,1066.621898
13.4600,-2.617606895,49.97815156,1068.055827
13.4650,-3.971047014,50.38020004,1069.49858
13.4700,-5.325570106,50.78142056,1070.950538
13.4750,-6.679928852,51.18064018,1072.410899
13.4800,-8.033535241,51.57871343,1073.879579
13.4850,-9.384672019,51.97574645,1075.355833
13.4900,-10.73297785,52.37279786,1076.839627
13.4950,-12.07658586,52.76922095,1078.329845
13.5000,-13.41445695,53.1648147,1079.826297
13.5050,-14.74619762,53.55870133,1081.328546
13.5100,-16.06968143,53.95157091,1082.835452
13.5150,-17.38582074,54.34329205,1084.347309
13.5200,-18.69296058,54.7325391,1085.863619
13.5250,-19.99007472,55.11994094,1087.383936
13.5300,-21.27589167,55.50697204,1088.907932
13.5350,-22.54764639,55.89180514,1090.433992
13.5400,-23.80582941,56.2749438,1091.961796
13.5450,-25.0490976,56.65639135,1093.491067
13.5500,-26.27649959,57.03683553,1095.021161
13.5550,-27.4874952,57.41507907,1096.55228
13.5600,-28.6802083,57.79158773,1098.083101
13.5650,-29.85345905,58.16669432,1099.612841
13.5700,-31.00799994,58.54032113,1101.141928
13.5750,-32.14164697,58.91287551,1102.668754
13.5800,-33.25378023,59.28481647,1104.193866
13.5850,-34.34401407,59.65489365,1105.716334
13.5900,-35.4108346,60.02297377,1107.235712
13.5950,-36.45255738,60.38853318,1108.75153
13.6000,-37.4687791,60.7525463,1110.264458
13.6050,-38.45925669,61.11452788,1111.774902
13.6100,-39.42385026,61.4726592,1113.282521
13.6150,-40.36259662,61.82559503,1114.786856
13.6200,-41.27340134,62.17257803,1116.287359
13.6250,-42.15718512,62.5139263,1117.785251
13.6300,-43.01261959,62.84793157,1119.279718
13.6350,-43.84119392,63.17370564,1120.771427
13.6400,-44.642473,63.49087414,1122.259745
13.6450,-45.41681915,63.79905393,1123.744875
13.6500,-46.16249935,64.09748279,1125.226691
13.6550,-46.88146524,64.38563446,1126.704989
13.6600,-47.57532382,64.66266369,1128.180831
13.6650,-48.24339083,64.92884995,1129.653514
13.6700,-48.88631827,65.18304517,1131.124061
13.6750,-49.50605518,65.42678442,1132.593099
13.6800,-50.10337232,65.66031837,1134.061467
13.6850,-50.67856497,65.88357104,1135.529149
13.6900,-51.23342849,66.09739332,1136.997159
13.6950,-51.76953849,66.30137079,1138.465404
13.7000,-52.28784238,66.49596744,1139.934082
13.7050,-52.78940015,66.68310167,1141.404408
13.7100,-53.27595564,66.86134909,1142.876226
13.7150,-53.75004693,67.03113695,1144.3502
13.7200,-54.21204967,67.19263525,1145.826874
13.7250,-54.66426183,67.3465228,1147.306551
