type,name,time_units,begin_time,frequency,count,units
signal_3d,"Noraxon MyoMotion-Trajectories-Medial humeral epicondyle RT","s",0.0000,200,4916,"mm"

time,x,y,z
0.0000,140.2894191,-32.04379297,1240.236048
0.0050,140.2866401,-32.05809993,1240.235286
0.0100,140.2838639,-32.07240746,1240.234524
0.0150,140.2810906,-32.08671554,1240.233761
0.0200,140.2781052,-32.10240042,1240.232937
0.0250,140.2749387,-32.11938872,1240.232056
0.0300,140.2716271,-32.13757944,1240.231128
0.0350,140.2682064,-32.15685012,1240.230163
0.0400,140.2647118,-32.17706333,1240.229175
0.0450,140.2611766,-32.19807605,1240.228178
0.0500,140.2576344,-32.21974842,1240.227187
0.0550,140.2541198,-32.24194526,1240.226213
0.0600,140.2506636,-32.26453502,1240.22527
0.0650,140.2472851,-32.28739449,1240.22437
0.0700,140.2439871,-32.31041407,1240.223529
0.0750,140.240754,-32.33349553,1240.22276
0.0800,140.2375515,-32.35654396,1240.222081
0.0850,140.2343273,-32.37946266,1240.221511
0.0900,140.2310148,-32.40215584,1240.221072
0.0950,140.2275409,-32.42453459,1240.220784
0.1000,140.2238304,-32.44651961,1240.220666
0.1050,140.2198081,-32.46803896,1240.220735
0.1100,140.2154006,-32.48902505,1240.221005
0.1150,140.2105411,-32.50941312,1240.221485
0.1200,140.2051759,-32.52913829,1240.222183
0.1250,140.1992694,-32.54813122,1240.223101
0.1300,140.1928067,-32.5663164,1240.224235
0.1350,140.1857946,-32.58361409,1240.22558
0.1400,140.1782593,-32.59994487,1240.227125
0.1450,140.1702425,-32.61523669,1240.228856
0.1500,140.1618004,-32.62943064,1240.230755
0.1550,140.1458659,-32.66632798,1240.233268
0.1600,140.1303008,-32.70301788,1240.235759
0.1650,140.1145681,-32.73852484,1240.238355
0.1700,140.0982496,-32.77328982,1240.241015
0.1750,140.0819611,-32.80690387,1240.24383
0.1800,140.0664294,-32.83966214,1240.246513
0.1850,140.0506026,-32.87124054,1240.249288
0.1900,140.0357064,-32.90217558,1240.251882
0.1950,140.0208777,-32.93151455,1240.254569
0.2000,140.0061508,-32.96025823,1240.257187
0.2050,139.9918107,-32.98902305,1240.259668
0.2100,139.9782647,-33.01640274,1240.262026
0.2150,139.9657522,-33.04330903,1240.264156
0.2200,139.9542768,-33.06893316,1240.266089
0.2250,139.9440108,-33.09431543,1240.267743
0.2300,139.9350696,-33.11993561,1240.268979
0.2350,139.9274464,-33.14492206,1240.269977
0.2400,139.9206895,-33.16950912,1240.270727
0.2450,139.9146883,-33.19368387,1240.271322
0.2500,139.9099627,-33.21859923,1240.271548
0.2550,139.9054476,-33.24387018,1240.271574
0.2600,139.901943,-33.26855424,1240.271418
0.2650,139.8984321,-33.29379281,1240.271105
0.2700,139.8947773,-33.31912868,1240.270755
0.2750,139.8918122,-33.34510485,1240.270158
0.2800,139.8888279,-33.37126052,1240.269506
0.2850,139.8858325,-33.39766754,1240.268851
0.2900,139.8836386,-33.42428675,1240.268013
0.2950,139.8815197,-33.45131149,1240.267135
0.3000,139.8793976,-33.47921561,1240.266183
0.3050,139.8766012,-33.50807888,1240.265354
0.3100,139.873524,-33.53679134,1240.264647
0.3150,139.8700182,-33.56600737,1240.263965
0.3200,139.8655906,-33.59577259,1240.263455
0.3250,139.8606193,-33.6259119,1240.263131
0.3300,139.8544864,-33.65695757,1240.263002
0.3350,139.8477828,-33.68895951,1240.262943
0.3400,139.840146,-33.72075095,1240.263117
0.3450,139.8317085,-33.75284418,1240.263471
0.3500,139.8230093,-33.78515733,1240.263898
0.3550,139.8134881,-33.8176636,1240.26445
0.3600,139.8035581,-33.84975928,1240.265215
0.3650,139.7933552,-33.88195273,1240.266023
0.3700,139.7819731,-33.91421558,1240.267189
0.3750,139.7705596,-33.94646886,1240.268377
0.3800,139.757884,-33.97882093,1240.269817
0.3850,139.7449465,-34.01104087,1240.271331
0.3900,139.7312193,-34.04312734,1240.27303
0.3950,139.7162523,-34.07551534,1240.274967
0.4000,139.7005939,-34.10770218,1240.276996
0.4050,139.6844172,-34.13927094,1240.279116
0.4100,139.6672304,-34.17111497,1240.281298
0.4150,139.649656,-34.20336305,1240.283458
0.4200,139.631777,-34.23551367,1240.2856
0.4250,139.6133404,-34.26811627,1240.287758
0.4300,139.5942073,-34.30024448,1240.290043
0.4350,139.5750449,-34.33235741,1240.292307
0.4400,139.5550029,-34.36362249,1240.294749
0.4450,139.5356102,-34.39537023,1240.296963
0.4500,139.516143,-34.42668707,1240.299225
0.4550,139.4969464,-34.45816903,1240.301418
0.4600,139.4772791,-34.48832269,1240.303796
0.4650,139.4584185,-34.51848838,1240.306035
0.4700,139.4403414,-34.54821568,1240.308209
0.4750,139.4224887,-34.57747232,1240.310292
0.4800,139.4047826,-34.6059306,1240.312452
0.4850,139.387801,-34.63393968,1240.314519
0.4900,139.3718966,-34.66140904,1240.316386
0.4950,139.3560058,-34.68850585,1240.318304
0.5000,139.3410701,-34.71468156,1240.320076
0.5050,139.3267592,-34.74030528,1240.321792
0.5100,139.3126812,-34.76483394,1240.323578
0.5150,139.2987345,-34.78820453,1240.325483
0.5200,139.2846908,-34.81085635,1240.327535
0.5250,139.2700574,-34.83274417,1240.329908
0.5300,139.2546882,-34.85279611,1240.332827
0.5350,139.2395331,-34.87176847,1240.336055
0.5400,139.2251472,-34.88940478,1240.339668
0.5450,139.2114449,-34.90565603,1240.343664
0.5500,139.1984034,-34.91982518,1240.348161
0.5550,139.187481,-34.93206564,1240.352995
0.5600,139.1783461,-34.94279336,1240.358214
0.5650,139.1715961,-34.95136754,1240.363764
0.5700,139.1681656,-34.95818229,1240.369379
0.5750,139.1668382,-34.96280243,1240.375381
0.5800,139.169352,-34.96515012,1240.381575
0.5850,139.1753635,-34.96667336,1240.387755
0.5900,139.1836807,-34.96553949,1240.394334
0.5950,139.1942232,-34.96322582,1240.401233
0.6000,139.2078296,-34.95880688,1240.408439
0.6050,139.2245057,-34.95286752,1240.415864
0.6100,139.244075,-34.94558793,1240.423563
0.6150,139.2659445,-34.93667084,1240.431705
0.6200,139.2910338,-34.92711267,1240.440138
0.6250,139.3191972,-34.91625919,1240.448899
0.6300,139.3504077,-34.90381785,1240.458166
0.6350,139.3844491,-34.89138602,1240.467797
0.6400,139.4217195,-34.87885945,1240.477805
0.6450,139.4626156,-34.86619815,1240.488119
0.6500,139.5067902,-34.85332908,1240.498839
0.6550,139.5545576,-34.8408998,1240.509829
0.6600,139.6060585,-34.82869133,1240.521015
0.6650,139.6615392,-34.81847751,1240.53227
0.6700,139.7224736,-34.80938041,1240.54328
0.6750,139.7868918,-34.80126637,1240.554523
0.6800,139.8569191,-34.79412742,1240.565548
0.6850,139.9309686,-34.7896923,1240.576528
0.6900,140.0082657,-34.78658685,1240.587665
0.6950,140.0893886,-34.78530886,1240.598707
0.7000,140.1727704,-34.78601086,1240.609977
0.7050,140.2569255,-34.78879666,1240.621548
0.7100,140.3417189,-34.79464333,1240.633415
0.7150,140.4257105,-34.80214759,1240.645835
0.7200,140.5076213,-34.81226601,1240.6589
0.7250,140.5863952,-34.82456505,1240.672761
0.7300,140.6608449,-34.83893471,1240.687529
0.7350,140.7287052,-34.85640774,1240.703576
0.7400,140.7899149,-34.8771364,1240.720755
0.7450,140.8425088,-34.89975098,1240.73967
0.7500,140.8860929,-34.9254495,1240.760123
0.7550,140.9214879,-34.95337801,1240.782123
0.7600,140.9473282,-34.98403162,1240.805859
0.7650,140.9634741,-35.01572132,1240.831579
0.7700,140.9702564,-35.04883276,1240.859239
0.7750,140.9681931,-35.08322594,1240.888817
0.7800,140.9590364,-35.11953436,1240.91987
0.7850,140.9425747,-35.1568785,1240.952598
0.7900,140.9193594,-35.19415558,1240.987154
0.7950,140.8909074,-35.2322093,1241.023111
0.8000,140.858403,-35.27144829,1241.060372
0.8050,140.8233968,-35.31093809,1241.098712
0.8100,140.787128,-35.35206091,1241.137799
0.8150,140.7504336,-35.39448647,1241.177602
0.8200,140.7140668,-35.43763255,1241.218073
0.8250,140.678796,-35.48258317,1241.258852
0.8300,140.6459675,-35.5288279,1241.299816
0.8350,140.6151217,-35.57609544,1241.341097
0.8400,140.5863675,-35.62460632,1241.382518
0.8450,140.5601652,-35.67392933,1241.424055
0.8500,140.5364089,-35.72517511,1241.465685
0.8550,140.5148064,-35.77759557,1241.507456
0.8600,140.495012,-35.83104551,1241.549418
0.8650,140.4775258,-35.88520752,1241.591549
0.8700,140.4618248,-35.94042832,1241.633861
0.8750,140.4478333,-35.99656811,1241.676446
0.8800,140.4349628,-36.0536017,1241.719414
0.8850,140.4223629,-36.11049689,1241.763019
0.8900,140.4113875,-36.16852263,1241.806913
0.8950,140.4015847,-36.2256071,1241.851363
0.9000,140.3927787,-36.28356542,1241.896205
0.9050,140.3854075,-36.34144528,1241.941356
0.9100,140.3795336,-36.39913479,1241.986859
0.9150,140.375813,-36.45692325,1242.032523
0.9200,140.3738532,-36.51401917,1242.078335
0.9250,140.3732782,-36.570731,1242.124398
0.9300,140.374359,-36.62798039,1242.170501
0.9350,140.3775716,-36.68430319,1242.216641
0.9400,140.3823609,-36.7410734,1242.2628
0.9450,140.3877449,-36.79751145,1242.309209
0.9500,140.3935313,-36.85450684,1242.3558
0.9550,140.399853,-36.91117722,1242.402591
0.9600,140.4059852,-36.96789183,1242.449724
0.9650,140.4121642,-37.02417039,1242.497177
0.9700,140.417114,-37.07997067,1242.545236
0.9750,140.4207379,-37.13589841,1242.593704
0.9800,140.422381,-37.19186767,1242.642783
0.9850,140.4220695,-37.24594906,1242.692457
0.9900,140.4196318,-37.30015599,1242.742707
0.9950,140.4141249,-37.35363536,1242.7936
1.0000,140.4054711,-37.40641157,1242.845114
1.0050,140.3946383,-37.4588746,1242.897055
1.0100,140.3800792,-37.51038858,1242.949773
1.0150,140.3627847,-37.56179217,1243.00293
1.0200,140.3421361,-37.61269486,1243.056774
1.0250,140.3177276,-37.66365827,1243.111354
1.0300,140.290528,-37.71455608,1243.166602
1.0350,140.2619142,-37.76484678,1243.222204
1.0400,140.230796,-37.81466843,1243.278535
1.0450,140.1973541,-37.86432403,1243.335485
1.0500,140.1623038,-37.91392245,1243.392977
1.0550,140.1247796,-37.96286265,1243.451264
1.0600,140.0856957,-38.0115258,1243.510176
1.0650,140.0454661,-38.06127954,1243.569482
1.0700,140.00451,-38.11143478,1243.629176
1.0750,139.9626432,-38.16091156,1243.689416
1.0800,139.9203752,-38.21008624,1243.750117
1.0850,139.8771514,-38.25875974,1243.811441
1.0900,139.8334085,-38.30728742,1243.873258
1.0950,139.7897773,-38.35550315,1243.935488
1.1000,139.7454141,-38.40285374,1243.998329
1.1050,139.7002722,-38.45017001,1244.061759
1.1100,139.6544602,-38.49644739,1244.125961
1.1150,139.6086053,-38.54250092,1244.190654
1.1200,139.5630149,-38.58846161,1244.255789
1.1250,139.5184303,-38.63376431,1244.321388
1.1300,139.4753811,-38.67959307,1244.387178
1.1350,139.4336676,-38.72525895,1244.453264
1.1400,139.3945007,-38.77093517,1244.519494
1.1450,139.3597003,-38.8166524,1244.58556
1.1500,139.3295685,-38.86172639,1244.651377
1.1550,139.3045569,-38.90798818,1244.716826
1.1600,139.2863421,-38.9552723,1244.781614
1.1650,139.2751766,-39.00427515,1244.845579
1.1700,139.271613,-39.05573033,1244.90874
1.1750,139.2768888,-39.10886149,1244.9708
1.1800,139.2911217,-39.16464536,1245.031737
1.1850,139.3156202,-39.22176019,1245.091457
1.1900,139.350223,-39.28126342,1245.150003
1.1950,139.3955124,-39.34332926,1245.20718
1.2000,139.4508837,-39.40759315,1245.263246
1.2050,139.5151789,-39.47359623,1245.318524
1.2100,139.5896767,-39.54275065,1245.372644
1.2150,139.6712681,-39.61451766,1245.426238
1.2200,139.7612816,-39.68860511,1245.479118
1.2250,139.8581082,-39.76525118,1245.531522
1.2300,139.9610342,-39.84290602,1245.583684
1.2350,140.0684474,-39.92276397,1245.635823
1.2400,140.1801727,-40.0042517,1245.687923
1.2450,140.2944193,-40.08795856,1245.740263
1.2500,140.4113957,-40.17325097,1245.792809
1.2550,140.5303667,-40.26084645,1245.845655
1.2600,140.6507009,-40.34958714,1245.898949
1.2650,140.7713279,-40.43971467,1245.952762
1.2700,140.8932835,-40.53040321,1246.007009
1.2750,141.0158103,-40.62163552,1246.061808
1.2800,141.1377146,-40.71326143,1246.117321
1.2850,141.2595773,-40.80596632,1246.173464
1.2900,141.3812962,-40.89940308,1246.230058
1.2950,141.503405,-40.99392111,1246.287082
1.3000,141.6250241,-41.08799805,1246.344829
1.3050,141.7457779,-41.18199264,1246.403316
1.3100,141.8675223,-41.27469648,1246.462127
1.3150,141.9884163,-41.3667828,1246.521607
1.3200,142.1092332,-41.45765557,1246.581635
1.3250,142.2299384,-41.54668298,1246.64224
1.3300,142.3496549,-41.63411085,1246.703507
1.3350,142.4679801,-41.71941372,1246.7656
1.3400,142.584677,-41.80261041,1246.828547
1.3450,142.7003224,-41.88373931,1246.892237
1.3500,142.813431,-41.96282119,1246.95702
1.3550,142.9245688,-42.04088912,1247.02268
1.3600,143.0334879,-42.11710064,1247.089412
1.3650,143.1394496,-42.19112952,1247.157439
1.3700,143.2426697,-42.26309253,1247.226701
1.3750,143.3434037,-42.33367551,1247.29712
1.3800,143.4403062,-42.40219414,1247.36915
1.3850,143.5344374,-42.46883054,1247.442504
1.3900,143.625677,-42.53481069,1247.517202
1.3950,143.713945,-42.59883203,1247.593366
1.4000,143.7997533,-42.66156094,1247.670919
1.4050,143.8829459,-42.72233854,1247.749984
1.4100,143.9639217,-42.78125496,1247.830422
1.4150,144.0417457,-42.83713506,1247.912483
1.4200,144.1168515,-42.89100602,1247.996044
1.4250,144.1886666,-42.94254225,1248.081117
1.4300,144.2568999,-42.9907678,1248.167809
1.4350,144.3222691,-43.03709132,1248.255784
1.4400,144.3836517,-43.08062025,1248.345189
1.4450,144.4397277,-43.12204166,1248.43615
1.4500,144.4910431,-43.16125813,1248.528509
1.4550,144.5379244,-43.1966778,1248.622182
1.4600,144.5793684,-43.22933616,1248.717334
1.4650,144.6148797,-43.25917036,1248.814012
1.4700,144.6439192,-43.28472579,1248.912302
1.4750,144.6659461,-43.30652433,1249.012331
1.4800,144.6814798,-43.323536,1249.113895
1.4850,144.6896496,-43.33668949,1249.217158
1.4900,144.6912539,-43.34529674,1249.321888
1.4950,144.6860938,-43.34953601,1249.428194
1.5000,144.6739328,-43.34824867,1249.536049
1.5050,144.6562738,-43.34243439,1249.645086
1.5100,144.6317046,-43.3303639,1249.755705
1.5150,144.6021676,-43.31233811,1249.867451
1.5200,144.5669477,-43.28798355,1249.980508
1.5250,144.5264284,-43.25727054,1250.094727
1.5300,144.4813712,-43.22105677,1250.209907
1.5350,144.4324615,-43.17779137,1250.326029
1.5400,144.3798441,-43.1274776,1250.443163
1.5450,144.3256843,-43.068947,1250.56085
1.5500,144.2689387,-43.00174029,1250.679408
1.5550,144.2104279,-42.92508527,1250.798721
1.5600,144.1506489,-42.83961832,1250.918646
1.5650,144.0896879,-42.74411582,1251.039294
1.5700,144.0272377,-42.63987938,1251.160587
1.5750,143.9639275,-42.52584814,1251.282596
1.5800,143.8998357,-42.40160709,1251.405204
1.5850,143.8358156,-42.26749664,1251.528227
1.5900,143.7726849,-42.12220507,1251.65165
1.5950,143.7092583,-41.96609552,1251.775743
1.6000,143.647714,-41.80053112,1251.899915
1.6050,143.5868935,-41.62568258,1252.024391
1.6100,143.5261042,-41.44244042,1252.149299
1.6150,143.4664293,-41.25119,1252.27444
1.6200,143.4077231,-41.05391234,1252.399705
1.6250,143.3495277,-40.85088352,1252.525201
1.6300,143.2924825,-40.64207401,1252.650788
1.6350,143.2354306,-40.42979482,1252.776553
1.6400,143.1790404,-40.21451156,1252.902383
1.6450,143.1234968,-39.99644753,1253.028086
1.6500,143.0695239,-39.77572957,1253.153522
1.6550,143.016781,-39.55208651,1253.278793
1.6600,142.965086,-39.32740017,1253.403641
1.6650,142.9148177,-39.10116834,1253.528001
1.6700,142.8657503,-38.87356756,1253.651948
1.6750,142.8189897,-38.64558772,1253.775159
1.6800,142.7727486,-38.41708065,1253.897936
1.6850,142.7280464,-38.18873435,1254.020059
1.6900,142.6837223,-37.96058626,1254.141727
1.6950,142.6401686,-37.73243909,1254.262894
1.7000,142.5965728,-37.50419358,1254.383659
1.7050,142.5537221,-37.27590709,1254.503826
1.7100,142.5110782,-37.04799608,1254.623453
1.7150,142.4688544,-36.82014873,1254.742536
1.7200,142.4267937,-36.59215716,1254.861025
1.7250,142.385334,-36.36374373,1254.978885
1.7300,142.3448401,-36.13623513,1255.095808
1.7350,142.3048367,-35.90841463,1255.212114
1.7400,142.2647585,-35.68130849,1255.327727
1.7450,142.2251556,-35.45497946,1255.4425
1.7500,142.1854358,-35.22902142,1255.556593
1.7550,142.1450879,-35.0053354,1255.669908
1.7600,142.1042217,-34.78275364,1255.782434
1.7650,142.0631671,-34.56123188,1255.894173
1.7700,142.0222278,-34.34100091,1256.005085
1.7750,141.9818319,-34.12134418,1256.115049
1.7800,141.941461,-33.90262201,1256.22424
1.7850,141.9024092,-33.68502239,1256.332341
1.7900,141.8641389,-33.46745119,1256.439688
1.7950,141.8272524,-33.25072014,1256.546025
1.8000,141.7917769,-33.03429531,1256.651468
1.8050,141.7578236,-32.81799788,1256.756027
1.8100,141.7262138,-32.60227555,1256.859472
1.8150,141.6964047,-32.38571322,1256.962156
1.8200,141.6689908,-32.17025384,1257.063745
1.8250,141.6446713,-31.95448075,1257.164207
1.8300,141.6226868,-31.73961858,1257.263603
1.8350,141.6034714,-31.52423492,1257.361947
1.8400,141.586495,-31.30907036,1257.459235
1.8450,141.5709935,-31.09472547,1257.555662
1.8500,141.5573878,-30.88171161,1257.651037
1.8550,141.5453233,-30.67109723,1257.745293
1.8600,141.534974,-30.46228834,1257.838459
1.8650,141.5258813,-30.25489821,1257.930705
1.8700,141.5180069,-30.04894261,1258.022069
1.8750,141.510649,-29.84490723,1258.112588
1.8800,141.5040953,-29.64320525,1258.202193
1.8850,141.497041,-29.44302876,1258.291224
1.8900,141.4902977,-29.24455731,1258.379501
1.8950,141.4831769,-29.04820261,1258.467149
1.9000,141.4751336,-28.85346442,1258.554399
1.9050,141.4675369,-28.65942398,1258.641134
1.9100,141.4599758,-28.46658753,1258.727379
1.9150,141.451395,-28.27464119,1258.813329
1.9200,141.4416074,-28.08326522,1258.899102
1.9250,141.4307965,-27.89197724,1258.9847
1.9300,141.4190755,-27.7019416,1259.07
1.9350,141.4063372,-27.51192739,1259.155169
1.9400,141.3932624,-27.32370124,1259.239701
1.9450,141.3777652,-27.13738643,1259.324158
1.9500,141.3599227,-26.95380997,1259.408366
1.9550,141.339838,-26.77285839,1259.492227
1.9600,141.3169975,-26.59457565,1259.575808
1.9650,141.2928918,-26.41906337,1259.658667
1.9700,141.2670194,-26.24729676,1259.740733
1.9750,141.2390087,-26.07888245,1259.822165
1.9800,141.2108414,-25.91439893,1259.902282
1.9850,141.1809005,-25.75428381,1259.981405
1.9900,141.1503245,-25.59778757,1260.059391
1.9950,141.1186151,-25.44540154,1260.136275
2.0000,141.0865829,-25.29634829,1260.212039
2.0050,141.0543317,-25.15038093,1260.286672
2.0100,141.0218538,-25.00664878,1260.360261
2.0150,140.9901925,-24.8651116,1260.432704
2.0200,140.9601843,-24.72481508,1260.503857
2.0250,140.931726,-24.58441866,1260.573959
2.0300,140.9045858,-24.44365115,1260.643152
2.0350,140.8792801,-24.30260281,1260.711221
2.0400,140.8567866,-24.16016216,1260.77823
2.0450,140.8367566,-24.01541607,1260.844431
2.0500,140.8194246,-23.86832019,1260.909918
2.0550,140.8044264,-23.7171755,1260.975104
2.0600,140.7909606,-23.56288756,1261.040156
2.0650,140.7797523,-23.40555526,1261.10493
2.0700,140.770062,-23.24464645,1261.169672
2.0750,140.7608171,-23.08082269,1261.234669
2.0800,140.7516304,-22.91358172,1261.300008
2.0850,140.7425466,-22.743362,1261.365684
2.0900,140.7312991,-22.57039659,1261.432269
2.0950,140.717814,-22.3943043,1261.499776
2.1000,140.701181,-22.21524708,1261.568387
2.1050,140.6810982,-22.03321964,1261.638183
2.1100,140.6564859,-21.8486157,1261.70933
2.1150,140.6276487,-21.66181758,1261.781663
2.1200,140.5928366,-21.47167593,1261.855816
2.1250,140.5513263,-21.27868704,1261.931984
2.1300,140.5034365,-21.08171863,1262.010242
2.1350,140.4484816,-20.88270801,1262.090481
2.1400,140.3851321,-20.68024142,1262.173289
2.1450,140.313791,-20.47406501,1262.258631
2.1500,140.2344126,-20.26429194,1262.346415
2.1550,140.1461754,-20.04985839,1262.437034
2.1600,140.0491792,-19.83041483,1262.530422
2.1650,139.943798,-19.60684578,1262.626324
2.1700,139.8293221,-19.37830815,1262.725086
2.1750,139.7075146,-19.14425407,1262.82618
2.1800,139.5776995,-18.90511214,1262.929831
2.1850,139.4409031,-18.66127138,1263.035741
2.1900,139.295756,-18.41211982,1263.144379
2.1950,139.1439381,-18.15844021,1263.255124
2.2000,138.9848646,-17.90051195,1263.368075
2.2050,138.8177587,-17.63962937,1263.48321
2.2100,138.6424814,-17.37492827,1263.600792
2.2150,138.4593458,-17.10601304,1263.720833
2.2200,138.2681945,-16.83329028,1263.843386
2.2250,138.0690643,-16.55780965,1263.968378
2.2300,137.8624073,-16.27911152,1264.095778
2.2350,137.6487779,-15.99910887,1264.225115
2.2400,137.4270081,-15.71521219,1264.35708
2.2450,137.198686,-15.42819211,1264.491235
2.2500,136.9622572,-15.13785839,1264.628043
2.2550,136.7183479,-14.84496838,1264.767269
2.2600,136.4668913,-14.55044732,1264.908911
2.2650,136.207039,-14.25388415,1265.053367
2.2700,135.9398389,-13.95416873,1265.200487
2.2750,135.6649006,-13.65157725,1265.350377
2.2800,135.383075,-13.34520251,1265.503038
2.2850,135.0957739,-13.03432511,1265.658218
2.2900,134.8036542,-12.71935201,1265.815671
2.2950,134.5070957,-12.39971124,1265.975415
2.3000,134.2061073,-12.07637823,1266.137384
2.3050,133.9001319,-11.74935465,1266.301786
2.3100,133.5901916,-11.41989953,1266.468208
2.3150,133.2747189,-11.08793585,1266.637127
2.3200,132.9546146,-10.75412489,1266.808296
2.3250,132.6295663,-10.41974377,1266.981621
2.3300,132.2992808,-10.08303469,1267.157465
2.3350,131.9643091,-9.744118105,1267.335728
2.3400,131.6247863,-9.403578613,1267.516299
2.3450,131.2805283,-9.062553643,1267.699007
2.3500,130.9307755,-8.720364571,1267.884197
2.3550,130.5768855,-8.377520703,1268.071299
2.3600,130.2181951,-8.0327989,1268.260756
2.3650,129.8538069,-7.687754016,1268.452603
2.3700,129.484256,-7.342392418,1268.64671
2.3750,129.1090959,-6.998077519,1268.843032
2.3800,128.7276285,-6.654490327,1269.041919
2.3850,128.3395186,-6.310935781,1269.243574
2.3900,127.9462597,-5.96852382,1269.447379
2.3950,127.5480816,-5.625716717,1269.653509
2.4000,127.1449922,-5.283337245,1269.861871
2.4050,126.7374717,-4.940558405,1270.072388
2.4100,126.325791,-4.596678097,1270.285142
2.4150,125.9101397,-4.252778795,1270.499908
2.4200,125.4907667,-3.908497206,1270.716588
2.4250,125.0684561,-3.563398702,1270.934997
2.4300,124.6423172,-3.216778899,1271.155391
2.4350,124.2138687,-2.868891053,1271.377318
2.4400,123.7840945,-2.52065813,1271.600241
2.4450,123.3530968,-2.173270193,1271.823797
2.4500,122.9207885,-1.82703937,1272.048046
2.4550,122.4869674,-1.483095665,1272.272826
2.4600,122.0509147,-1.141296656,1272.498472
2.4650,121.6133026,-0.80279466,1272.724578
2.4700,121.1737375,-0.4681080823,1272.95123
2.4750,120.7305664,-0.137608399,1273.179135
2.4800,120.2844396,0.1889812092,1273.408101
2.4850,119.8348596,0.5132634992,1273.638763
2.4900,119.3827281,0.8355375343,1273.870813
2.4950,118.9279935,1.158082999,1274.104758
2.5000,118.4722046,1.481735876,1274.340237
2.5050,118.0156732,1.808104554,1274.577515
2.5100,117.5598771,2.136425393,1274.815836
2.5150,117.1060542,2.466685539,1275.054889
2.5200,116.6550979,2.798771625,1275.294149
2.5250,116.2068695,3.13271159,1275.5336
2.5300,115.7599638,3.467439307,1275.773568
2.5350,115.3151786,3.803797832,1276.013828
2.5400,114.8728933,4.140185785,1276.253982
2.5450,114.4329514,4.475578861,1276.493759
2.5500,113.9972084,4.810784305,1276.732639
2.5550,113.5648764,5.144088015,1276.970563
2.5600,113.1374658,5.476453427,1277.207126
2.5650,112.7145099,5.806869912,1277.442179
2.5700,112.2959797,6.133973516,1277.675534
2.5750,111.8817192,6.458304569,1277.907366
2.5800,111.4710361,6.778804562,1278.137688
2.5850,111.0633079,7.095302447,1278.366698
2.5900,110.6582384,7.407634827,1278.594603
2.5950,110.2573286,7.716020582,1278.820851
2.6000,109.8593672,8.02124516,1279.046067
2.6050,109.4659845,8.323780536,1279.269707
2.6100,109.0766289,8.625366925,1279.492355
2.6150,108.6930996,8.925566501,1279.713157
2.6200,108.3140289,9.225562928,1279.932951
2.6250,107.9401885,9.526509935,1280.151591
2.6300,107.572298,9.828285531,1280.368815
2.6350,107.2101935,10.13114546,1280.584665
2.6400,106.8540416,10.43473613,1280.798977
2.6450,106.5048119,10.73989067,1281.011429
2.6500,106.1624392,11.04485755,1281.221583
2.6550,105.826428,11.34900974,1281.429523
2.6600,105.4972945,11.65043591,1281.634497
2.6650,105.1750458,11.9496523,1281.836546
2.6700,104.8580467,12.24489144,1282.035986
2.6750,104.5466941,12.53621209,1282.232571
2.6800,104.2401661,12.82317443,1282.426613
2.6850,103.9378421,13.10573225,1282.618291
2.6900,103.6384038,13.38482598,1282.808324
2.6950,103.3417357,13.65975845,1282.99658
2.7000,103.048956,13.9309095,1283.182595
2.7050,102.7594527,14.19890607,1283.366833
2.7100,102.4746421,14.46314417,1283.548493
2.7150,102.1930916,14.72537282,1283.728574
2.7200,101.9150804,14.98619703,1283.907174
2.7250,101.6411934,15.24478801,1284.08373
2.7300,101.3720757,15.50127149,1284.258059
2.7350,101.1055868,15.7556427,1284.43108
2.7400,100.8423875,16.00886514,1284.602811
2.7450,100.5818148,16.26222197,1284.773958
2.7500,100.3237344,16.51611878,1284.944642
2.7550,100.0683738,16.77026456,1285.114855
2.7600,99.8157831,17.02495111,1285.28465
2.7650,99.5651934,17.28162716,1285.454704
2.7700,99.31747715,17.54089516,1285.624693
2.7750,99.07363456,17.80222981,1285.793974
2.7800,98.83429656,18.0659892,1285.96228
2.7850,98.59946194,18.33057688,1286.129047
2.7900,98.36858913,18.59400981,1286.294069
2.7950,98.1407509,18.85464317,1286.457288
2.8000,97.9142029,19.11164386,1286.619334
2.8050,97.6886689,19.36426519,1286.780009
2.8100,97.46399462,19.61210617,1286.93926
2.8150,97.23991218,19.85534191,1287.097123
2.8200,97.01569966,20.09386897,1287.253812
2.8250,96.79317361,20.32845556,1287.408658
2.8300,96.57353625,20.55952153,1287.561039
2.8350,96.35678525,20.78854231,1287.711413
2.8400,96.14478224,21.01497105,1287.858589
2.8450,95.93739319,21.23905283,1288.0027
2.8500,95.73413301,21.45954097,1288.143595
2.8550,95.5352663,21.67757657,1288.281292
2.8600,95.34062797,21.89172676,1288.415449
2.8650,95.15052825,22.10217743,1288.546099
2.8700,94.96462201,22.30820561,1288.673217
2.8750,94.78245729,22.50846442,1288.796618
2.8800,94.60363445,22.70312789,1288.916633
2.8850,94.42917674,22.89162776,1289.032674
2.8900,94.25850477,23.07471551,1289.145064
2.8950,94.09058271,23.25054721,1289.253948
2.9000,93.92642851,23.41997946,1289.358983
2.9050,93.76330611,23.58101032,1289.460988
2.9100,93.60204712,23.73459598,1289.559869
2.9150,93.44122721,23.87989878,1289.656031
2.9200,93.28056318,24.01658276,1289.749588
2.9250,93.12048145,24.14539285,1289.840639
2.9300,92.95905993,24.2661579,1289.930038
2.9350,92.79624622,24.37812053,1290.017643
2.9400,92.63186207,24.48213088,1290.103761
2.9450,92.46439345,24.57798917,1290.189233
2.9500,92.29525617,24.66699447,1290.273674
2.9550,92.1243639,24.74999781,1290.357345
2.9600,91.95214913,24.82715825,1290.440101
2.9650,91.77683187,24.89875803,1290.522983
2.9700,91.59895319,24.96720109,1290.606437
2.9750,91.41912995,25.03311127,1290.690381
2.9800,91.23796164,25.09671646,1290.774549
2.9850,91.05510903,25.15911023,1290.859521
2.9900,90.8710697,25.21931266,1290.944856
2.9950,90.68549138,25.27787179,1291.030927
3.0000,90.49878057,25.33604578,1291.117897
3.0050,90.31038787,25.39363188,1291.206034
3.0100,90.11954203,25.45209806,1291.296029
3.0150,89.92791772,25.51199514,1291.387149
3.0200,89.73619298,25.57370607,1291.479019
3.0250,89.54406303,25.6379158,1291.572031
3.0300,89.35247174,25.70355531,1291.665411
3.0350,89.16215432,25.7721067,1291.759168
3.0400,88.97235495,25.84289123,1291.853532
3.0450,88.78326726,25.91609821,1291.948389
3.0500,88.59547106,25.9917176,1292.043489
3.0550,88.40907488,26.07102101,1292.139004
3.0600,88.22434289,26.15264505,1292.234431
3.0650,88.04123152,26.23679884,1292.329852
3.0700,87.85919144,26.32229413,1292.425231
3.0750,87.67808169,26.40965329,1292.520865
3.0800,87.49680459,26.49876273,1292.617302
3.0850,87.31553191,26.58941934,1292.714451
3.0900,87.13370309,26.68256668,1292.812851
3.0950,86.9525622,26.77901544,1292.912072
3.1000,86.77248649,26.87805766,1293.011763
3.1050,86.59342529,26.97988389,1293.111992
3.1100,86.41537102,27.08502586,1293.212963
3.1150,86.23644619,27.19253926,1293.315396
3.1200,86.05771562,27.30384323,1293.419261
3.1250,85.8771568,27.41787426,1293.5253
3.1300,85.69463572,27.53474738,1293.633582
3.1350,85.51082613,27.65429698,1293.74365
3.1400,85.32486212,27.77637609,1293.855835
3.1450,85.13790843,27.90138038,1293.96961
3.1500,84.94917627,28.02879237,1294.085112
3.1550,84.76026849,28.15845804,1294.201517
3.1600,84.5706354,28.29000688,1294.318756
3.1650,84.37959566,28.42151926,1294.43665
3.1700,84.18665698,28.55391473,1294.555704
3.1750,83.99257986,28.68656369,1294.675294
3.1800,83.79670102,28.8177784,1294.795304
3.1850,83.59753935,28.94680905,1294.916362
3.1900,83.39496483,29.07189041,1295.038121
3.1950,83.1881875,29.19365431,1295.161105
3.2000,82.97682252,29.31111484,1295.285285
3.2050,82.76157211,29.42407384,1295.410267
3.2100,82.54111711,29.53152287,1295.536477
3.2150,82.31554459,29.63400192,1295.664064
3.2200,82.08495781,29.73175683,1295.792967
3.2250,81.84948187,29.82489006,1295.923113
3.2300,81.6107623,29.91241926,1296.053312
3.2350,81.36867097,29.99564532,1296.184017
3.2400,81.12328018,30.07447329,1296.315199
3.2450,80.87550897,30.14915329,1296.446455
3.2500,80.62414835,30.21897667,1296.578214
3.2550,80.36832051,30.28391204,1296.711117
3.2600,80.10745543,30.34422712,1296.84551
3.2650,79.84314441,30.40164869,1296.981145
3.2700,79.57563258,30.45404473,1297.117179
3.2750,79.30472672,30.50147541,1297.253869
3.2800,79.03004174,30.54486607,1297.391755
3.2850,78.75225515,30.58352819,1297.530339
3.2900,78.47165574,30.619146,1297.669985
3.2950,78.18814736,30.65311072,1297.811239
3.3000,77.90159814,30.68544466,1297.954148
3.3050,77.61280788,30.71647139,1298.098435
3.3100,77.32148102,30.74671759,1298.244636
3.3150,77.02878348,30.77591571,1298.392064
3.3200,76.73316913,30.80434062,1298.541713
3.3250,76.43531831,30.83346602,1298.693664
3.3300,76.13566618,30.86429299,1298.847956
3.3350,75.83500228,30.89814456,1299.004592
3.3400,75.53460686,30.93559427,1299.162915
3.3450,75.23507735,30.97652871,1299.322602
3.3500,74.9363639,31.02204552,1299.484102
3.3550,74.63973271,31.072338,1299.646671
3.3600,74.34672234,31.12903268,1299.809804
3.3650,74.05792133,31.19254589,1299.97337
3.3700,73.77366851,31.26360283,1300.137314
3.3750,73.49499349,31.34186894,1300.300857
3.3800,73.22243256,31.42692578,1300.463625
3.3850,72.95709769,31.51930141,1300.625003
3.3900,72.69932579,31.61845399,1300.78475
3.3950,72.44801698,31.72333168,1300.943221
3.4000,72.20400707,31.83415368,1301.099867
3.4050,71.9669489,31.95061186,1301.254846
3.4100,71.73775633,32.07188335,1301.40723
3.4150,71.51708989,32.1973235,1301.556343
3.4200,71.30375545,32.32646689,1301.702717
3.4250,71.09786269,32.45862589,1301.846086
3.4300,70.89959991,32.59301948,1301.986065
3.4350,70.70826356,32.72790136,1302.122489
3.4400,70.52420701,32.86394482,1302.255389
3.4450,70.34564099,32.9996239,1302.38525
3.4500,70.17341947,33.1347638,1302.51149
3.4550,70.00616416,33.26909719,1302.634686
3.4600,69.8435796,33.40113679,1302.754642
3.4650,69.68499678,33.53133694,1302.871922
3.4700,69.53147232,33.6580064,1302.985189
3.4750,69.38212695,33.78091144,1303.094836
3.4800,69.23707239,33.90027958,1303.200791
3.4850,69.09586282,34.01631489,1303.303362
3.4900,68.95787713,34.1286825,1303.402698
3.4950,68.82292646,34.23672778,1303.498724
3.5000,68.69075384,34.33966295,1303.59145
3.5050,68.56094756,34.43837988,1303.681335
3.5100,68.43328035,34.53217369,1303.768233
3.5150,68.30794674,34.62158208,1303.852115
3.5200,68.18464465,34.70595018,1303.933003
3.5250,68.06274833,34.78401858,1304.010856
3.5300,67.9415005,34.85699077,1304.086525
3.5350,67.82100469,34.92392731,1304.159663
3.5400,67.70034296,34.98366019,1304.230518
3.5450,67.57920008,35.03626902,1304.299238
3.5500,67.4563856,35.08237181,1304.366923
3.5550,67.33204553,35.12121845,1304.433111
3.5600,67.204872,35.15388596,1304.498979
3.5650,67.07459478,35.18007947,1304.564633
3.5700,66.94032953,35.20085931,1304.631119
3.5750,66.80240304,35.21714949,1304.6985
3.5800,66.66091734,35.22900978,1304.766732
3.5850,66.51403901,35.23614336,1304.836951
3.5900,66.36172498,35.23943786,1304.909521
3.5950,66.20276629,35.23865809,1304.985201
3.6000,66.03667919,35.23423874,1305.064552
3.6050,65.86312193,35.22676193,1305.147861
3.6100,65.68134699,35.21737901,1305.23598
3.6150,65.49084004,35.20645395,1305.329438
3.6200,65.29336483,35.19456771,1305.427378
3.6250,65.08797798,35.18086836,1305.530287
3.6300,64.8736262,35.16571484,1305.638904
3.6350,64.65031415,35.1486637,1305.753118
3.6400,64.41760291,35.12992743,1305.873211
3.6450,64.17571612,35.10969285,1305.999133
3.6500,63.92599563,35.08772747,1306.129906
3.6550,63.66757427,35.06350221,1306.265998
3.6600,63.40130772,35.03547389,1306.406289
3.6650,63.12732951,35.00286613,1306.550432
3.6700,62.84647171,34.96497148,1306.697633
3.6750,62.55860259,34.92083742,1306.847657
3.6800,62.26439228,34.87035541,1306.999996
3.6850,61.96319212,34.8125755,1307.154765
3.6900,61.65522381,34.7466201,1307.311465
3.6950,61.34231827,34.67271193,1307.468935
3.7000,61.02451884,34.59039468,1307.627061
3.7050,60.70277621,34.4991998,1307.785068
3.7100,60.37602297,34.3995989,1307.943899
3.7150,60.04566057,34.29119755,1308.102584
3.7200,59.71291106,34.17393289,1308.260288
3.7250,59.37811767,34.04807703,1308.416819
3.7300,59.04125714,33.91423823,1308.572512
3.7350,58.70277726,33.77277933,1308.72717
3.7400,58.36229632,33.62298538,1308.880855
3.7450,58.02147266,33.46586021,1309.032822
3.7500,57.68024623,33.30132832,1309.183096
3.7550,57.33923851,33.12976501,1309.331545
3.7600,56.99857385,32.9525689,1309.478597
3.7650,56.65956962,32.77001459,1309.623385
3.7700,56.32168127,32.58438727,1309.767149
3.7750,55.98572104,32.39671653,1309.909751
3.7800,55.65222183,32.20763488,1310.051181
3.7850,55.32202223,32.01733434,1310.191005
3.7900,54.99571831,31.82819425,1310.329578
3.7950,54.67387509,31.640116,1310.466605
3.8000,54.35642026,31.45408713,1310.602498
3.8050,54.04405996,31.2709039,1310.736949
3.8100,53.73771731,31.0909386,1310.869518
3.8150,53.43667771,30.91433575,1311.000937
3.8200,53.14251274,30.74249081,1311.130395
3.8250,52.85501931,30.57477729,1311.257903
3.8300,52.57415047,30.411489,1311.383619
3.8350,52.30072695,30.25332121,1311.507181
3.8400,52.03382153,30.1017355,1311.629638
3.8450,51.77448829,29.95694331,1311.750397
3.8500,51.52281926,29.81909915,1311.869346
3.8550,51.27946594,29.68898841,1311.986357
3.8600,51.04529959,29.5670755,1312.101146
3.8650,50.82024199,29.45300588,1312.213544
3.8700,50.60404968,29.34735056,1312.323898
3.8750,50.39630536,29.2499463,1312.432445
3.8800,50.19664545,29.16113294,1312.539658
3.8850,50.0060462,29.08170616,1312.644926
3.8900,49.82381627,29.01159649,1312.748672
3.8950,49.65137342,28.95113505,1312.849962
3.9000,49.48834769,28.90009508,1312.948876
3.9050,49.33503534,28.85932483,1313.045533
3.9100,49.19214278,28.82760401,1313.139004
3.9150,49.05868107,28.80404465,1313.229613
3.9200,48.93433202,28.78903237,1313.317836
3.9250,48.81931669,28.78250695,1313.403209
3.9300,48.71345414,28.78363399,1313.48564
3.9350,48.61646543,28.7909254,1313.564913
3.9400,48.52853085,28.80391965,1313.640669
3.9450,48.44963066,28.82143081,1313.712495
3.9500,48.37891252,28.84316543,1313.780875
3.9550,48.3160618,28.86776376,1313.845412
3.9600,48.25997907,28.89533819,1313.907048
3.9650,48.21145708,28.92458617,1313.964612
3.9700,48.16986411,28.95539489,1314.018544
3.9750,48.13524255,28.98726661,1314.068515
3.9800,48.10717379,29.01911668,1314.114429
3.9850,48.08606477,29.05057747,1314.155854
3.9900,48.07252162,29.08122539,1314.192125
3.9950,48.06697804,29.11039898,1314.222696
4.0000,48.0686309,29.13761597,1314.247916
4.0050,48.07769623,29.16192113,1314.267206
4.0100,48.09480567,29.18380673,1314.28033
4.0150,48.11910871,29.20219211,1314.287438
4.0200,48.15077763,29.21680882,1314.288308
4.0250,48.19018994,29.22749817,1314.282693
4.0300,48.23664753,29.23370546,1314.270654
4.0350,48.29019697,29.23467547,1314.252057
4.0400,48.35050268,29.23063074,1314.227134
4.0450,48.41764641,29.22155114,1314.19579
4.0500,48.49088232,29.20694878,1314.158414
4.0550,48.56920483,29.18595823,1314.115557
4.0600,48.65401103,29.15890587,1314.066324
4.0650,48.74446059,29.12660484,1314.011549
4.0700,48.84090168,29.08791018,1313.950583
4.0750,48.94228528,29.04218078,1313.883992
4.0800,49.04768448,28.99015811,1313.812824
4.0850,49.15749761,28.93214019,1313.73678
4.0900,49.27130178,28.867621,1313.656272
4.0950,49.38793976,28.79816826,1313.572505
4.1000,49.50847431,28.7243782,1313.484871
4.1050,49.63313791,28.64614795,1313.393271
4.1100,49.76153917,28.56473622,1313.298328
4.1150,49.89397909,28.47999518,1313.199838
4.1200,50.02960694,28.39213449,1313.098498
4.1250,50.16920208,28.3030374,1312.994391
4.1300,50.31263655,28.21278819,1312.887573
4.1350,50.45977306,28.12199872,1312.778311
4.1400,50.61141367,28.03085075,1312.666149
4.1450,50.76673628,27.93983231,1312.551784
4.1500,50.92688946,27.84822875,1312.434326
4.1550,51.09029806,27.75738959,1312.31533
4.1600,51.25632435,27.6662781,1312.194866
4.1650,51.42421623,27.57538508,1312.073681
4.1700,51.59473934,27.48441894,1311.951036
4.1750,51.76569157,27.39284514,1311.828397
4.1800,51.93720636,27.30076442,1311.705658
4.1850,52.10832244,27.20800653,1311.583387
4.1900,52.27952859,27.11459346,1311.461321
4.1950,52.44932541,27.02063403,1311.340493
4.2000,52.61814465,26.92682441,1311.220936
4.2050,52.78536897,26.83342483,1311.103199
4.2100,52.95121373,26.74100616,1310.987232
4.2150,53.11609149,26.65054516,1310.873171
4.2200,53.2791787,26.56207286,1310.761468
4.2250,53.44073162,26.47570112,1310.652049
4.2300,53.60159492,26.39188076,1310.544417
4.2350,53.76174229,26.31080619,1310.438536
4.2400,53.92236523,26.23242123,1310.333569
4.2450,54.08325041,26.15606067,1310.229428
4.2500,54.24453964,26.08056954,1310.125516
4.2550,54.40630788,26.00636495,1310.022
4.2600,54.56928503,25.93371986,1309.91844
4.2650,54.73263838,25.86208481,1309.815177
4.2700,54.89738209,25.79047874,1309.711286
4.2750,55.06309665,25.71871268,1309.606951
4.2800,55.22953078,25.64664154,1309.502323
4.2850,55.39669111,25.57393473,1309.397268
4.2900,55.56512925,25.49998831,1309.291188
4.2950,55.73378782,25.42448069,1309.184739
4.3000,55.90268496,25.34737696,1309.077893
4.3050,56.07165584,25.26844125,1308.970743
4.3100,56.23939698,25.18510276,1308.863345
4.3150,56.40637081,25.09939145,1308.755868
4.3200,56.57236126,25.01088242,1308.648347
4.3250,56.73795227,24.91892607,1308.540037
4.3300,56.90357326,24.82383285,1308.430935
4.3350,57.06944019,24.72677747,1308.321074
4.3400,57.23632414,24.62747359,1308.209881
4.3450,57.40444995,24.52604763,1308.097286
4.3500,57.57471152,24.42378014,1307.983121
4.3550,57.74787641,24.32012808,1307.866606
4.3600,57.92382336,24.21551464,1307.747945
4.3650,58.10287757,24.10932956,1307.626666
4.3700,58.28488955,24.00125484,1307.502873
4.3750,58.47059248,23.89084356,1307.375996
4.3800,58.66035405,23.77815539,1307.245645
4.3850,58.85398538,23.66271942,1307.111934
4.3900,59.05122659,23.54506632,1306.975018
4.3950,59.25329022,23.4246341,1306.834099
4.4000,59.45981936,23.30091161,1306.689217
4.4050,59.66961642,23.17490924,1306.541591
4.4100,59.88237074,23.04611179,1306.391364
4.4150,60.09910033,22.91465712,1306.23785
4.4200,60.32031904,22.77996352,1306.080672
4.4250,60.54599426,22.64175374,1305.919728
4.4300,60.77571442,22.5004519,1305.755603
4.4350,61.00860611,22.35491601,1305.588542
4.4400,61.2444843,22.20621524,1305.419033
4.4450,61.48350175,22.05330436,1305.24669
4.4500,61.72466217,21.89733311,1305.07239
4.4550,61.96847861,21.73798229,1304.895699
4.4600,62.21465792,21.57569333,1304.716951
4.4650,62.46352371,21.41004921,1304.535823
4.4700,62.71390855,21.24094124,1304.353081
4.4750,62.96729363,21.06914652,1304.168123
4.4800,63.22287337,20.89418503,1303.981279
4.4850,63.48150133,20.71622644,1303.792173
4.4900,63.74241566,20.5351528,1303.601222
4.4950,64.00654186,20.35150499,1303.407963
4.5000,64.27279173,20.16434167,1303.212888
4.5050,64.54130615,19.97344008,1303.015844
4.5100,64.81100616,19.77913863,1302.817676
4.5150,65.08211761,19.58150043,1302.618183
4.5200,65.35409162,19.38062077,1302.417712
4.5250,65.62683337,19.17669447,1302.216395
4.5300,65.90009359,18.97002681,1302.014474
4.5350,66.17494803,18.76147425,1301.811494
4.5400,66.44970286,18.54984996,1301.608319
4.5450,66.72440203,18.33714157,1301.405484
4.5500,66.99941927,18.12294949,1301.202641
4.5550,67.27496303,17.90856355,1301.000027
4.5600,67.55077672,17.69244073,1300.797311
4.5650,67.8274356,17.47600909,1300.594613
4.5700,68.10498237,17.26024161,1300.392034
4.5750,68.38374053,17.04452142,1300.189334
4.5800,68.66423563,16.82949136,1299.986246
4.5850,68.94545278,16.61428975,1299.783301
4.5900,69.2265621,16.39966291,1299.581136
4.5950,69.50807602,16.18567558,1299.37945
4.6000,69.79029254,15.97258902,1299.178098
4.6050,70.07311379,15.76051985,1298.977253
4.6100,70.35729036,15.55114526,1298.776716
4.6150,70.64277911,15.34248798,1298.576213
4.6200,70.92997178,15.13507562,1298.375731
4.6250,71.21787634,14.92930201,1298.175955
4.6300,71.50611156,14.72454885,1297.976866
4.6350,71.7939157,14.52034244,1297.778801
4.6400,72.08062499,14.31642503,1297.582014
4.6450,72.36619882,14.11350589,1297.386658
4.6500,72.65031961,13.91027609,1297.192545
4.6550,72.93370193,13.70811156,1296.999574
4.6600,73.21442323,13.50627656,1296.80853
4.6650,73.49264961,13.30446252,1296.619251
4.6700,73.76790824,13.10317263,1296.432154
4.6750,74.04032496,12.90362426,1296.247481
4.6800,74.31058898,12.70493913,1296.064683
4.6850,74.57781597,12.50894455,1295.884683
4.6900,74.84289745,12.31430805,1295.706656
4.6950,75.10521444,12.12096185,1295.530844
4.7000,75.36396228,11.92853545,1295.357603
4.7050,75.61953169,11.73664384,1295.186535
4.7100,75.87253093,11.54462376,1295.01712
4.7150,76.12190475,11.35197824,1294.849626
4.7200,76.3662441,11.15829802,1294.68467
4.7250,76.6052878,10.96396772,1294.522366
4.7300,76.83994994,10.76711272,1294.36164
4.7350,77.06919034,10.56897527,1294.203435
4.7400,77.29471864,10.36845431,1294.046351
4.7450,77.51521647,10.16604848,1293.891179
4.7500,77.7311605,9.960980238,1293.737532
4.7550,77.94244959,9.751735205,1293.584978
4.7600,78.14962383,9.53782752,1293.433208
4.7650,78.35233336,9.318589766,1293.282192
4.7700,78.5509668,9.093785144,1293.131726
4.7750,78.7452183,8.863572918,1292.981798
4.7800,78.93582811,8.627002021,1292.831727
4.7850,79.12282214,8.385197692,1292.681782
4.7900,79.30669621,8.138009387,1292.531604
4.7950,79.48766803,7.8848526,1292.3811
4.8000,79.66622239,7.626502697,1292.230119
4.8050,79.84359427,7.363229512,1292.078067
4.8100,80.02143407,7.096053611,1291.924449
4.8150,80.20045943,6.825550149,1291.769165
4.8200,80.38246442,6.552079999,1291.611438
4.8250,80.56670076,6.276666358,1291.45208
4.8300,80.75333008,5.999964602,1291.291275
4.8350,80.94214822,5.721863188,1291.129243
4.8400,81.13464519,5.444825766,1290.965702
4.8450,81.33161874,5.168859846,1290.800309
4.8500,81.53297694,4.895546886,1290.63354
4.8550,81.73990906,4.624413075,1290.464652
4.8600,81.95212469,4.355821743,1290.294013
4.8650,82.16915881,4.090299969,1290.121977
4.8700,82.39119209,3.828054163,1289.948536
4.8750,82.61874868,3.570141266,1289.773629
4.8800,82.85140244,3.316040371,1289.597442
4.8850,83.09081061,3.067558433,1289.419468
4.8900,83.33689494,2.825395375,1289.239953
4.8950,83.58991766,2.589361648,1289.058738
4.9000,83.84989454,2.35926689,1288.87586
4.9050,84.11672944,2.135127301,1288.691343
4.9100,84.38992859,1.916598328,1288.505519
4.9150,84.66851926,1.703993749,1288.318973
4.9200,84.9523308,1.497044944,1288.131578
4.9250,85.2412968,1.295395193,1287.943459
4.9300,85.53563014,1.099768818,1287.754683
4.9350,85.83685174,0.9098614161,1287.564438
4.9400,86.14332585,0.7260289522,1287.373706
4.9450,86.45520745,0.5468387369,1287.182096
4.9500,86.77185435,0.3727422298,1286.989998
4.9550,87.09220293,0.2030283794,1286.797808
4.9600,87.41701226,0.03770141528,1286.605275
4.9650,87.74577652,-0.1238595887,1286.412492
4.9700,88.07905121,-0.2824853762,1286.219003
4.9750,88.41628378,-0.4390346437,1286.024845
4.9800,88.75600953,-0.5937443245,1285.830642
4.9850,89.0984852,-0.7493283171,1285.635634
4.9900,89.44169996,-0.9056705281,1285.440802
4.9950,89.7851819,-1.062656168,1285.246291
5.0000,90.12839064,-1.220756542,1285.052173
5.0050,90.47235977,-1.380272961,1284.857711
5.0100,90.81595965,-1.540848114,1284.663399
5.0150,91.159211,-1.702188266,1284.469431
5.0200,91.50367797,-1.864082814,1284.275048
5.0250,91.84853988,-2.028239269,1284.080338
5.0300,92.19386938,-2.192802412,1283.885697
5.0350,92.54013335,-2.35906949,1283.690497
5.0400,92.88611652,-2.527895868,1283.495255
5.0450,93.23216545,-2.698995355,1283.299815
5.0500,93.57840471,-2.872648649,1283.104051
5.0550,93.92435917,-3.048963538,1282.908162
5.0600,94.27042498,-3.227081846,1282.71197
5.0650,94.61613813,-3.406676939,1282.515741
5.0700,94.96266926,-3.588000853,1282.318946
5.0750,95.30996026,-3.771078452,1282.121602
5.0800,95.65801768,-3.955627967,1281.923929
5.0850,96.00635112,-4.142007869,1281.725983
5.0900,96.35601714,-4.330436403,1281.527292
5.0950,96.70707308,-4.520604441,1281.32792
5.1000,97.05969012,-4.712964986,1281.127722
5.1050,97.41374325,-4.908070711,1280.926705
5.1100,97.76810079,-5.107272257,1280.725067
5.1150,98.12230797,-5.310207326,1280.523007
5.1200,98.47652501,-5.516122081,1280.320601
5.1250,98.83155799,-5.725734468,1280.117323
5.1300,99.18910866,-5.938428017,1279.91252
5.1350,99.54825726,-6.15367762,1279.706628
5.1400,99.90913278,-6.371726283,1279.49961
5.1450,100.2728106,-6.592140568,1279.291082
5.1500,100.6399874,-6.816163164,1279.080551
5.1550,101.0107097,-7.043665095,1278.868041
5.1600,101.3852433,-7.273226497,1278.653642
5.1650,101.7645794,-7.507474577,1278.436603
5.1700,102.1488085,-7.747192345,1278.216739
5.1750,102.5374513,-7.99293251,1277.994223
5.1800,102.9303365,-8.244740905,1277.769154
5.1850,103.326794,-8.504950104,1277.541366
5.1900,103.7269505,-8.775453451,1277.310562
5.1950,104.1302271,-9.056644467,1277.076965
5.2000,104.5367731,-9.349133507,1276.840574
5.2050,104.9460839,-9.654504267,1276.601444
5.2100,105.3584581,-9.973069542,1276.359523
5.2150,105.7742578,-10.30424035,1276.114858
5.2200,106.191685,-10.64923768,1275.868082
5.2250,106.6113715,-11.00728772,1275.619142
5.2300,107.0334346,-11.37930411,1275.368041
5.2350,107.4554518,-11.76399204,1275.116069
5.2400,107.8777846,-12.16181912,1274.863032
5.2450,108.2986555,-12.57119724,1274.610049
5.2500,108.7186859,-12.99113872,1274.357046
5.2550,109.1372465,-13.42080984,1274.104453
5.2600,109.5538484,-13.85843536,1273.85271
5.2650,109.9689671,-14.30222795,1273.602019
5.2700,110.3809446,-14.74983946,1273.353344
5.2750,110.7905212,-15.1994176,1273.106652
5.2800,111.1988093,-15.64897963,1272.861823
5.2850,111.6062221,-16.09573813,1272.61909
5.2900,112.0134537,-16.53778639,1272.378481
5.2950,112.4205567,-16.97493926,1272.140014
5.3000,112.8281909,-17.40515477,1271.903767
5.3050,113.2355113,-17.82761105,1271.670227
5.3100,113.6443835,-18.24085782,1271.438874
5.3150,114.0543959,-18.64435109,1271.209733
5.3200,114.4640656,-19.03810055,1270.983231
5.3250,114.8735677,-19.42142479,1270.759306
5.3300,115.2821257,-19.79445201,1270.537996
5.3350,115.6902231,-20.15716767,1270.319127
5.3400,116.0978746,-20.50862131,1270.102653
5.3450,116.5058803,-20.84865877,1269.888309
5.3500,116.912766,-21.17814616,1269.67639
5.3550,117.3197524,-21.49654912,1269.466561
5.3600,117.725462,-21.80490693,1269.259135
5.3650,118.1291884,-22.10275545,1269.054526
5.3700,118.5302972,-22.38988362,1268.852852
5.3750,118.928961,-22.66560091,1268.654135
5.3800,119.3253125,-22.92991773,1268.458142
5.3850,119.7191018,-23.18415673,1268.264822
5.3900,120.1094834,-23.42798129,1268.074389
5.3950,120.4960189,-23.66322462,1267.886615
5.4000,120.8790298,-23.89068024,1267.7013
5.4050,121.2575046,-24.11025798,1267.518634
5.4100,121.6325355,-24.32199625,1267.338065
5.4150,122.0036288,-24.52801982,1267.159542
5.4200,122.3707262,-24.72964947,1266.982877
5.4250,122.7333187,-24.9268102,1266.808187
5.4300,123.0900345,-25.12121501,1266.63572
5.4350,123.4424668,-25.31320785,1266.464916
5.4400,123.7897185,-25.5031681,1266.295997
5.4450,124.1306025,-25.69181302,1266.129366
5.4500,124.4638321,-25.87894521,1265.965368
5.4550,124.7899139,-26.06559181,1265.803758
5.4600,125.1085752,-26.253206,1265.64428
5.4650,125.4185936,-26.44077205,1265.487305
5.4700,125.7187757,-26.62958762,1265.332969
5.4750,126.0098502,-26.81884038,1265.181004
5.4800,126.2925327,-27.00975093,1265.030964
5.4850,126.5666756,-27.20314522,1264.882853
5.4900,126.8323962,-27.39866998,1264.73656
5.4950,127.0903273,-27.59588993,1264.592035
5.5000,127.3404076,-27.79550237,1264.449119
5.5050,127.583343,-27.99602574,1264.307768
5.5100,127.8190089,-28.19772082,1264.16809
5.5150,128.0480364,-28.40014662,1264.029935
5.5200,128.2724004,-28.60280619,1263.892846
5.5250,128.4925459,-28.80523026,1263.756667
5.5300,128.7085657,-29.00732512,1263.621453
5.5350,128.921875,-29.20962604,1263.486647
5.5400,129.1334345,-29.41160158,1263.352112
5.5450,129.3439052,-29.61382231,1263.217632
5.5500,129.551965,-29.81696291,1263.083566
5.5550,129.7580143,-30.02092872,1262.949897
5.5600,129.9618722,-30.22512182,1262.816823
5.5650,130.1630606,-30.42950501,1262.68454
5.5700,130.3625751,-30.63446562,1262.552852
5.5750,130.5596492,-30.83886869,1262.422205
5.5800,130.7542405,-31.04185519,1262.292795
5.5850,130.9441243,-31.24395873,1262.165255
5.5900,131.1290461,-31.44470878,1262.039749
5.5950,131.3104004,-31.64264342,1261.916041
5.6000,131.4877354,-31.83704994,1261.794231
5.6050,131.6605615,-32.02784457,1261.674471
5.6100,131.8273057,-32.2160476,1261.556847
5.6150,131.9868544,-32.40224774,1261.44163
5.6200,132.1400927,-32.5853586,1261.328645
5.6250,132.2867425,-32.76486191,1261.217942
5.6300,132.4269341,-32.94197065,1261.109368
5.6350,132.5599932,-33.11612774,1261.003008
5.6400,132.6862957,-33.28717132,1260.898736
5.6450,132.8060331,-33.45486236,1260.79659
5.6500,132.9196862,-33.61740047,1260.696625
5.6550,133.0263956,-33.77388626,1260.59922
5.6600,133.1268192,-33.92339347,1260.504299
5.6650,133.2215491,-34.06600125,1260.411616
5.6700,133.3108464,-34.20080556,1260.321093
5.6750,133.393933,-34.32916844,1260.232784
5.6800,133.4710813,-34.45030218,1260.146535
5.6850,133.5424348,-34.56412487,1260.062138
5.6900,133.6076098,-34.6710978,1259.979642
5.6950,133.6664274,-34.77042316,1259.899073
5.7000,133.7184165,-34.86163974,1259.820416
5.7050,133.7631351,-34.94514665,1259.743676
5.7100,133.7996266,-35.02105654,1259.669095
5.7150,133.8284102,-35.08921595,1259.596378
5.7200,133.8495027,-35.14867839,1259.525639
5.7250,133.863346,-35.20126888,1259.456538
5.7300,133.8696416,-35.24622107,1259.389228
5.7350,133.8669608,-35.28433536,1259.323996
5.7400,133.8560357,-35.31643771,1259.260531
5.7450,133.8369516,-35.34289865,1259.198704
5.7500,133.8106393,-35.36415217,1259.138284
5.7550,133.7770989,-35.38056283,1259.0792
5.7600,133.736741,-35.3919811,1259.021481
5.7650,133.6904228,-35.39948486,1258.964799
5.7700,133.638482,-35.40209005,1258.90924
5.7750,133.5805966,-35.40177388,1258.854754
5.7800,133.5166863,-35.39972187,1258.801345
5.7850,133.446906,-35.39387707,1258.749147
5.7900,133.3716668,-35.384708,1258.698167
5.7950,133.2914917,-35.37336436,1258.648087
5.8000,133.2076795,-35.36023812,1258.598697
5.8050,133.1201907,-35.34617762,1258.549927
5.8100,133.0308444,-35.3312382,1258.501143
5.8150,132.9394351,-35.31669795,1258.452323
5.8200,132.8474834,-35.30267358,1258.403062
5.8250,132.7544955,-35.29052644,1258.353407
5.8300,132.6612795,-35.27955431,1258.303159
5.8350,132.5680107,-35.26952111,1258.252403
5.8400,132.4766728,-35.26124726,1258.200628
5.8450,132.387678,-35.2535594,1258.147786
5.8500,132.3038242,-35.24572203,1258.093356
5.8550,132.2247198,-35.23778662,1258.037425
5.8600,132.1507452,-35.22957951,1257.979992
5.8650,132.0830257,-35.22122887,1257.920737
5.8700,132.0215824,-35.21139016,1257.859876
5.8750,131.9667547,-35.20176317,1257.797129
5.8800,131.9175754,-35.1922162,1257.732797
5.8850,131.8765023,-35.18169874,1257.66625
5.8900,131.8441887,-35.17180431,1257.597117
5.8950,131.819142,-35.16173719,1257.525874
5.9000,131.8006389,-35.15283599,1257.452565
5.9050,131.7879226,-35.14528731,1257.377269
5.9100,131.7808679,-35.13854689,1257.300206
5.9150,131.7807272,-35.1309853,1257.221273
5.9200,131.7868427,-35.12408094,1257.140497
5.9250,131.7990302,-35.11743421,1257.058055
5.9300,131.8173392,-35.11034053,1256.973892
5.9350,131.8417312,-35.10153656,1256.888276
5.9400,131.8708278,-35.09052302,1256.801699
5.9450,131.9040135,-35.07821431,1256.714042
5.9500,131.9408128,-35.06407641,1256.625329
5.9550,131.9805364,-35.04930031,1256.535401
5.9600,132.0230689,-35.03326654,1256.444277
5.9650,132.0677042,-35.01589256,1256.352096
5.9700,132.1127032,-34.99752469,1256.259188
5.9750,132.1575711,-34.97717064,1256.16573
5.9800,132.2013094,-34.95545958,1256.071995
5.9850,132.2429707,-34.93196074,1255.978284
5.9900,132.2818086,-34.90545294,1255.884915
5.9950,132.3180009,-34.87615265,1255.791816
6.0000,132.3503438,-34.8429063,1255.699478
6.0050,132.3782796,-34.8055541,1255.608187
6.0100,132.402146,-34.7637573,1255.517885
6.0150,132.4208716,-34.71574641,1255.429117
6.0200,132.4330637,-34.66267182,1255.342014
6.0250,132.4372102,-34.60380211,1255.257069
6.0300,132.4336436,-34.53963993,1255.174128
6.0350,132.4226307,-34.47026064,1255.093161
6.0400,132.4032529,-34.39539473,1255.014308
6.0450,132.3754199,-34.31581134,1254.937542
6.0500,132.3393066,-34.23305311,1254.862641
6.0550,132.294539,-34.14582891,1254.789834
6.0600,132.2417665,-34.05682417,1254.718679
6.0650,132.1820626,-33.96563042,1254.649082
6.0700,132.1164366,-33.87391873,1254.580567
6.0750,132.0451014,-33.78125385,1254.513163
6.0800,131.9700253,-33.6862969,1254.446557
6.0850,131.8920053,-33.5905914,1254.380351
6.0900,131.8115812,-33.49347422,1254.314453
6.0950,131.7288351,-33.39466242,1254.248863
6.1000,131.6435714,-33.29386654,1254.183517
6.1050,131.5574901,-33.19140876,1254.117927
6.1100,131.4703427,-33.08832687,1254.052072
6.1150,131.3826355,-32.98422332,1253.985662
6.1200,131.2932225,-32.87934831,1253.919008
6.1250,131.2028028,-32.7746317,1253.851754
6.1300,131.111417,-32.6706905,1253.783741
6.1350,131.0189679,-32.56762466,1253.714864
6.1400,130.9240386,-32.46529519,1253.64554
6.1450,130.8271801,-32.36464402,1253.575556
6.1500,130.7273137,-32.26645514,1253.505111
6.1550,130.62551,-32.17032346,1253.434121
6.1600,130.5223041,-32.07643137,1253.362533
6.1650,130.4162852,-31.98518291,1253.290782
6.1700,130.3091521,-31.89783859,1253.218312
6.1750,130.2014361,-31.81294882,1253.145311
6.1800,130.0937936,-31.73192595,1253.071525
6.1850,129.9863602,-31.65462349,1252.997095
6.1900,129.8802171,-31.58151009,1252.921799
6.1950,129.7752943,-31.51315147,1252.845581
6.2000,129.6719618,-31.45057991,1252.768325
6.2050,129.5699386,-31.39499993,1252.689998
6.2100,129.4691966,-31.34723295,1252.610553
6.2150,129.3692655,-31.30884223,1252.529913
6.2200,129.2678922,-31.27941253,1252.448743
6.2250,129.1643123,-31.25958523,1252.367117
6.2300,129.0568788,-31.25020413,1252.285421
6.2350,128.9433849,-31.25102953,1252.204195
6.2400,128.8230518,-31.26293985,1252.12349
6.2450,128.6935125,-31.28431201,1252.044053
6.2500,128.5530198,-31.31580564,1251.966483
6.2550,128.4015118,-31.35538842,1251.891027
6.2600,128.2364909,-31.40314196,1251.818283
6.2650,128.0577513,-31.45850704,1251.748351
6.2700,127.8651691,-31.5192811,1251.681569
6.2750,127.6589011,-31.58669877,1251.617867
6.2800,127.4391894,-31.65914028,1251.557352
6.2850,127.2068522,-31.73564866,1251.500036
6.2900,126.9637284,-31.8169598,1251.445488
6.2950,126.7094118,-31.90190762,1251.393968
6.3000,126.4461305,-31.99158501,1251.344966
6.3050,126.1765942,-32.08503158,1251.298039
6.3100,125.9017357,-32.18224751,1251.253009
6.3150,125.623714,-32.28391392,1251.20938
6.3200,125.3454922,-32.38985692,1251.166485
6.3250,125.069998,-32.49930206,1251.123804
6.3300,124.798696,-32.61275179,1251.080925
6.3350,124.5340741,-32.72924569,1251.037393
6.3400,124.2777482,-32.8486203,1250.992817
6.3450,124.0311089,-32.97147257,1250.946774
6.3500,123.795075,-33.09596709,1250.899193
6.3550,123.5699295,-33.22412636,1250.849752
6.3600,123.3559925,-33.35402472,1250.798549
6.3650,123.1537334,-33.48549115,1250.745409
6.3700,122.962654,-33.61806968,1250.690437
6.3750,122.7831978,-33.75160403,1250.633606
6.3800,122.6146784,-33.88557375,1250.575102
6.3850,122.456545,-34.01945578,1250.51513
6.3900,122.3096864,-34.15326468,1250.453455
6.3950,122.1729474,-34.28708259,1250.390334
6.4000,122.0470069,-34.42026928,1250.325575
6.4050,121.930717,-34.55227395,1250.259545
6.4100,121.8238132,-34.68208188,1250.192459
6.4150,121.7266487,-34.81000892,1250.124116
6.4200,121.6397792,-34.93579967,1250.05439
6.4250,121.5643058,-35.05851174,1249.983121
6.4300,121.5000767,-35.17855415,1249.910232
6.4350,121.4471593,-35.29629054,1249.835696
6.4400,121.406614,-35.41100139,1249.759284
6.4450,121.3784528,-35.52257677,1249.681101
6.4500,121.3628032,-35.63083996,1249.601069
6.4550,121.3596435,-35.73608891,1249.519033
6.4600,121.3694032,-35.83919067,1249.434908
6.4650,121.3923416,-35.93836433,1249.348629
6.4700,121.4281116,-36.03400233,1249.260251
6.4750,121.4748461,-36.12605288,1249.170259
6.4800,121.5335943,-36.21329276,1249.078541
6.4850,121.6022458,-36.29626317,1248.985462
6.4900,121.6799389,-36.37371678,1248.891316
6.4950,121.7658819,-36.4465572,1248.79619
6.5000,121.8601336,-36.51417217,1248.700153
6.5050,121.9610549,-36.57612502,1248.603635
6.5100,122.0677963,-36.63300465,1248.506836
6.5150,122.1783108,-36.68401146,1248.410357
6.5200,122.2927312,-36.73017765,1248.314046
6.5250,122.4090588,-36.77206574,1248.218379
6.5300,122.5274329,-36.80874179,1248.123461
6.5350,122.6482642,-36.8410409,1248.029111
6.5400,122.7704885,-36.86944674,1247.935652
6.5450,122.8948639,-36.89482943,1247.842908
6.5500,123.022122,-36.91703816,1247.750593
6.5550,123.1507452,-36.93667448,1247.659147
6.5600,123.2821983,-36.95488471,1247.568027
6.5650,123.4157467,-36.97024732,1247.477631
6.5700,123.5517151,-36.98508159,1247.387671
6.5750,123.6900738,-36.99763659,1247.298239
6.5800,123.8312706,-37.00770677,1247.209314
6.5850,123.9749182,-37.01642019,1247.120772
6.5900,124.1199705,-37.02347921,1247.032924
6.5950,124.2672293,-37.02895204,1246.94548
6.6000,124.4163266,-37.03197872,1246.858623
6.6050,124.5669079,-37.03371556,1246.772294
6.6100,124.7202819,-37.03451255,1246.686182
6.6150,124.8755293,-37.03449814,1246.600388
6.6200,125.0319674,-37.03304099,1246.515105
6.6250,125.1898171,-37.02974533,1246.430226
6.6300,125.3487099,-37.02499154,1246.345752
6.6350,125.5078055,-37.01964273,1246.261722
6.6400,125.6667738,-37.01377417,1246.178248
6.6450,125.8265425,-37.00723743,1246.095064
6.6500,125.9858941,-37.00024325,1246.012408
6.6550,126.1458241,-36.99300579,1245.929987
6.6600,126.3053215,-36.98514715,1245.84808
6.6650,126.4645198,-36.97697507,1245.766574
6.6700,126.623593,-36.96858499,1245.685424
6.6750,126.7830886,-36.96016536,1245.604479
6.6800,126.9430303,-36.95070617,1245.523786
6.6850,127.1044813,-36.94112635,1245.443063
6.6900,127.266343,-36.93040045,1245.3626
6.6950,127.4296013,-36.9189926,1245.282105
6.7000,127.5932027,-36.90631985,1245.201939
6.7050,127.7579746,-36.8923062,1245.12188
6.7100,127.9243366,-36.87700979,1245.041728
6.7150,128.0930277,-36.86116874,1244.961373
6.7200,128.2631507,-36.84477884,1244.880974
6.7250,128.433723,-36.82782087,1244.800673
6.7300,128.6050556,-36.81102381,1244.720473
6.7350,128.7776318,-36.7951163,1244.640219
6.7400,128.9509833,-36.78100777,1244.559913
6.7450,129.1245626,-36.76954773,1244.479596
6.7500,129.2979159,-36.76171042,1244.399303
6.7550,129.4722918,-36.75770233,1244.318928
6.7600,129.6473428,-36.75712745,1244.238572
6.7650,129.8236415,-36.76216793,1244.158154
6.7700,130.0021428,-36.77277429,1244.077503
6.7750,130.1838033,-36.78947358,1243.996395
6.7800,130.3690938,-36.81204113,1243.914826
6.7850,130.5592502,-36.84153262,1243.832558
6.7900,130.7546559,-36.8786164,1243.749617
6.7950,130.9564913,-36.92225844,1243.665922
6.8000,131.1650596,-36.97275289,1243.581366
6.8050,131.3813421,-37.02928515,1243.495964
6.8100,131.6053543,-37.0919556,1243.409769
6.8150,131.8369253,-37.1612985,1243.322726
6.8200,132.0758122,-37.23550122,1243.235189
6.8250,132.3224702,-37.31367503,1243.147116
6.8300,132.5758736,-37.39541268,1243.058701
6.8350,132.8336553,-37.4809843,1242.970501
6.8400,133.0955723,-37.56866329,1242.882618
6.8450,133.3595743,-37.65746887,1242.795504
6.8500,133.6243096,-37.74714816,1242.709405
6.8550,133.8886982,-37.83757793,1242.624491
6.8600,134.1505665,-37.92623488,1242.5414
6.8650,134.4091863,-38.01499501,1242.460007
6.8700,134.6623376,-38.10240843,1242.380745
6.8750,134.9088443,-38.18915337,1242.303785
6.8800,135.1460772,-38.2759203,1242.229501
6.8850,135.3736191,-38.36203367,1242.158028
6.8900,135.5906616,-38.44686399,1242.089494
6.8950,135.7959707,-38.53124163,1242.024098
6.9000,135.9896905,-38.61459713,1241.961878
6.9050,136.1706956,-38.69637507,1241.903011
6.9100,136.3377275,-38.77686415,1241.847792
6.9150,136.4906587,-38.855877,1241.796209
6.9200,136.6305286,-38.93371673,1241.748136
6.9250,136.755718,-39.01194509,1241.703716
6.9300,136.8660949,-39.08940927,1241.663104
6.9350,136.9610142,-39.16636921,1241.626417
6.9400,137.0408378,-39.24280763,1241.593575
6.9450,137.1029566,-39.31851343,1241.565119
6.9500,137.1491521,-39.39414866,1241.540673
6.9550,137.1782524,-39.46929322,1241.520568
6.9600,137.1899957,-39.54418301,1241.504729
6.9650,137.1837063,-39.6193421,1241.493312
6.9700,137.1593957,-39.6937915,1241.48645
6.9750,137.117207,-39.76762758,1241.484072
6.9800,137.0572481,-39.84249835,1241.486059
6.9850,136.9798966,-39.91665581,1241.492463
6.9900,136.8855085,-39.99217155,1241.503094
6.9950,136.7744529,-40.06829568,1241.517873
7.0000,136.6487645,-40.14620145,1241.536462
7.0050,136.5088756,-40.22605701,1241.558773
7.0100,136.3548201,-40.30870124,1241.584728
7.0150,136.1878326,-40.39318018,1241.614263
7.0200,136.0093004,-40.48027721,1241.647091
7.0250,135.8231451,-40.56944551,1241.682571
7.0300,135.6293794,-40.66185799,1241.720608
7.0350,135.4306716,-40.7571631,1241.760821
7.0400,135.2285298,-40.85412431,1241.803059
7.0450,135.0256626,-40.95538632,1241.846697
7.0500,134.8245576,-41.05903648,1241.89149
7.0550,134.6268362,-41.16679831,1241.937039
7.0600,134.4351331,-41.27841239,1241.982879
7.0650,134.2524568,-41.39400478,1242.028364
7.0700,134.0788355,-41.51287435,1242.07364
7.0750,133.9170829,-41.63572402,1242.118184
7.0800,133.7679478,-41.76377512,1242.161771
7.0850,133.6327873,-41.89541697,1242.204277
7.0900,133.5122463,-42.03090505,1242.245492
7.0950,133.4078223,-42.17105273,1242.285133
7.1000,133.3190392,-42.31561665,1242.323376
7.1050,133.2478869,-42.46578517,1242.359738
7.1100,133.193121,-42.6199925,1242.394579
7.1150,133.1563236,-42.77836455,1242.427678
7.1200,133.1364808,-42.94190517,1242.459153
7.1250,133.1344787,-43.11018009,1242.488869
7.1300,133.1486662,-43.28306466,1242.517233
7.1350,133.1783973,-43.45941453,1242.5444
7.1400,133.2223212,-43.64061218,1242.570522
7.1450,133.2787245,-43.82608505,1242.596024
7.1500,133.3453739,-44.01495499,1242.621356
7.1550,133.4207575,-44.20709733,1242.646784
7.1600,133.5037475,-44.40190535,1242.672604
7.1650,133.5918807,-44.5982467,1242.69937
7.1700,133.6836702,-44.7969164,1242.7274
7.1750,133.7780891,-44.99586187,1242.756876
7.1800,133.8729619,-45.19412896,1242.788258
7.1850,133.9666335,-45.39163602,1242.821872
7.1900,134.0578354,-45.58762205,1242.857874
7.1950,134.1452337,-45.78094728,1242.896547
7.2000,134.2272209,-45.97227908,1242.938093
7.2050,134.3030264,-46.16101741,1242.982718
7.2100,134.3729076,-46.34623066,1243.030399
7.2150,134.4367477,-46.52688977,1243.08125
7.2200,134.4927276,-46.70380265,1243.135523
7.2250,134.5423175,-46.87545267,1243.193058
7.2300,134.5853053,-47.04262847,1243.253942
7.2350,134.6232357,-47.20433522,1243.317862
7.2400,134.6562767,-47.36116407,1243.384862
7.2450,134.6853998,-47.51337271,1243.454791
7.2500,134.710551,-47.66149213,1243.527643
7.2550,134.731812,-47.80558577,1243.603395
7.2600,134.7504988,-47.94587716,1243.68182
7.2650,134.7668315,-48.08222503,1243.762939
7.2700,134.7814287,-48.21500276,1243.846551
7.2750,134.793765,-48.34419884,1243.9327
7.2800,134.8030557,-48.46967885,1244.021576
7.2850,134.8091144,-48.59262624,1244.113026
7.2900,134.811877,-48.71243943,1244.206979
7.2950,134.81125,-48.82866533,1244.30348
7.3000,134.8064089,-48.94025154,1244.402663
7.3050,134.7956197,-49.04775068,1244.50467
7.3100,134.7797642,-49.14988977,1244.609355
7.3150,134.7585053,-49.2473326,1244.716603
7.3200,134.7316258,-49.33872401,1244.826432
7.3250,134.6961124,-49.42544907,1244.939301
7.3300,134.6547548,-49.50554997,1245.054722
7.3350,134.6051593,-49.57972393,1245.173085
7.3400,134.5484826,-49.64948844,1245.294029
7.3450,134.4846031,-49.7126583,1245.417561
7.3500,134.4138877,-49.77099174,1245.543481
7.3550,134.3370674,-49.82389517,1245.671642
7.3600,134.2545987,-49.87181221,1245.801832
7.3650,134.1659399,-49.9153077,1245.934104
7.3700,134.0725918,-49.9551908,1246.068041
7.3750,133.9749119,-49.99131546,1246.203579
7.3800,133.8736316,-50.02392355,1246.340498
7.3850,133.7708296,-50.05408848,1246.478323
7.3900,133.6673416,-50.08148702,1246.616925
7.3950,133.5630962,-50.10682715,1246.756193
7.4000,133.4593639,-50.12991113,1246.89583
7.4050,133.3568831,-50.1505785,1247.035616
7.4100,133.2567792,-50.17092009,1247.175159
7.4150,133.1585,-50.1904771,1247.314544
7.4200,133.0629426,-50.20914774,1247.453513
7.4250,132.9688414,-50.22798103,1247.592282
7.4300,132.8768653,-50.24735192,1247.730634
7.4350,132.7877627,-50.26766719,1247.868381
7.4400,132.7033038,-50.28863209,1248.005157
7.4450,132.6238166,-50.31075616,1248.140867
7.4500,132.5509591,-50.33397321,1248.275222
7.4550,132.4849984,-50.35833243,1248.408137
7.4600,132.4262842,-50.38586427,1248.539432
7.4650,132.3762938,-50.41647736,1248.668846
7.4700,132.3365249,-50.44989983,1248.79603
7.4750,132.3065774,-50.48767483,1248.921022
7.4800,132.2889152,-50.53010449,1249.043247
7.4850,132.2847539,-50.57665897,1249.162508
7.4900,132.2940597,-50.62971136,1249.278715
7.4950,132.3176094,-50.68880967,1249.391706
7.5000,132.3567011,-50.75397405,1249.501172
7.5050,132.4115508,-50.82415715,1249.606985
7.5100,132.4823116,-50.89978666,1249.708972
7.5150,132.5696283,-50.98151852,1249.806941
7.5200,132.6732637,-51.0682697,1249.900813
7.5250,132.7929508,-51.15941453,1249.990713
7.5300,132.9275981,-51.25426914,1250.076775
7.5350,133.076209,-51.3526594,1250.159269
7.5400,133.2378578,-51.45377072,1250.238259
7.5450,133.4113706,-51.55616589,1250.314045
7.5500,133.595704,-51.65864712,1250.386883
7.5550,133.7897411,-51.76054619,1250.457106
7.5600,133.991624,-51.86120844,1250.525145
7.5650,134.2001497,-51.9599864,1250.591213
7.5700,134.4135001,-52.0563643,1250.655771
7.5750,134.6312665,-52.14879326,1250.718903
7.5800,134.8519215,-52.23795437,1250.780869
7.5850,135.0742084,-52.3230025,1250.842035
7.5900,135.2959377,-52.4017082,1250.902966
7.5950,135.5176859,-52.47483254,1250.963462
7.6000,135.7375594,-52.54288053,1251.023789
7.6050,135.9561027,-52.60577827,1251.083875
7.6100,136.1716142,-52.66358344,1251.144057
7.6150,136.3825412,-52.71703299,1251.204664
7.6200,136.5876861,-52.76618256,1251.2658
7.6250,136.7877575,-52.81087305,1251.327416
7.6300,136.9812434,-52.8512621,1251.389812
7.6350,137.1682557,-52.88654722,1251.452935
7.6400,137.3488122,-52.91591942,1251.516719
7.6450,137.5230797,-52.94031912,1251.581141
7.6500,137.6907857,-52.95890587,1251.646321
7.6550,137.8514458,-52.97114503,1251.712295
7.6600,138.0052802,-52.97755062,1251.779101
7.6650,138.1524168,-52.97699828,1251.846825
7.6700,138.2927167,-52.96954831,1251.915527
7.6750,138.4265459,-52.95572911,1251.985111
7.6800,138.5539944,-52.93441787,1252.055563
7.6850,138.6743117,-52.90598997,1252.126986
7.6900,138.7877868,-52.86988307,1252.199342
7.6950,138.8956006,-52.82695209,1252.272347
7.7000,138.9971587,-52.77831039,1252.345887
7.7050,139.0915914,-52.72312876,1252.420208
7.7100,139.1783889,-52.66107555,1252.495314
7.7150,139.2592664,-52.59279253,1252.570844
7.7200,139.3342553,-52.51846211,1252.646755
7.7250,139.4060316,-52.43769303,1252.722441
7.7300,139.4743338,-52.35069808,1252.798004
7.7350,139.5407416,-52.2580156,1252.87294
7.7400,139.604488,-52.16051371,1252.947384
7.7450,139.6668265,-52.05779989,1253.021164
7.7500,139.7275016,-51.95166938,1253.094241
7.7550,139.7874003,-51.84225725,1253.166483
7.7600,139.8466573,-51.72927835,1253.2379
7.7650,139.907499,-51.61347426,1253.307924
7.7700,139.9701256,-51.49391817,1253.376798
7.7750,140.0358281,-51.37115955,1253.444323
7.7800,140.1051705,-51.24559663,1253.510421
7.7850,140.1785865,-51.11742769,1253.575065
7.7900,140.2563087,-50.98596322,1253.638407
7.7950,140.3389202,-50.85210739,1253.700348
7.8000,140.4259419,-50.71635493,1253.760984
7.8050,140.5174939,-50.58023812,1253.820307
7.8100,140.6126014,-50.4435668,1253.878689
7.8150,140.7099547,-50.30641438,1253.9364
7.8200,140.8100207,-50.16869524,1253.993462
7.8250,140.9121229,-50.03191317,1254.049861
7.8300,141.017152,-49.89573098,1254.105499
7.8350,141.1235033,-49.76060137,1254.160721
7.8400,141.2304621,-49.62652076,1254.215674
7.8450,141.3389212,-49.49390359,1254.270108
7.8500,141.4466582,-49.36234964,1254.32455
7.8550,141.5555681,-49.23305195,1254.378455
7.8600,141.6643423,-49.10555589,1254.432175
7.8650,141.7720098,-48.97983435,1254.485933
7.8700,141.8782898,-48.85652758,1254.539738
7.8750,141.9826112,-48.73579226,1254.5938
7.8800,142.0840483,-48.61684917,1254.648371
7.8850,142.1824721,-48.49877018,1254.703581
7.8900,142.2784128,-48.38335682,1254.759193
7.8950,142.3707631,-48.26971136,1254.815532
7.9000,142.4592971,-48.15630117,1254.872717
7.9050,142.5448594,-48.0413339,1254.930693
7.9100,142.6272775,-47.92571858,1254.989438
7.9150,142.706582,-47.80687414,1255.048961
7.9200,142.7840074,-47.68555995,1255.10897
7.9250,142.8583584,-47.56002934,1255.169752
7.9300,142.9294859,-47.43128547,1255.231252
7.9350,142.9978614,-47.29894132,1255.293367
7.9400,143.061872,-47.16384929,1255.356443
7.9450,143.1214274,-47.02451879,1255.420531
7.9500,143.1759518,-46.88179709,1255.485782
7.9550,143.2262588,-46.7357505,1255.552005
7.9600,143.2714293,-46.5860653,1255.619414
7.9650,143.3122,-46.43236201,1255.687866
7.9700,143.3488082,-46.27492524,1255.757289
7.9750,143.3812032,-46.11296054,1255.827763
7.9800,143.4108293,-45.94768503,1255.898897
7.9850,143.4381083,-45.77844846,1255.970683
7.9900,143.4623792,-45.60664732,1256.043207
7.9950,143.4823213,-45.4313797,1256.116854
8.0000,143.4983689,-45.25251577,1256.191633
8.0050,143.5114097,-45.07107852,1256.267279
8.0100,143.521416,-44.88658822,1256.343764
8.0150,143.5280448,-44.69924979,1256.421076
8.0200,143.530729,-44.50920283,1256.499353
8.0250,143.5277575,-44.31737556,1256.578852
8.0300,143.5208452,-44.12303424,1256.659216
8.0350,143.5081652,-43.92687853,1256.74089
8.0400,143.4894814,-43.72795635,1256.823943
8.0450,143.4648583,-43.52714209,1256.908271
8.0500,143.4355887,-43.32336444,1256.993565
8.0550,143.4021665,-43.11652353,1257.079731
8.0600,143.364988,-42.90564426,1257.166682
8.0650,143.3230997,-42.68971999,1257.254876
8.0700,143.2773158,-42.47001347,1257.343949
8.0750,143.2278575,-42.24639619,1257.433863
8.0800,143.1740679,-42.01833567,1257.524895
8.0850,143.1163713,-41.78653425,1257.616909
8.0900,143.0559362,-41.5498066,1257.709734
8.0950,142.9930551,-41.30977388,1257.803172
8.1000,142.9281893,-41.06488479,1257.897143
8.1050,142.8625617,-40.81557216,1257.991507
8.1100,142.7955981,-40.5614993,1258.086326
8.1150,142.7285545,-40.30302389,1258.181248
8.1200,142.6617916,-40.03980593,1258.276217
8.1250,142.5950652,-39.7709054,1258.371387
8.1300,142.5271129,-39.49600284,1258.467027
8.1350,142.4578643,-39.21514294,1258.563048
8.1400,142.3880473,-38.92815916,1258.659328
8.1450,142.3150484,-38.63593233,1258.756483
8.1500,142.2400847,-38.33890116,1258.854262
8.1550,142.1607535,-38.03652904,1258.953306
8.1600,142.0773397,-37.72991739,1259.053525
8.1650,141.9902029,-37.41881053,1259.154906
8.1700,141.8995389,-37.10354027,1259.257418
8.1750,141.8039704,-36.78304161,1259.361551
8.1800,141.7050331,-36.45746839,1259.466888
8.1850,141.6015096,-36.12646406,1259.573658
8.1900,141.4930008,-35.78934037,1259.682044
8.1950,141.3790641,-35.44648475,1259.792048
8.2000,141.2612911,-35.09873906,1259.903235
8.2050,141.1379021,-34.74518968,1260.016138
8.2100,141.0099292,-34.38531555,1260.130531
8.2150,140.8756999,-34.02062825,1260.246734
8.2200,140.7344031,-33.65154531,1260.364969
8.2250,140.5863444,-33.27818374,1260.485261
8.2300,140.4305771,-32.9002015,1260.607821
8.2350,140.2665003,-32.51825462,1260.732892
8.2400,140.0940017,-32.13180297,1260.860672
8.2450,139.9119692,-31.74121904,1260.991677
8.2500,139.7209176,-31.34599833,1261.12575
8.2550,139.5177713,-30.94653307,1261.263841
8.2600,139.3030242,-30.54337942,1261.405876
8.2650,139.076304,-30.13850082,1261.551992
8.2700,138.8359091,-29.73149651,1261.702809
8.2750,138.581952,-29.32380744,1261.858182
8.2800,138.3146742,-28.91522469,1262.018294
8.2850,138.0330237,-28.50633795,1262.183333
8.2900,137.7384482,-28.09786316,1262.352787
8.2950,137.4316245,-27.69094406,1262.526372
8.3000,137.1139758,-27.28557614,1262.703757
8.3050,136.7863277,-26.8829373,1262.884554
8.3100,136.451042,-26.48378955,1263.067975
8.3150,136.1086397,-26.08850167,1263.2537
8.3200,135.7618011,-25.69839802,1263.44066
8.3250,135.4121227,-25.31365106,1263.628122
8.3300,135.0609191,-24.93536329,1263.815374
8.3350,134.710671,-24.5644962,1264.001357
8.3400,134.363195,-24.2016325,1264.185244
8.3450,134.0212837,-23.84614344,1264.366011
8.3500,133.6859926,-23.49889958,1264.543177
8.3550,133.3586138,-23.16113022,1264.716046
8.3600,133.0409536,-22.83237059,1264.884032
8.3650,132.7350352,-22.51384731,1265.046286
8.3700,132.4404739,-22.20524798,1265.202911
8.3750,132.1578202,-21.90691779,1265.353663
8.3800,131.8884035,-21.61931672,1265.498158
8.3850,131.6321332,-21.34124014,1265.636519
8.3900,131.3888905,-21.0726781,1265.768865
8.3950,131.1595696,-20.81173085,1265.895216
8.4000,130.9434466,-20.55831166,1266.015947
8.4050,130.7402018,-20.31140621,1266.131336
8.4100,130.5497256,-20.07050134,1266.241665
8.4150,130.3712801,-19.83321498,1266.347476
8.4200,130.2048515,-19.59928617,1266.448879
8.4250,130.0501767,-19.36870629,1266.54593
8.4300,129.9075401,-19.1422469,1266.63843
8.4350,129.7758571,-18.91926292,1266.726938
8.4400,129.6534831,-18.70022739,1266.811875
8.4450,129.5413858,-18.48465626,1266.892938
8.4500,129.4379054,-18.27293266,1266.970533
8.4550,129.3422772,-18.06468065,1267.044909
8.4600,129.2533566,-17.86040173,1267.116283
8.4650,129.1693513,-17.65949749,1267.185195
8.4700,129.0897141,-17.46103917,1267.251931
8.4750,129.0139085,-17.26660058,1267.316321
8.4800,128.9417837,-17.07340915,1267.378861
8.4850,128.8727808,-16.88290319,1267.439507
8.4900,128.8053829,-16.69387034,1267.498973
8.4950,128.7387492,-16.50570139,1267.557659
8.5000,128.6701126,-16.31797195,1267.616607
8.5050,128.5994752,-16.1318797,1267.675572
8.5100,128.5241603,-15.94536774,1267.735871
8.5150,128.4442961,-15.75702599,1267.797692
8.5200,128.3595955,-15.56568571,1267.861488
8.5250,128.268293,-15.37113309,1267.927832
8.5300,128.1694971,-15.1722419,1267.99736
8.5350,128.0618755,-14.96792798,1268.070698
8.5400,127.944381,-14.75714955,1268.148317
8.5450,127.8171013,-14.53890574,1268.230277
8.5500,127.6788478,-14.31326803,1268.316982
8.5550,127.5298685,-14.07902859,1268.408558
8.5600,127.3693915,-13.83651158,1268.505343
8.5650,127.1975744,-13.58477204,1268.607227
8.5700,127.0146747,-13.32455709,1268.714051
8.5750,126.8202516,-13.0546933,1268.826137
8.5800,126.6124886,-12.77698115,1268.943854
8.5850,126.392656,-12.493067,1269.066702
8.5900,126.1597961,-12.20280302,1269.195092
8.5950,125.914616,-11.906926,1269.328664
8.6000,125.6569152,-11.60678847,1269.467349
8.6050,125.3864689,-11.30266721,1269.611246
8.6100,125.1032757,-10.9954307,1269.760208
8.6150,124.807504,-10.68614891,1269.914077
8.6200,124.49994,-10.37531346,1270.072595
8.6250,124.1812826,-10.06365612,1270.235483
8.6300,123.8504742,-9.7519506,1270.403004
8.6350,123.508306,-9.438875992,1270.575137
8.6400,123.1556635,-9.125297534,1270.751527
8.6450,122.7912453,-8.812393839,1270.932607
8.6500,122.4156746,-8.500815937,1271.118038
8.6550,122.0291678,-8.189414287,1271.30805
8.6600,121.632226,-7.879573602,1271.502365
8.6650,121.2256123,-7.570556482,1271.700891
8.6700,120.8108188,-7.261639628,1271.903248
8.6750,120.3889739,-6.951384891,1272.109282
8.6800,119.9611444,-6.638782714,1272.318818
8.6850,119.5275331,-6.324400498,1272.531724
8.6900,119.0902626,-6.008573256,1272.747037
8.6950,118.6480254,-5.690220619,1272.965406
8.7000,118.2036875,-5.369617775,1273.185626
8.7050,117.7564804,-5.046777942,1273.407946
8.7100,117.308063,-4.721521319,1273.631715
8.7150,116.85892,-4.395411983,1273.856541
8.7200,116.4087791,-4.068881727,1274.082311
8.7250,115.9589701,-3.741589718,1274.308653
8.7300,115.5094308,-3.413041099,1274.53572
8.7350,115.0623098,-3.083663996,1274.762629
8.7400,114.6171466,-2.755046809,1274.989292
8.7450,114.1748227,-2.426061748,1275.215588
8.7500,113.7358908,-2.095733311,1275.441484
8.7550,113.3000834,-1.765312292,1275.666858
8.7600,112.8681638,-1.434282589,1275.891473
8.7650,112.4399557,-1.10327265,1276.11527
8.7700,112.015758,-0.7731131098,1276.337762
8.7750,111.595506,-0.4429079271,1276.55917
8.7800,111.1780621,-0.1139371311,1276.77964
8.7850,110.764351,0.2139260351,1276.99895
8.7900,110.3555919,0.5398673436,1277.21635
8.7950,109.9510774,0.8646109547,1277.432237
8.8000,109.5514924,1.188224434,1277.646307
8.8050,109.1566075,1.510624901,1277.858802
8.8100,108.767587,1.830825796,1278.068923
8.8150,108.3845153,2.149226499,1278.2768
8.8200,108.0061453,2.466748097,1278.483034
8.8250,107.6333612,2.78309949,1278.687141
8.8300,107.2671828,3.099710371,1278.888954
8.8350,106.9071246,3.415169097,1279.088274
8.8400,106.5533779,3.729526616,1279.285154
8.8450,106.2055069,4.042078005,1279.479487
8.8500,105.8644144,4.352788568,1279.670993
8.8550,105.5302032,4.660550686,1279.859238
8.8600,105.2021784,4.965667075,1280.044569
8.8650,104.8808344,5.268484276,1280.226958
8.8700,104.5661148,5.569111225,1280.406466
8.8750,104.2589551,5.866037523,1280.582302
8.8800,103.9591244,6.160347463,1280.754801
8.8850,103.66529,6.452034738,1280.92456
8.8900,103.3782612,6.741398432,1281.091214
8.8950,103.0973544,7.02882877,1281.255289
8.9000,102.8222882,7.313647836,1281.416652
8.9050,102.553065,7.59636086,1281.575435
8.9100,102.2882722,7.876126422,1281.732374
8.9150,102.0283365,8.153522806,1281.887222
8.9200,101.7717895,8.429453373,1282.040798
8.9250,101.517477,8.703826804,1282.193686
8.9300,101.2663659,8.977864785,1282.345749
8.9350,101.0193081,9.249707326,1282.496193
8.9400,100.7759987,9.521000455,1282.645564
8.9450,100.5375266,9.792326887,1282.793336
8.9500,100.3029749,10.063974,1282.939975
8.9550,100.0726892,10.33568492,1283.08531
8.9600,99.84633679,10.60692495,1283.229243
8.9650,99.62261639,10.8781613,1283.37251
8.9700,99.40136516,11.1479233,1283.514784
8.9750,99.18318887,11.4168705,1283.6559
8.9800,98.9672099,11.68420796,1283.796062
8.9850,98.75322265,11.94901429,1283.935095
8.9900,98.54090432,12.21183754,1284.073335
8.9950,98.33119182,12.47223924,1284.210338
9.0000,98.12335908,12.72996412,1284.346371
9.0050,97.91829761,12.98448633,1284.480937
9.0100,97.71563967,13.23558492,1284.614111
9.0150,97.51538801,13.48421636,1284.746162
9.0200,97.31676942,13.72929979,1284.877216
9.0250,97.1183853,13.97157254,1285.008078
9.0300,96.91927208,14.21079056,1285.139052
9.0350,96.71842288,14.44610579,1285.270429
9.0400,96.51613601,14.6785495,1285.402283
9.0450,96.31198863,14.90689768,1285.534549
9.0500,96.10495367,15.13096189,1285.667672
9.0550,95.89536432,15.35117193,1285.801657
9.0600,95.68233754,15.568848,1285.937232
9.0650,95.4657698,15.78393497,1286.074443
9.0700,95.24423188,15.99765695,1286.214483
9.0750,95.01919459,16.21063701,1286.356875
9.0800,94.79050863,16.42274169,1286.501617
9.0850,94.5575569,16.63564606,1286.649482
9.0900,94.32015203,16.84971222,1286.800657
9.0950,94.07850868,17.06461477,1286.955189
9.1000,93.8331911,17.28080291,1287.112791
9.1050,93.58327904,17.50004709,1287.274389
9.1100,93.33021343,17.72274013,1287.439323
9.1150,93.07411462,17.94960128,1287.607654
9.1200,92.81523435,18.17992791,1287.779077
9.1250,92.5554315,18.41525683,1287.95302
9.1300,92.29420444,18.65441361,1288.129355
9.1350,92.03395844,18.89891538,1288.307345
9.1400,91.77491843,19.14773624,1288.486452
9.1450,91.51675791,19.40147934,1288.667089
9.1500,91.26027155,19.6602847,1288.848723
9.1550,91.00562984,19.92380547,1289.031157
9.1600,90.75367756,20.19211119,1289.213882
9.1650,90.50446743,20.46461147,1289.396616
9.1700,90.25887589,20.74117396,1289.578785
9.1750,90.01735304,21.02064661,1289.759818
9.1800,89.77999111,21.30202641,1289.939453
9.1850,89.54815149,21.58487978,1290.116727
9.1900,89.32071174,21.86759341,1290.291857
9.1950,89.09659637,22.1484957,1290.464801
9.2000,88.8762557,22.42699546,1290.635215
9.2050,88.65917795,22.7014236,1290.802824
9.2100,88.44589704,22.97267411,1290.967418
9.2150,88.23615585,23.23828614,1291.128583
9.2200,88.03057607,23.49778018,1291.28592
9.2250,87.83009504,23.7501344,1291.438557
9.2300,87.63366034,23.99329205,1291.586518
9.2350,87.44016584,24.22793961,1291.730572
9.2400,87.24892525,24.45239554,1291.870605
9.2450,87.05937511,24.6646115,1292.006418
9.2500,86.87148129,24.86516433,1292.138238
9.2550,86.68533809,25.05417723,1292.26586
9.2600,86.50128356,25.23097531,1292.38902
9.2650,86.32022041,25.39583854,1292.507225
9.2700,86.14276026,25.54885436,1292.620158
9.2750,85.96787668,25.69038355,1292.728561
9.2800,85.79614529,25.81989863,1292.831756
9.2850,85.62794233,25.9389511,1292.930054
9.2900,85.46188875,26.04778068,1293.024192
9.2950,85.29893274,26.14730106,1293.113761
9.3000,85.13842771,26.23794619,1293.199355
9.3050,84.97994291,26.32113659,1293.281459
9.3100,84.82386949,26.39726557,1293.360041
9.3150,84.66974297,26.46579662,1293.43519
9.3200,84.51768234,26.52954143,1293.507712
9.3250,84.36753117,26.58701406,1293.577335
9.3300,84.21989964,26.63932271,1293.644142
9.3350,84.07418025,26.68754677,1293.708887
9.3400,83.93072251,26.73299124,1293.771724
9.3450,83.78770886,26.77721047,1293.834225
9.3500,83.64564475,26.82028949,1293.896245
9.3550,83.5037673,26.86345451,1293.958465
9.3600,83.36180718,26.90687508,1294.021168
9.3650,83.2199454,26.9508323,1294.084391
9.3700,83.07879207,26.99521669,1294.147872
9.3750,82.93571418,27.03955184,1294.212868
9.3800,82.79133428,27.08393047,1294.279122
9.3850,82.64485898,27.1294015,1294.347329
9.3900,82.4956604,27.17649483,1294.417976
9.3950,82.34480901,27.22553868,1294.490443
9.4000,82.19130203,27.27887519,1294.5661
9.4050,82.03721325,27.33629588,1294.643722
9.4100,81.8803633,27.39832716,1294.724797
9.4150,81.72126493,27.46546169,1294.809157
9.4200,81.56105457,27.53877038,1294.896551
9.4250,81.39814974,27.61806628,1294.987934
9.4300,81.23166067,27.70395883,1295.084001
9.4350,81.06157273,27.79664663,1295.184777
9.4400,80.88834209,27.89691012,1295.290336
9.4450,80.7121709,28.00412357,1295.400243
9.4500,80.53275359,28.11928532,1295.515014
9.4550,80.35178618,28.24230247,1295.633642
9.4600,80.16922858,28.37206885,1295.755701
9.4650,79.98591455,28.50892529,1295.880937
9.4700,79.80123676,28.65135651,1296.009186
9.4750,79.61395584,28.80041049,1296.141511
9.4800,79.42568658,28.95392198,1296.276288
9.4850,79.23594736,29.11106428,1296.413528
9.4900,79.04510675,29.27106996,1296.552833
9.4950,78.85505425,29.43309174,1296.692837
9.5000,78.66610726,29.59681898,1296.83325
9.5050,78.47880672,29.7604887,1296.97324
9.5100,78.29319105,29.92232926,1297.112188
9.5150,78.10885112,30.08212273,1297.250335
9.5200,77.92665648,30.23887972,1297.386747
9.5250,77.74573421,30.39151865,1297.52149
9.5300,77.568167,30.54048158,1297.653338
9.5350,77.39340721,30.68369906,1297.781964
9.5400,77.22281771,30.82066985,1297.906425
9.5450,77.05676069,30.95179422,1298.026602
9.5500,76.89628002,31.07605206,1298.141503
9.5550,76.74129932,31.1921969,1298.25077
9.5600,76.59190847,31.30064849,1298.354374
9.5650,76.44827426,31.40108285,1298.451958
9.5700,76.31081053,31.4939638,1298.543383
9.5750,76.17964859,31.57711313,1298.62785
9.5800,76.05599023,31.65193888,1298.705109
9.5850,75.94009166,31.718376,1298.774986
9.5900,75.8325636,31.77663984,1298.837155
9.5950,75.73306315,31.82596323,1298.891564
9.6000,75.64098007,31.86666529,1298.93867
9.6050,75.55666907,31.89886253,1298.978281
9.6100,75.47930976,31.9231729,1299.011208
9.6150,75.40865287,31.94019293,1299.037771
9.6200,75.3435545,31.94865676,1299.058473
9.6250,75.28393581,31.94999015,1299.073878
9.6300,75.22808147,31.94355334,1299.0849
9.6350,75.17550507,31.9300576,1299.092164
9.6400,75.12429145,31.9098944,1299.097047
9.6450,75.07499766,31.88228297,1299.099038
9.6500,75.02571926,31.84856838,1299.09966
9.6550,74.97527493,31.80917566,1299.099896
9.6600,74.92430781,31.76528272,1299.099765
9.6650,74.87267384,31.71822858,1299.099777
9.6700,74.81934591,31.66929515,1299.100831
9.6750,74.76508669,31.62032835,1299.103147
9.6800,74.70832569,31.57302807,1299.108324
9.6850,74.64955727,31.52765914,1299.116023
9.6900,74.5888901,31.48524506,1299.12654
9.6950,74.5252392,31.44721656,1299.140902
9.7000,74.45999392,31.41353833,1299.158265
9.7050,74.39141738,31.38432983,1299.179582
9.7100,74.32115284,31.36186535,1299.204576
9.7150,74.24995413,31.34601045,1299.232733
9.7200,74.17648703,31.33760285,1299.265084
9.7250,74.10150616,31.33601302,1299.30081
9.7300,74.02610634,31.34277659,1299.339836
9.7350,73.95038374,31.35763786,1299.381904
9.7400,73.87389961,31.37983702,1299.427023
9.7450,73.79818891,31.41021017,1299.474538
9.7500,73.72262474,31.44733763,1299.524459
9.7550,73.64732657,31.49142562,1299.576797
9.7600,73.57312789,31.54088303,1299.630584
9.7650,73.49848871,31.5947939,1299.6863
9.7700,73.42525055,31.65219392,1299.742644
9.7750,73.35354333,31.71155787,1299.799137
9.7800,73.28296042,31.7718741,1299.855593
9.7850,73.21301929,31.83121006,1299.911786
9.7900,73.14443271,31.88899618,1299.967007
9.7950,73.07703677,31.94356263,1300.020794
9.8000,73.01027681,31.99367772,1300.073077
9.8050,72.943584,32.03912854,1300.124192
9.8100,72.87816098,32.07820443,1300.172779
9.8150,72.81336363,32.10990007,1300.218825
9.8200,72.74887743,32.13378825,1300.262344
9.8250,72.68526427,32.14929852,1300.302956
9.8300,72.62148027,32.15572826,1300.341076
9.8350,72.55852214,32.15332619,1300.376127
9.8400,72.49531729,32.14182339,1300.408734
9.8450,72.43221281,32.1209353,1300.438596
9.8500,72.368802,32.09148523,1300.466186
9.8550,72.3062985,32.05369013,1300.490907
9.8600,72.24538295,32.00876952,1300.512684
9.8650,72.18479108,31.95635121,1300.532342
9.8700,72.12509422,31.89701216,1300.549685
9.8750,72.06686401,31.83285256,1300.564963
9.8800,72.00896973,31.76349743,1300.578882
9.8850,71.95249029,31.68995994,1300.590985
9.8900,71.89806546,31.61276856,1300.601012
9.8950,71.84511721,31.532473,1300.609634
9.9000,71.79419155,31.44982006,1300.61674
9.9050,71.74509182,31.36523391,1300.622661
9.9100,71.69825323,31.27936234,1300.627305
9.9150,71.65438832,31.19321189,1300.630649
9.9200,71.61350801,31.10721909,1300.632696
9.9250,71.57538926,31.02272615,1300.633999
9.9300,71.54019137,30.9391989,1300.634363
9.9350,71.50766459,30.85774047,1300.634162
9.9400,71.47789914,30.77793652,1300.633334
9.9450,71.45005995,30.70025927,1300.632424
9.9500,71.42504102,30.62498681,1300.631004
9.9550,71.40282421,30.55235636,1300.629176
9.9600,71.38254636,30.48177393,1300.627361
9.9650,71.36373697,30.4129662,1300.625725
9.9700,71.34619112,30.34608238,1300.624447
9.9750,71.32927718,30.28002685,1300.623529
9.9800,71.3138798,30.21454923,1300.622185
9.9850,71.29908388,30.14985658,1300.621098
9.9900,71.28507292,30.08469733,1300.619739
9.9950,71.27191623,30.01912242,1300.618004
10.0000,71.25881687,29.95213252,1300.615985
10.0050,71.2463368,29.8837227,1300.61339
10.0100,71.23366254,29.81249114,1300.610145
10.0150,71.22039146,29.73702774,1300.606014
10.0200,71.20742216,29.65718826,1300.600386
10.0250,71.1946526,29.57369277,1300.593596
10.0300,71.18147762,29.48492875,1300.585297
10.0350,71.16787269,29.39007404,1300.575314
10.0400,71.15434854,29.2902353,1300.563564
10.0450,71.14025785,29.18320141,1300.549821
10.0500,71.12608279,29.0688008,1300.533665
10.0550,71.11024245,28.94652899,1300.515911
10.0600,71.09284198,28.81664445,1300.496539
10.0650,71.07414876,28.67848132,1300.475269
10.0700,71.05346929,28.53228769,1300.452461
10.0750,71.03103879,28.37719583,1300.427738
10.0800,71.00573498,28.21379427,1300.401973
10.0850,70.97858811,28.04342918,1300.374911
10.0900,70.94938774,27.86496193,1300.346362
10.0950,70.91794722,27.67954176,1300.316875
10.1000,70.88434582,27.48747621,1300.286445
10.1050,70.8495326,27.2892268,1300.254541
10.1100,70.8132096,27.08587551,1300.221744
10.1150,70.77645116,26.87834612,1300.187738
10.1200,70.73859365,26.66605047,1300.152821
10.1250,70.69980743,26.45054343,1300.117282
10.1300,70.66039867,26.23118443,1300.08087
10.1350,70.62044086,26.00912484,1300.04396
10.1400,70.57975632,25.78462341,1300.006623
10.1450,70.53822787,25.55827061,1299.969204
10.1500,70.49606608,25.33006257,1299.931588
10.1550,70.45261337,25.10135062,1299.894638
10.1600,70.40782609,24.87228995,1299.858516
10.1650,70.36292684,24.64279567,1299.822367
10.1700,70.31755068,24.41442887,1299.786997
10.1750,70.27242753,24.18705959,1299.751902
10.1800,70.22698745,23.96144491,1299.717546
10.1850,70.18130331,23.73735752,1299.683905
10.1900,70.13517749,23.51410831,1299.651016
10.1950,70.08848611,23.29248545,1299.619106
10.2000,70.04167557,23.07262597,1299.587943
10.2050,69.994803,22.85511003,1299.557707
10.2100,69.947501,22.63961432,1299.52848
10.2150,69.89988935,22.4264217,1299.500353
10.2200,69.8526312,22.21639819,1299.473188
10.2250,69.80517243,22.00889236,1299.447153
10.2300,69.75737475,21.80641202,1299.423022
10.2350,69.71022435,21.60772281,1299.399895
10.2400,69.66382448,21.41456297,1299.37817
10.2450,69.61795122,21.2271455,1299.358049
10.2500,69.57302685,21.04580263,1299.339338
10.2550,69.52889103,20.87037448,1299.322052
10.2600,69.48533985,20.70086034,1299.306276
10.2650,69.44258766,20.5375898,1299.291943
10.2700,69.40124931,20.38026042,1299.278557
10.2750,69.36157053,20.22908447,1299.265952
10.2800,69.32248716,20.08491453,1299.255111
10.2850,69.28535442,19.94659377,1299.244782
10.2900,69.24980837,19.81487753,1299.235401
10.2950,69.2168049,19.68931518,1299.226289
10.3000,69.18629896,19.57072194,1299.217644
10.3050,69.15848555,19.45830592,1299.209104
10.3100,69.13362198,19.35102356,1299.20028
10.3150,69.11227667,19.24983095,1299.191115
10.3200,69.09518509,19.15342019,1299.180714
10.3250,69.08202204,19.06057122,1299.168936
10.3300,69.07362544,18.97159034,1299.15533
10.3350,69.06940531,18.88523889,1299.139907
10.3400,69.06927851,18.79944694,1299.122151
10.3450,69.07402094,18.7151987,1299.101839
10.3500,69.08365669,18.6314938,1299.078681
10.3550,69.09891165,18.54751628,1299.052015
10.3600,69.11909393,18.46351528,1299.022413
10.3650,69.14370461,18.37828985,1298.989865
10.3700,69.1720793,18.29186581,1298.954774
10.3750,69.20508008,18.20460414,1298.916737
10.3800,69.24335402,18.11647442,1298.875367
10.3850,69.28654841,18.02585204,1298.83041
10.3900,69.33402195,17.93409088,1298.782671
10.3950,69.38602312,17.84103822,1298.731922
10.4000,69.44283566,17.74663956,1298.678034
10.4050,69.50331607,17.65163489,1298.621869
10.4100,69.56753264,17.55554499,1298.563335
10.4150,69.63560691,17.4581798,1298.502306
10.4200,69.70729038,17.36047537,1298.439221
10.4250,69.78263605,17.26157526,1298.373897
10.4300,69.86150806,17.16262673,1298.306668
10.4350,69.94375284,17.06398129,1298.237825
10.4400,70.0310144,16.96613444,1298.166529
10.4450,70.12290535,16.8688531,1298.092985
10.4500,70.21991941,16.77216469,1298.016988
10.4550,70.3218657,16.67661035,1297.938799
10.4600,70.42866635,16.58114091,1297.858173
10.4650,70.54062455,16.486505,1297.775238
10.4700,70.65832511,16.39215447,1297.689463
10.4750,70.78118459,16.29804064,1297.601304
10.4800,70.90917231,16.20364581,1297.510716
10.4850,71.04251859,16.10911661,1297.417593
10.4900,71.17985494,16.01397142,1297.322594
10.4950,71.32213645,15.91777302,1297.225089
10.5000,71.46837366,15.82097563,1297.125755
10.5050,71.61905125,15.72300575,1297.024085
10.5100,71.77304809,15.62431663,1296.920965
10.5150,71.93004868,15.52460256,1296.816293
10.5200,72.08949045,15.42393001,1296.710639
10.5250,72.25122863,15.32207648,1296.60396
10.5300,72.41599385,15.21836835,1296.495745
10.5350,72.58250956,15.11333837,1296.386861
10.5400,72.75139241,15.00592719,1296.276693
10.5450,72.92319082,14.89769977,1296.165526
10.5500,73.09752004,14.78771136,1296.053337
10.5550,73.27497962,14.67687718,1295.940046
10.5600,73.45627874,14.56626398,1295.825519
10.5650,73.64145514,14.45699587,1295.710091
10.5700,73.83036306,14.34918444,1295.593901
10.5750,74.02463692,14.24417424,1295.476376
10.5800,74.22519518,14.14057729,1295.356601
10.5850,74.43113532,14.03886341,1295.235284
10.5900,74.64409475,13.93867026,1295.111296
10.5950,74.86318445,13.83958227,1294.985004
10.6000,75.08868157,13.74066242,1294.856089
10.6050,75.32077312,13.64273523,1294.72458
10.6100,75.55923618,13.5451819,1294.590306
10.6150,75.80346639,13.44865129,1294.453793
10.6200,76.05351196,13.35343058,1294.315096
10.6250,76.30956972,13.25934505,1294.174024
10.6300,76.57126336,13.16547281,1294.03052
10.6350,76.83899992,13.07353328,1293.88483
10.6400,77.11320296,12.98347472,1293.736655
10.6450,77.39282263,12.89472095,1293.586409
10.6500,77.6776011,12.80763542,1293.434338
10.6550,77.9686046,12.72308245,1293.280115
10.6600,78.2657628,12.6405423,1293.123611
10.6650,78.56974946,12.55957816,1292.964317
10.6700,78.88065213,12.48050995,1292.802346
10.6750,79.19814908,12.40294137,1292.637637
10.6800,79.52194094,12.32619177,1292.470166
10.6850,79.85176593,12.25086268,1292.300266
10.6900,80.18803341,12.17571534,1292.127218
10.6950,80.53039732,12.10020821,1291.951019
10.7000,80.87779472,12.02365471,1291.772041
10.7050,81.23092984,11.94517056,1291.589656
10.7100,81.58885568,11.86390556,1291.404103
10.7150,81.95095152,11.77930968,1291.215523
10.7200,82.31684873,11.69132383,1291.024103
10.7250,82.68509061,11.59885511,1290.830374
10.7300,83.05539359,11.50044872,1290.634083
10.7350,83.42763001,11.39597793,1290.435275
10.7400,83.80006315,11.28465549,1290.234778
10.7450,84.17223447,11.16669306,1290.032806
10.7500,84.54332628,11.0418691,1289.829693
10.7550,84.91280672,10.90909929,1289.625397
10.7600,85.28070981,10.76914194,1289.420139
10.7650,85.6451554,10.62123762,1289.214602
10.7700,86.00569605,10.46437734,1289.008815
10.7750,86.36196249,10.29787768,1288.802811
10.7800,86.71395603,10.12198401,1288.596529
10.7850,87.05984785,9.936756098,1288.391114
10.7900,87.40093648,9.742412104,1288.185934
10.7950,87.73630266,9.539407523,1287.981488
10.8000,88.06675298,9.328687635,1287.777646
10.8050,88.39153458,9.10990802,1287.574877
10.8100,88.71151716,8.883803093,1287.372874
10.8150,89.02552109,8.650798931,1287.172449
10.8200,89.33452424,8.411135341,1286.973155
10.8250,89.63917417,8.166366022,1286.775116
10.8300,89.94061914,7.917689492,1286.577985
10.8350,90.238223,7.666750932,1286.382496
10.8400,90.53215327,7.413862661,1286.188686
10.8450,90.82292131,7.159913523,1285.996455
10.8500,91.11103551,6.904810563,1285.805508
10.8550,91.39691071,6.650986534,1285.616227
10.8600,91.67990145,6.397208003,1285.42856
10.8650,91.96073538,6.143804467,1285.242163
10.8700,92.23963992,5.892179481,1285.057304
10.8750,92.51649751,5.64160966,1284.873913
10.8800,92.79180566,5.393938478,1284.692215
10.8850,93.06625875,5.148841618,1284.511816
10.8900,93.33939267,4.908106701,1284.333417
10.8950,93.61210552,4.672635616,1284.156843
10.9000,93.8854959,4.442188549,1283.981534
10.9050,94.16001943,4.217749502,1283.80749
10.9100,94.43725317,3.999933719,1283.634174
10.9150,94.71719353,3.787470924,1283.461279
10.9200,94.99936083,3.579802196,1283.288818
10.9250,95.28420085,3.377591454,1283.116767
10.9300,95.57134511,3.179925955,1282.945113
10.9350,95.86148078,2.985349352,1282.773138
10.9400,96.15405594,2.794627933,1282.601216
10.9450,96.44989045,2.607003695,1282.42883
10.9500,96.74917454,2.422191633,1282.255693
10.9550,97.05047693,2.238582465,1282.082065
10.9600,97.35459468,2.056883397,1281.907851
10.9650,97.66115926,1.876799997,1281.733038
10.9700,97.96969553,1.697589333,1281.557728
10.9750,98.2795805,1.519145182,1281.382175
10.9800,98.59076836,1.340823266,1281.206271
10.9850,98.90360277,1.162526614,1281.029808
10.9900,99.21831673,0.9842251461,1280.852716
10.9950,99.53376622,0.8051779667,1280.675339
11.0000,99.85016634,0.6252203749,1280.497496
11.0050,100.1655573,0.4428360842,1280.319876
11.0100,100.4800351,0.25841066,1280.142439
11.0150,100.7924209,0.07051368051,1279.96534
11.0200,101.1019915,-0.122215614,1279.788645
11.0250,101.4089171,-0.3194089168,1279.612215
11.0300,101.7116356,-0.5210243488,1279.436842
11.0350,102.011214,-0.7277562448,1279.261747
11.0400,102.3070764,-0.9390303138,1279.08724
11.0450,102.5994391,-1.154529262,1278.913332
11.0500,102.8875948,-1.374867499,1278.740302
11.0550,103.1713465,-1.600112056,1278.56827
11.0600,103.4507148,-1.830412477,1278.397167
11.0650,103.7264519,-2.064755499,1278.226996
11.0700,103.9980038,-2.302018217,1278.058219
11.0750,104.2655367,-2.541506425,1277.890741
11.0800,104.5296219,-2.78271743,1277.724566
11.0850,104.7916585,-3.025725575,1277.558869
11.0900,105.0510211,-3.269329636,1277.394213
11.0950,105.3079488,-3.513970123,1277.230398
11.1000,105.5625509,-3.760240182,1277.067188
11.1050,105.8145171,-4.006850404,1276.904893
11.1100,106.0635751,-4.254100952,1276.743519
11.1150,106.3107433,-4.501276635,1276.582733
11.1200,106.5555695,-4.748205186,1276.422716
11.1250,106.7975979,-4.99603311,1276.263442
11.1300,107.0351838,-5.244287958,1276.105663
11.1350,107.2693745,-5.493574102,1275.948896
11.1400,107.4994247,-5.743473877,1275.793496
11.1450,107.7255942,-5.994573765,1275.639268
11.1500,107.9474372,-6.24564395,1275.486691
11.1550,108.1661927,-6.496988805,1275.335152
11.1600,108.3835924,-6.747242008,1275.184395
11.1650,108.599953,-6.996090757,1275.034412
11.1700,108.816046,-7.244006495,1274.884728
11.1750,109.0310852,-7.4908003,1274.735758
11.1800,109.2457753,-7.736477901,1274.587153
11.1850,109.4611029,-7.979361581,1274.438839
11.1900,109.6779385,-8.220309675,1274.290259
11.1950,109.8971687,-8.459151309,1274.141144
11.2000,110.1179914,-8.69648199,1273.991718
11.2050,110.3408308,-8.933328958,1273.841636
11.2100,110.5646183,-9.16907277,1273.691441
11.2150,110.790311,-9.404234448,1273.540756
11.2200,111.018055,-9.638531321,1273.389724
11.2250,111.2483132,-9.873016793,1273.237931
11.2300,111.4816742,-10.1079416,1273.085143
11.2350,111.7164214,-10.3440303,1272.932036
11.2400,111.9532615,-10.58068344,1272.778519
11.2450,112.1898992,-10.81905535,1272.625291
11.2500,112.4261292,-11.05961488,1272.472493
11.2550,112.6617113,-11.302306,1272.320264
11.2600,112.8954719,-11.54765265,1272.168941
11.2650,113.1273221,-11.79627959,1272.018662
11.2700,113.3570773,-12.04848448,1271.86933
11.2750,113.58478,-12.30462715,1271.720904
11.2800,113.8110488,-12.56430228,1271.573136
11.2850,114.0358136,-12.82757314,1271.426081
11.2900,114.2589228,-13.09568695,1271.279584
11.2950,114.4797792,-13.36836545,1271.133977
11.3000,114.6994688,-13.6459992,1270.988746
11.3050,114.9186115,-13.92838313,1270.843608
11.3100,115.1368633,-14.21473846,1270.698851
11.3150,115.3546789,-14.50495212,1270.554498
11.3200,115.5725462,-14.79826697,1270.410401
11.3250,115.7913844,-15.09484205,1270.266137
11.3300,116.0106001,-15.39491526,1270.121829
11.3350,116.2292222,-15.69812962,1269.977744
11.3400,116.4468314,-16.00641218,1269.833689
11.3450,116.6636769,-16.31969386,1269.689528
11.3500,116.8809448,-16.63664975,1269.545005
11.3550,117.0982882,-16.9567658,1269.400272
11.3600,117.3157804,-17.28051457,1269.255266
11.3650,117.5327769,-17.6080037,1269.110151
11.3700,117.7486482,-17.93953922,1268.964997
11.3750,117.9628589,-18.27345102,1268.820223
11.3800,118.1752001,-18.6101558,1268.675772
11.3850,118.3848615,-18.9489677,1268.532018
11.3900,118.5924261,-19.2890202,1268.388739
11.3950,118.7975653,-19.62995127,1268.246007
11.4000,118.9997961,-19.97107402,1268.104063
11.4050,119.1990976,-20.31311826,1267.962709
11.4100,119.395525,-20.65522207,1267.82191
11.4150,119.5887603,-20.99729153,1267.681822
11.4200,119.7790965,-21.33809074,1267.542334
11.4250,119.96626,-21.67641436,1267.403745
11.4300,120.1509399,-22.01245001,1267.265854
11.4350,120.3335007,-22.3458861,1267.128557
11.4400,120.515514,-22.67534193,1266.99155
11.4450,120.6963486,-23.00066325,1266.855104
11.4500,120.8758329,-23.32213973,1266.719227
11.4550,121.0533818,-23.64086106,1266.584023
11.4600,121.2281076,-23.95608285,1266.449868
11.4650,121.3991814,-24.26807722,1266.317079
11.4700,121.566927,-24.57678857,1266.185578
11.4750,121.7325397,-24.88128425,1266.055134
11.4800,121.8954271,-25.18117663,1265.925998
11.4850,122.0562622,-25.4769304,1265.797986
11.4900,122.2151401,-25.76901967,1265.671052
11.4950,122.3712702,-26.05804868,1265.545383
11.5000,122.5251438,-26.34256342,1265.42095
11.5050,122.6769762,-26.62247361,1265.297767
11.5100,122.8279718,-26.89809228,1265.175351
11.5150,122.9774115,-27.16909086,1265.053897
11.5200,123.1246971,-27.43503124,1264.933561
11.5250,123.2697056,-27.69683196,1264.814267
11.5300,123.4119924,-27.95442609,1264.696257
11.5350,123.5522184,-28.20667056,1264.579289
11.5400,123.6897197,-28.45432374,1264.463716
11.5450,123.8266956,-28.69660711,1264.348875
11.5500,123.9636714,-28.93270962,1264.234739
11.5550,124.101775,-29.16240018,1264.121017
11.5600,124.2415745,-29.38639197,1264.00754
11.5650,124.3821621,-29.60380312,1263.894546
11.5700,124.5249968,-29.8146994,1263.781726
11.5750,124.6710195,-30.01969651,1263.668827
11.5800,124.8185418,-30.2181023,1263.556456
11.5850,124.9686359,-30.41060296,1263.444347
11.5900,125.1204455,-30.59699817,1263.332771
11.5950,125.2747126,-30.77814015,1263.221186
11.6000,125.4296132,-30.95403448,1263.110211
11.6050,125.5871167,-31.12496125,1262.999122
11.6100,125.7463203,-31.29258911,1262.887903
11.6150,125.9069626,-31.45626314,1262.776534
11.6200,126.06965,-31.61740232,1262.664579
11.6250,126.2325428,-31.77612756,1262.55263
11.6300,126.3962488,-31.93292664,1262.440365
11.6350,126.5598231,-32.08820357,1262.328099
11.6400,126.7232574,-32.24085997,1262.216014
11.6450,126.8866075,-32.39206164,1262.104007
11.6500,127.048975,-32.5416818,1261.992359
11.6550,127.2104463,-32.69066372,1261.880983
11.6600,127.3691801,-32.83898542,1261.770318
11.6650,127.5250637,-32.98628925,1261.660431
11.6700,127.6789739,-33.13250176,1261.551021
11.6750,127.831182,-33.27933515,1261.441917
11.6800,127.9824105,-33.42512751,1261.333009
11.6850,128.1314032,-33.57126018,1261.224492
11.6900,128.2784474,-33.71666014,1261.116514
11.6950,128.4239786,-33.8610028,1261.009089
11.7000,128.5676754,-34.00374228,1260.90238
11.7050,128.7099713,-34.14487189,1260.796332
11.7100,128.8510303,-34.2838392,1260.691099
11.7150,128.9906968,-34.42064018,1260.586748
11.7200,129.1297975,-34.55511948,1260.483134
11.7250,129.2685791,-34.6864308,1260.380263
11.7300,129.4079327,-34.81461336,1260.277815
11.7350,129.5473665,-34.93936825,1260.175918
11.7400,129.6849629,-35.06082231,1260.075029
11.7450,129.8223017,-35.17895904,1259.974558
11.7500,129.958263,-35.2929276,1259.874838
11.7550,130.0940954,-35.40307058,1259.7754
11.7600,130.229326,-35.50983848,1259.676203
11.7650,130.3655569,-35.61342222,1259.576846
11.7700,130.5021714,-35.71293405,1259.477724
11.7750,130.6382073,-35.80969521,1259.378922
11.7800,130.7738425,-35.90415976,1259.280403
11.7850,130.9084088,-35.99714917,1259.182272
11.7900,131.0406711,-36.08804215,1259.084916
11.7950,131.1721275,-36.17742898,1258.9879
11.8000,131.3017299,-36.26536587,1258.891498
11.8050,131.4290412,-36.35331064,1258.795623
11.8100,131.5528625,-36.44187021,1258.700527
11.8150,131.6741418,-36.53088495,1258.605941
11.8200,131.7943377,-36.62268426,1258.511246
11.8250,131.9130664,-36.71582732,1258.416668
11.8300,132.0309385,-36.81077501,1258.321774
11.8350,132.1470096,-36.90856543,1258.22682
11.8400,132.2615809,-37.00962288,1258.131569
11.8450,132.3734541,-37.11371937,1258.036423
11.8500,132.4830809,-37.22049284,1257.941211
11.8550,132.5894518,-37.33104308,1257.846212
11.8600,132.6923151,-37.44509834,1257.751443
11.8650,132.7934443,-37.56287098,1257.656421
11.8700,132.8917203,-37.68456391,1257.561388
11.8750,132.9859959,-37.80995045,1257.46652
11.8800,133.0777089,-37.93883147,1257.371378
11.8850,133.1655737,-38.0716862,1257.276096
11.8900,133.2502089,-38.20811032,1257.18046
11.8950,133.3316556,-38.34856141,1257.08457
11.9000,133.4112357,-38.49372288,1256.987989
11.9050,133.4862985,-38.64345711,1256.8914
11.9100,133.5575879,-38.79794476,1256.794636
11.9150,133.6250637,-38.95767347,1256.697701
11.9200,133.6877813,-39.12306944,1256.600939
11.9250,133.7453806,-39.29416166,1256.504509
11.9300,133.7992381,-39.47076741,1256.408091
11.9350,133.8492339,-39.65340613,1256.311769
11.9400,133.8950268,-39.84182002,1256.215617
11.9450,133.9357466,-40.03464302,1256.119892
11.9500,133.9722136,-40.23384473,1256.024352
11.9550,134.0041526,-40.43787384,1255.929173
11.9600,134.0332734,-40.64673876,1255.834146
11.9650,134.0606537,-40.8595154,1255.739152
11.9700,134.0854417,-41.07580604,1255.644576
11.9750,134.1086609,-41.29416208,1255.550405
11.9800,134.1293645,-41.51432829,1255.457011
11.9850,134.1503633,-41.73428149,1255.363972
11.9900,134.1717505,-41.95519319,1255.271266
11.9950,134.1947181,-42.17529099,1255.178803
12.0000,134.2202212,-42.39475122,1255.086419
12.0050,134.2478241,-42.61189617,1254.994427
12.0100,134.2777378,-42.82739411,1254.902704
12.0150,134.3098331,-43.04052485,1254.811263
12.0200,134.3420862,-43.25138228,1254.720555
12.0250,134.3751711,-43.46009637,1254.630268
12.0300,134.4077577,-43.66585962,1254.54076
12.0350,134.4401074,-43.8680533,1254.451948
12.0400,134.472909,-44.06661667,1254.363691
12.0450,134.5044501,-44.26249936,1254.276414
12.0500,134.5362118,-44.4559771,1254.189831
12.0550,134.5659522,-44.64584316,1254.104569
12.0600,134.5928119,-44.83241767,1254.020961
12.0650,134.6156544,-45.0155361,1253.939178
12.0700,134.6336572,-45.19550892,1253.85927
12.0750,134.6467426,-45.37153289,1253.781299
12.0800,134.6558149,-45.54346005,1253.704971
12.0850,134.6601669,-45.71105149,1253.630327
12.0900,134.6605943,-45.87450603,1253.55715
12.0950,134.6555601,-46.03278606,1253.485773
12.1000,134.6471473,-46.18682849,1253.41563
12.1050,134.6342949,-46.3356685,1253.347077
12.1100,134.6179524,-46.47895705,1253.279825
12.1150,134.5978121,-46.61717007,1253.213963
12.1200,134.5737323,-46.74990332,1253.149469
12.1250,134.5452911,-46.87800678,1253.08634
12.1300,134.5133083,-47.00112259,1253.024466
12.1350,134.4789455,-47.1197647,1252.963451
12.1400,134.4425046,-47.23550427,1252.903006
12.1450,134.4052075,-47.34919215,1252.842858
12.1500,134.365975,-47.46274496,1252.783201
12.1550,134.3254047,-47.57620793,1252.723694
12.1600,134.2843304,-47.68972607,1252.664268
12.1650,134.2418019,-47.80336722,1252.60519
12.1700,134.1987752,-47.91844969,1252.546066
12.1750,134.155855,-48.03535072,1252.486819
12.1800,134.1123041,-48.15549228,1252.427566
12.1850,134.0693495,-48.2791764,1252.368074
12.1900,134.0273971,-48.40693703,1252.308375
12.1950,133.9875365,-48.53937564,1252.248234
12.2000,133.9489469,-48.67726193,1252.187861
12.2050,133.9124995,-48.82150404,1252.127067
12.2100,133.8786147,-48.97254541,1252.065721
12.2150,133.8480263,-49.13082268,1252.003717
12.2200,133.8200439,-49.29655238,1251.941112
12.2250,133.796498,-49.46936003,1251.877548
12.2300,133.7758771,-49.64988644,1251.813428
12.2350,133.7586039,-49.83752087,1251.748588
12.2400,133.7457091,-50.03200317,1251.682913
12.2450,133.7362904,-50.23388878,1251.616611
12.2500,133.7301423,-50.44095869,1251.549618
12.2550,133.7261998,-50.6525038,1251.482256
12.2600,133.7248993,-50.86774747,1251.414323
12.2650,133.7259614,-51.08553467,1251.345804
12.2700,133.7293803,-51.30605739,1251.276598
12.2750,133.7337472,-51.52812321,1251.206995
12.2800,133.7393967,-51.75170985,1251.136847
12.2850,133.7437949,-51.97563189,1251.066748
12.2900,133.7458308,-52.1992901,1250.996882
12.2950,133.7435677,-52.42335016,1250.927566
12.3000,133.736672,-52.6465981,1250.858848
12.3050,133.7243792,-52.86878624,1250.790881
12.3100,133.7061587,-53.08888599,1250.723868
12.3150,133.6822311,-53.30680163,1250.657758
12.3200,133.6508822,-53.52208462,1250.592908
12.3250,133.6120984,-53.73375743,1250.52937
12.3300,133.5647678,-53.94227902,1250.467288
12.3350,133.5072239,-54.14788336,1250.406905
12.3400,133.4386619,-54.35058608,1250.348318
12.3450,133.3589639,-54.54870118,1250.29143
12.3500,133.2669672,-54.74084569,1250.236359
12.3550,133.1624345,-54.92805386,1250.183043
12.3600,133.0460281,-55.10973361,1250.131233
12.3650,132.9171485,-55.28537491,1250.081105
12.3700,132.7761631,-55.45492283,1250.032686
12.3750,132.6239104,-55.61951919,1249.985695
12.3800,132.4603705,-55.77795869,1249.940337
12.3850,132.2861508,-55.92996873,1249.896613
12.3900,132.1023821,-56.07503921,1249.854254
12.3950,131.9108056,-56.21308018,1249.812945
12.4000,131.7107751,-56.34438222,1249.772836
12.4050,131.5044645,-56.46901748,1249.733296
12.4100,131.2940668,-56.58763027,1249.69399
12.4150,131.0810146,-56.70002477,1249.654595
12.4200,130.8664551,-56.8061055,1249.614935
12.4250,130.6520532,-56.90634715,1249.574607
12.4300,130.4392745,-57.00223257,1249.533377
12.4350,130.2289135,-57.0935363,1249.491135
12.4400,130.0221745,-57.17975803,1249.447647
12.4450,129.8204077,-57.26150111,1249.402686
12.4500,129.624159,-57.33964271,1249.356177
12.4550,129.4351543,-57.41403292,1249.307941
12.4600,129.2539029,-57.48550478,1249.257792
12.4650,129.0809985,-57.55432605,1249.205795
12.4700,128.9175265,-57.62050082,1249.151907
12.4750,128.7637389,-57.68351724,1249.096088
12.4800,128.6220193,-57.74428068,1249.037969
12.4850,128.4918484,-57.80294417,1248.97767
12.4900,128.3743698,-57.85980734,1248.915089
12.4950,128.2689276,-57.9146097,1248.850414
12.5000,128.1783369,-57.96731962,1248.783206
12.5050,128.1030044,-58.01838111,1248.713458
12.5100,128.0441818,-58.0679294,1248.641105
12.5150,128.0024501,-58.11632594,1248.566131
12.5200,127.9794244,-58.16382077,1248.488348
12.5250,127.9765533,-58.21160117,1248.407479
12.5300,127.9955786,-58.25788026,1248.323294
12.5350,128.0363478,-58.30356386,1248.235949
12.5400,128.0998693,-58.34880017,1248.145258
12.5450,128.1873692,-58.39335656,1248.050988
12.5500,128.2983227,-58.43786126,1247.953356
12.5550,128.4341339,-58.48303851,1247.852057
12.5600,128.5940255,-58.5279992,1247.747241
12.5650,128.7768278,-58.57340979,1247.639307
12.5700,128.9831679,-58.6186458,1247.52801
12.5750,129.2124945,-58.66420072,1247.413489
12.5800,129.4626111,-58.71069673,1247.29621
12.5850,129.7331203,-58.75800858,1247.176064
12.5900,130.0231009,-58.80540164,1247.053245
12.5950,130.3305124,-58.85276679,1246.928185
12.6000,130.6527087,-58.90040483,1246.801313
12.6050,130.9876889,-58.94710341,1246.673018
12.6100,131.3325278,-58.9935235,1246.543728
12.6150,131.6840143,-59.03839342,1246.414056
12.6200,132.0420239,-59.08171407,1246.283831
12.6250,132.4027342,-59.12394125,1246.153732
12.6300,132.7633733,-59.16384332,1246.024126
12.6350,133.122852,-59.20159374,1245.895258
12.6400,133.4785419,-59.23698571,1245.76748
12.6450,133.8277409,-59.26985804,1245.641318
12.6500,134.1686284,-59.3009718,1245.516973
12.6550,134.4991399,-59.32961172,1245.394778
12.6600,134.8188315,-59.35601528,1245.274607
12.6650,135.1264509,-59.38000937,1245.156513
12.6700,135.420728,-59.40105608,1245.040511
12.6750,135.7005054,-59.41813085,1244.926767
12.6800,135.9645552,-59.43197877,1244.815359
12.6850,136.2120758,-59.44238617,1244.706317
12.6900,136.4418652,-59.44896595,1244.59993
12.6950,136.6537593,-59.45249373,1244.496185
12.7000,136.8486457,-59.45218787,1244.394953
12.7050,137.0262232,-59.44781918,1244.296503
12.7100,137.1862144,-59.43985765,1244.200898
12.7150,137.328704,-59.42868967,1244.108384
12.7200,137.4559319,-59.415008,1244.018568
12.7250,137.5679864,-59.39903843,1243.931809
12.7300,137.6655904,-59.38063068,1243.848062
12.7350,137.7503211,-59.35963792,1243.767259
12.7400,137.8225712,-59.33782142,1243.689552
12.7450,137.8824507,-59.31501897,1243.615113
12.7500,137.9318898,-59.29065182,1243.543671
12.7550,137.9702472,-59.26410684,1243.475553
12.7600,137.998465,-59.23566751,1243.410715
12.7650,138.0183536,-59.20575712,1243.348967
12.7700,138.0305616,-59.17358723,1243.290301
12.7750,138.0353986,-59.13919727,1243.234924
12.7800,138.0332601,-59.10208704,1243.182868
12.7850,138.024257,-59.06172534,1243.134346
12.7900,138.0094915,-59.018713,1243.089185
12.7950,137.9906146,-58.97143285,1243.047312
12.8000,137.9666128,-58.92032527,1243.008854
12.8050,137.9391819,-58.86518483,1242.973718
12.8100,137.9090626,-58.80586308,1242.941672
12.8150,137.8758737,-58.74173236,1242.912914
12.8200,137.8408841,-58.67266692,1242.887117
12.8250,137.8040892,-58.59780772,1242.864454
12.8300,137.7653959,-58.51817589,1242.844842
12.8350,137.726001,-58.43337146,1242.8281
12.8400,137.6862162,-58.34383824,1242.814135
12.8450,137.6473413,-58.24927766,1242.802791
12.8500,137.6108653,-58.15014023,1242.793752
12.8550,137.577639,-58.04674015,1242.786894
12.8600,137.5486538,-57.93984888,1242.782069
12.8650,137.525309,-57.83063002,1242.778938
12.8700,137.507721,-57.71867608,1242.777637
12.8750,137.495959,-57.60559489,1242.778025
12.8800,137.4917341,-57.49209901,1242.779736
12.8850,137.4955972,-57.3798787,1242.782692
12.8900,137.5072463,-57.26997817,1242.786848
12.8950,137.5272744,-57.16287585,1242.792047
12.9000,137.5546031,-57.05927603,1242.798494
12.9050,137.5895305,-56.96172411,1242.806019
12.9100,137.6317159,-56.86936586,1242.814678
12.9150,137.6821239,-56.78425406,1242.824089
12.9200,137.7396625,-56.70644243,1242.834537
12.9250,137.8048014,-56.63752746,1242.845734
12.9300,137.878052,-56.57842675,1242.857691
12.9350,137.9575085,-56.52875429,1242.870612
12.9400,138.0442906,-56.49015393,1242.884211
12.9450,138.1387129,-56.46325705,1242.898321
12.9500,138.2397771,-56.44923091,1242.913037
12.9550,138.3488259,-56.4473694,1242.928107
12.9600,138.4643142,-56.45849657,1242.943742
12.9650,138.5860302,-56.48133631,1242.959977
12.9700,138.7145882,-56.51671129,1242.976758
12.9750,138.8492855,-56.56423646,1242.994133
12.9800,138.9906437,-56.62353891,1243.012087
12.9850,139.1385295,-56.69529936,1243.030609
12.9900,139.2929825,-56.77908742,1243.049708
12.9950,139.4532388,-56.87349996,1243.069627
13.0000,139.6192786,-56.97938827,1243.09047
13.0050,139.7922211,-57.09510099,1243.111947
13.0100,139.9702752,-57.22019966,1243.134554
13.0150,140.1540454,-57.35490632,1243.158042
13.0200,140.3411098,-57.49813531,1243.182927
13.0250,140.5313345,-57.64908961,1243.209181
13.0300,140.7235522,-57.80634779,1243.237063
13.0350,140.9173043,-57.96955789,1243.266603
13.0400,141.112322,-58.13714462,1243.297854
13.0450,141.3070626,-58.30808646,1243.331182
13.0500,141.5014938,-58.48156103,1243.366576
13.0550,141.6956305,-58.65787036,1243.403957
13.0600,141.8890154,-58.835706,1243.443539
13.0650,142.0802008,-59.01323705,1243.485639
13.0700,142.2684893,-59.19008701,1243.53042
13.0750,142.4540664,-59.36666544,1243.577779
13.0800,142.6356609,-59.54145198,1243.627953
13.0850,142.8145769,-59.71348439,1243.680693
13.0900,142.9901443,-59.88263535,1243.736081
13.0950,143.161345,-60.04884037,1243.794278
13.1000,143.3289638,-60.21058605,1243.855101
13.1050,143.4920098,-60.36743162,1243.918698
13.1100,143.650526,-60.51910604,1243.985139
13.1150,143.8045662,-60.66607581,1244.054275
13.1200,143.9542201,-60.80786197,1244.126148
13.1250,144.0990928,-60.94494225,1244.200712
13.1300,144.239535,-61.07735637,1244.277914
13.1350,144.3763155,-61.20613612,1244.357619
13.1400,144.5097755,-61.33017061,1244.439763
13.1450,144.639705,-61.45014776,1244.524232
13.1500,144.7654222,-61.56669753,1244.611165
13.1550,144.8889558,-61.68026566,1244.70004
13.1600,145.0095949,-61.79108782,1244.790949
13.1650,145.1272762,-61.89927269,1244.883747
13.1700,145.2434779,-62.00669157,1244.977979
13.1750,145.3584633,-62.11234216,1245.073544
13.1800,145.4724637,-62.21648146,1245.170342
13.1850,145.5849076,-62.31908529,1245.268366
13.1900,145.6959772,-62.42067553,1245.36753
13.1950,145.8054253,-62.52078771,1245.467854
13.2000,145.9140246,-62.6203882,1245.569077
13.2050,146.022528,-62.71672073,1245.670931
13.2100,146.1311886,-62.81167498,1245.773337
13.2150,146.2403415,-62.90430765,1245.876134
13.2200,146.3499539,-62.99418071,1245.979242
13.2250,146.4591796,-63.08074756,1246.08279
13.2300,146.5683479,-63.16444691,1246.186594
13.2350,146.6782591,-63.24502293,1246.290613
13.2400,146.7886835,-63.32103583,1246.39478
13.2450,146.8992276,-63.39163171,1246.499137
13.2500,147.0106049,-63.4567126,1246.603551
13.2550,147.1218004,-63.51627387,1246.708006
13.2600,147.2336149,-63.56985952,1246.812437
13.2650,147.3464346,-63.61884865,1246.916695
13.2700,147.4603862,-63.66233615,1247.020575
13.2750,147.5753692,-63.70079692,1247.124205
13.2800,147.6913406,-63.73496737,1247.227483
13.2850,147.8094553,-63.76371758,1247.330115
13.2900,147.9295606,-63.78799682,1247.432046
13.2950,148.0515374,-63.80771834,1247.533271
13.3000,148.1754639,-63.8230073,1247.633637
13.3050,148.3004401,-63.83638327,1247.733294
13.3100,148.4280309,-63.84711627,1247.831853
13.3150,148.5581509,-63.85482285,1247.929338
13.3200,148.6898646,-63.85999137,1248.025898
13.3250,148.8237879,-63.86432585,1248.121358
13.3300,148.959341,-63.86784922,1248.215804
13.3350,149.0957827,-63.8706824,1248.309393
13.3400,149.2327008,-63.87262942,1248.402227
13.3450,149.3708206,-63.87423524,1248.494018
13.3500,149.5078156,-63.87455254,1248.58538
13.3550,149.6441642,-63.87355865,1248.676233
13.3600,149.7792692,-63.87117491,1248.766676
13.3650,149.9124678,-63.86738175,1248.856841
13.3700,150.0419616,-63.86175412,1248.946998
13.3750,150.1674532,-63.85361115,1249.037213
13.3800,150.288566,-63.84331096,1249.127549
13.3850,150.4044354,-63.83061869,1249.218191
13.3900,150.5140728,-63.81444814,1249.30934
13.3950,150.6171937,-63.79559856,1249.400993
13.4000,150.7120295,-63.77451909,1249.493528
13.4050,150.7985941,-63.75110588,1249.586867
13.4100,150.8753839,-63.72492957,1249.68121
13.4150,150.9430249,-63.69676477,1249.776384
13.4200,150.9998106,-63.6656566,1249.872682
13.4250,151.046087,-63.63242341,1249.969955
13.4300,151.0812747,-63.59711401,1250.068274
13.4350,151.1042554,-63.55912063,1250.1678
13.4400,151.1156997,-63.51893878,1250.268371
13.4450,151.1150379,-63.47690596,1250.370116
13.4500,151.1031318,-63.43245952,1250.472917
13.4550,151.0794794,-63.38506954,1250.576977
13.4600,151.0442903,-63.33444192,1250.682219
13.4650,150.9982558,-63.28040335,1250.78862
13.4700,150.9412342,-63.22170666,1250.896345
13.4750,150.8741373,-63.15906322,1251.00525
13.4800,150.797539,-63.09170388,1251.115309
13.4850,150.7133091,-63.01870127,1251.226284
13.4900,150.6220868,-62.93870656,1251.338193
13.4950,150.5249246,-62.85233309,1251.450801
13.5000,150.4234992,-62.75899,1251.563992
13.5050,150.3175695,-62.66005153,1251.677707
13.5100,150.2091756,-62.55396973,1251.791653
13.5150,150.0974957,-62.44122025,1251.905949
13.5200,149.9846672,-62.32259253,1252.02013
13.5250,149.8713396,-62.19778326,1252.134045
13.5300,149.7591659,-62.0648761,1252.247473
13.5350,149.6497885,-61.92598932,1252.3599
13.5400,149.5429908,-61.77994224,1252.471434
13.5450,149.4398326,-61.6273819,1252.581813
13.5500,149.3414523,-61.46707906,1252.690824
13.5550,149.2489921,-61.30001884,1252.798358
13.5600,149.1638539,-61.12546313,1252.904047
13.5650,149.086916,-60.943019,1253.007747
13.5700,149.0184493,-60.75198418,1253.109556
13.5750,148.9600346,-60.55159895,1253.20911
13.5800,148.912523,-60.34228771,1253.306214
13.5850,148.8763987,-60.12432831,1253.400868
13.5900,148.8534305,-59.89764142,1253.492741
13.5950,148.8454567,-59.66269422,1253.581475
13.6000,148.8528806,-59.41970419,1253.66698
13.6050,148.8773148,-59.16802164,1253.749061
13.6100,148.9186343,-58.90983118,1253.827568
13.6150,148.9767935,-58.64616078,1253.902521
13.6200,149.0537759,-58.37814331,1253.97338
13.6250,149.1491342,-58.10623904,1254.040204
13.6300,149.2642752,-57.83168347,1254.102638
13.6350,149.3979824,-57.55564892,1254.160844
13.6400,149.5500578,-57.27905822,1254.214741
13.6450,149.7203291,-57.00240551,1254.264304
13.6500,149.9101958,-56.72751648,1254.309023
13.6550,150.117756,-56.45441316,1254.349251
13.6600,150.3417794,-56.18434489,1254.385213
13.6650,150.5821686,-55.91781764,1254.416804
13.6700,150.838869,-55.65615812,1254.44404
13.6750,151.1097846,-55.3984056,1254.467345
13.6800,151.3946964,-55.14420302,1254.486848
13.6850,151.6929789,-54.89416729,1254.502596
13.6900,152.0030059,-54.64781056,1254.515019
13.6950,152.3232412,-54.40507438,1254.524519
13.7000,152.6528359,-54.16535945,1254.531345
13.7050,152.990464,-53.92813215,1254.535767
13.7100,153.3344053,-53.69432687,1254.538143
13.7150,153.6825249,-53.46297104,1254.53906
13.7200,154.0341362,-53.23480166,1254.538674
13.7250,154.3869819,-53.00890762,1254.537538
