type,name,time_units,begin_time,frequency,count,units
signal_3d,"Noraxon MyoMotion-Trajectories-Ulnar styloid process RT","s",0.0000,200,4916,"mm"

time,x,y,z
0.0000,111.8222206,30.3761993,993.2375108
0.0050,111.812509,30.3564297,993.2361321
0.0100,111.8028014,30.33665817,993.2347531
0.0150,111.7930978,30.31688471,993.2333738
0.0200,111.7824201,30.2953034,993.231912
0.0250,111.7707941,30.27201751,993.2303825
0.0300,111.7582517,30.24716001,993.228803
0.0350,111.744827,30.22088542,993.2271933
0.0400,111.7305533,30.19336119,993.2255747
0.0450,111.7154641,30.16475732,993.2239686
0.0500,111.6995942,30.13524034,993.2223958
0.0550,111.6829805,30.10497584,993.2208771
0.0600,111.6656583,30.07413091,993.2194343
0.0650,111.6476576,30.04286905,993.21809
0.0700,111.628999,30.01134555,993.216868
0.0750,111.6096899,29.97971275,993.2157952
0.0800,111.5897215,29.94813051,993.2149028
0.0850,111.56907,29.91676902,993.2142266
0.0900,111.5477036,29.88579852,993.2138035
0.0950,111.5255934,29.8553754,993.2136665
0.1000,111.5027209,29.82563721,993.2138433
0.1050,111.4790829,29.79670794,993.2143554
0.1100,111.4546964,29.76870426,993.2152192
0.1150,111.4296041,29.74173807,993.2164444
0.1200,111.4038782,29.71591978,993.2180343
0.1250,111.3776185,29.69136299,993.2199862
0.1300,111.3509488,29.66818731,993.2222929
0.1350,111.3240149,29.64651855,993.2249432
0.1400,111.2969781,29.62648484,993.2279226
0.1450,111.2700075,29.60820592,993.2312138
0.1500,111.2432742,29.59178007,993.2347944
0.1550,111.1900267,29.5414847,993.2383874
0.1600,111.1374167,29.49172376,993.2420281
0.1650,111.0855656,29.44344871,993.245746
0.1700,111.0346949,29.39655941,993.2495171
0.1750,110.9838673,29.35067291,993.2534039
0.1800,110.9350237,29.30573468,993.2570412
0.1850,110.887031,29.26196636,993.2606305
0.1900,110.8408866,29.21897065,993.263965
0.1950,110.7957192,29.17695386,993.2671135
0.2000,110.7520659,29.13479857,993.2698285
0.2050,110.7095528,29.0921587,993.2721997
0.2100,110.6690057,29.05026795,993.2741274
0.2150,110.6302768,29.00871772,993.2756964
0.2200,110.5939116,28.96730011,993.2765939
0.2250,110.5594305,28.92534748,993.2769246
0.2300,110.5274792,28.88313458,993.2766882
0.2350,110.4972419,28.84093292,993.2759975
0.2400,110.46879,28.79895114,993.2748926
0.2450,110.441583,28.75631656,993.2732888
0.2500,110.4160826,28.71191947,993.2709998
0.2550,110.3919533,28.66618559,993.2681134
0.2600,110.3691965,28.62050309,993.2648537
0.2650,110.3475448,28.57292742,993.2609521
0.2700,110.3262531,28.5247917,993.2568327
0.2750,110.3063812,28.47461335,993.2520157
0.2800,110.287013,28.42360841,993.2469142
0.2850,110.2676877,28.37149344,993.2415829
0.2900,110.249486,28.3186965,993.2359137
0.2950,110.2313096,28.26535465,993.230183
0.3000,110.2132722,28.21070131,993.2242623
0.3050,110.1939444,28.15482083,993.2184852
0.3100,110.1741471,28.0991797,993.2128828
0.3150,110.154237,28.04293133,993.2072527
0.3200,110.1332486,27.9858078,993.2017397
0.3250,110.1109606,27.92816711,993.1964806
0.3300,110.0873213,27.86919698,993.1913447
0.3350,110.062867,27.80906389,993.1862719
0.3400,110.0374249,27.74926647,993.1814781
0.3450,110.0108136,27.68955942,993.1770218
0.3500,109.9836248,27.63026703,993.1728544
0.3550,109.9556557,27.57217318,993.1691797
0.3600,109.9264409,27.51526653,993.1660285
0.3650,109.8968698,27.45958284,993.1632831
0.3700,109.8649205,27.4043115,993.1611771
0.3750,109.8326211,27.35053536,993.1595274
0.3800,109.7987733,27.29765248,993.1584294
0.3850,109.7645836,27.24587036,993.1576731
0.3900,109.7293558,27.19528173,993.1574138
0.3950,109.6926341,27.14522107,993.1576476
0.4000,109.6556854,27.09660753,993.1582446
0.4050,109.618836,27.04939054,993.1590563
0.4100,109.5819872,27.00273705,993.16003
0.4150,109.5452396,26.95642333,993.161121
0.4200,109.5088695,26.91137043,993.1624162
0.4250,109.4725969,26.86577605,993.1636295
0.4300,109.436239,26.82079571,993.1649281
0.4350,109.4001777,26.77636594,993.1663096
0.4400,109.364069,26.73297627,993.1678085
0.4450,109.3294792,26.68870097,993.168877
0.4500,109.2950106,26.64508207,993.1700283
0.4550,109.2609931,26.60124935,993.1710797
0.4600,109.2268585,26.55923278,993.1723892
0.4650,109.1936114,26.51715116,993.1735413
0.4700,109.1608163,26.47579259,993.1747459
0.4750,109.1291805,26.43549485,993.1758943
0.4800,109.0974481,26.39583027,993.1771016
0.4850,109.0664506,26.35677071,993.1782534
0.4900,109.0370331,26.31834208,993.1791637
0.4950,109.0072941,26.28078766,993.1802949
0.5000,108.978895,26.24440216,993.1812894
0.5050,108.9509217,26.20891389,993.1823385
0.5100,108.9230541,26.17485733,993.1835524
0.5150,108.8951858,26.14141679,993.1847518
0.5200,108.8665149,26.1092865,993.1863356
0.5250,108.8359673,26.07798036,993.1884111
0.5300,108.8026691,26.04781283,993.191088
0.5350,108.767097,26.01947857,993.194576
0.5400,108.7286165,25.99231884,993.198864
0.5450,108.6870192,25.96756367,993.2042718
0.5500,108.6420231,25.94535839,993.2108036
0.5550,108.593934,25.92544358,993.2184203
0.5600,108.5421947,25.9073781,993.2271967
0.5650,108.487317,25.89210593,993.237167
0.5700,108.4305548,25.87950215,993.2481007
0.5750,108.3702104,25.86994423,993.2603627
0.5800,108.3068358,25.86288682,993.2737528
0.5850,108.2411909,25.85762336,993.2881335
0.5900,108.1720123,25.8556636,993.3038314
0.5950,108.0989291,25.85516265,993.3207266
0.6000,108.0220649,25.85750969,993.3390175
0.6050,107.9417924,25.86192499,993.358533
0.6100,107.8573841,25.86882621,993.379562
0.6150,107.7681077,25.87795175,993.4021517
0.6200,107.6736935,25.88868781,993.4264255
0.6250,107.5741718,25.90243968,993.4525974
0.6300,107.4682491,25.91894431,993.4808759
0.6350,107.3559219,25.93692015,993.5112054
0.6400,107.2366618,25.95639255,993.5437145
0.6450,107.1110693,25.97721237,993.5782774
0.6500,106.9782632,25.99975896,993.615163
0.6550,106.838945,26.02246468,993.6539738
0.6600,106.6936177,26.04652417,993.6948597
0.6650,106.5417061,26.06966012,993.7377164
0.6700,106.3856311,26.09349296,993.7823148
0.6750,106.2227192,26.11748593,993.8290763
0.6800,106.0554339,26.14216436,993.87767
0.6850,105.8818819,26.16562632,993.9283128
0.6900,105.7020226,26.18934446,993.9811447
0.6950,105.5173763,26.21298795,994.0358609
0.7000,105.3258376,26.23678669,994.0929895
0.7050,105.1276882,26.26126517,994.1525417
0.7100,104.9223596,26.28466342,994.2144092
0.7150,104.7096085,26.30926931,994.2789157
0.7200,104.4888376,26.33372276,994.3459801
0.7250,104.2596233,26.35886356,994.4157834
0.7300,104.021996,26.38495659,994.4883134
0.7350,103.7733475,26.41033507,994.5638507
0.7400,103.5147859,26.43623026,994.6424566
0.7450,103.2432641,26.46383949,994.7248554
0.7500,102.9600649,26.49189486,994.8106025
0.7550,102.6652696,26.52145773,994.8998881
0.7600,102.3576646,26.55225101,994.9929548
0.7650,102.0367094,26.58552032,995.0900007
0.7700,101.7021682,26.62096235,995.191121
0.7750,101.3540582,26.65857879,995.2963602
0.7800,100.9947026,26.69825358,995.4053551
0.7850,100.6231095,26.74070247,995.5184057
0.7900,100.2386081,26.78655659,995.6357643
0.7950,99.84339956,26.83483677,995.7568965
0.8000,99.43722107,26.88490194,995.8819281
0.8050,99.0217695,26.937657,996.010632
0.8100,98.59816492,26.99130296,996.142639
0.8150,98.16587288,27.04732422,996.2785042
0.8200,97.72573678,27.10510322,996.4178863
0.8250,97.27946083,27.16368529,996.5603505
0.8300,96.82766626,27.22343792,996.705907
0.8350,96.36984666,27.28347711,996.8544282
0.8400,95.90698836,27.34473849,997.0059359
0.8450,95.43975393,27.40591349,997.1599364
0.8500,94.96719757,27.46653886,997.3167946
0.8550,94.48974385,27.52678304,997.4763017
0.8600,94.00735983,27.58721483,997.6386088
0.8650,93.51997855,27.64789717,997.8037734
0.8700,93.02783905,27.70800735,997.9715788
0.8750,92.53020273,27.76820468,998.1424335
0.8800,92.02653338,27.82840762,998.3164552
0.8850,91.51611875,27.8890627,998.4937471
0.8900,90.99992213,27.94942939,998.6742483
0.8950,90.47754367,28.01166335,998.8582723
0.9000,89.94936469,28.07296866,999.0453349
0.9050,89.41616731,28.13543705,999.2356351
0.9100,88.8776674,28.19875694,999.4292203
0.9150,88.33502101,28.26231567,999.6257579
0.9200,87.78909773,28.32709458,999.8250473
0.9250,87.23922049,28.39214663,1000.027123
0.9300,86.68618382,28.45733206,1000.231926
0.9350,86.13093492,28.5235033,1000.439201
0.9400,85.57308106,28.58918839,1000.648912
0.9450,85.01151783,28.65587275,1000.861545
0.9500,84.44634903,28.72268535,1001.077013
0.9550,83.87795968,28.79027919,1001.295233
0.9600,83.30528191,28.85860042,1001.51656
0.9650,82.72859282,28.92833095,1001.741049
0.9700,82.14633728,28.99933064,1001.969039
0.9750,81.55957083,29.07174592,1002.200309
0.9800,80.96717712,29.14503637,1002.435026
0.9850,80.37057267,29.22196073,1002.67308
0.9900,79.76852005,29.2996405,1002.914518
0.9950,79.16169343,29.37901689,1003.159037
1.0000,78.55035926,29.45981204,1003.406474
1.0050,77.93516058,29.54211011,1003.656881
1.0100,77.31443475,29.6263226,1003.910587
1.0150,76.69012135,29.7112596,1004.166925
1.0200,76.06056238,29.79794013,1004.426623
1.0250,75.42503632,29.88652101,1004.690059
1.0300,74.78369719,29.9769876,1004.957377
1.0350,74.13874272,30.07026388,1005.228181
1.0400,73.48765537,30.16512038,1005.502955
1.0450,72.83127254,30.26179528,1005.781605
1.0500,72.16941754,30.36006685,1006.064316
1.0550,71.5011182,30.46094636,1006.351534
1.0600,70.82718487,30.56312011,1006.642889
1.0650,70.14807868,30.66619533,1006.938492
1.0700,69.46455876,30.76971112,1007.237926
1.0750,68.77599202,30.87578872,1007.541836
1.0800,68.08248344,30.98381712,1007.850244
1.0850,67.38356288,31.09309359,1008.163059
1.0900,66.67951172,31.20416899,1008.480536
1.0950,65.97079564,31.31695625,1008.802622
1.1000,65.25667834,31.43245849,1009.129673
1.1050,64.53696985,31.54948996,1009.461668
1.1100,63.81074532,31.668592,1009.799034
1.1150,63.07961747,31.78909444,1010.141288
1.1200,62.34349983,31.91080612,1010.488555
1.1250,61.60221362,32.03427412,1010.841225
1.1300,60.8568254,32.15797283,1011.198821
1.1350,60.10698741,32.28284994,1011.561646
1.1400,59.35303116,32.40818325,1011.929756
1.1450,58.59630218,32.53436354,1012.30323
1.1500,57.83792022,32.66196784,1012.681745
1.1550,57.07691853,32.78938103,1013.06586
1.1600,56.31458741,32.91632486,1013.455382
1.1650,55.55163744,33.0425073,1013.850227
1.1700,54.78710083,33.16641029,1014.250828
1.1750,54.02301929,33.28942201,1014.656906
1.1800,53.25907473,33.4103898,1015.068671
1.1850,52.49610387,33.53043051,1015.486252
1.1900,51.73319971,33.64836919,1015.91008
1.1950,50.9713601,33.76433425,1016.340042
1.2000,50.2089374,33.87915914,1016.777101
1.2050,49.44473641,33.99280543,1017.221574
1.2100,48.68003599,34.10359651,1017.67318
1.2150,47.91175138,34.21253576,1018.13285
1.2200,47.14095272,34.31990829,1018.600665
1.2250,46.36635343,34.42599034,1019.077079
1.2300,45.58761328,34.53260112,1019.562421
1.2350,44.80280361,34.63898968,1020.057382
1.2400,44.01259435,34.74568605,1020.561749
1.2450,43.21538858,34.8517556,1021.075776
1.2500,42.41162285,34.95807157,1021.599586
1.2550,41.60042736,35.06431502,1022.133658
1.2600,40.7818786,35.17129754,1022.677875
1.2650,39.95595042,35.27898411,1023.232084
1.2700,39.12311511,35.38764628,1023.796425
1.2750,38.28335554,35.49697609,1024.370728
1.2800,37.43586264,35.60797817,1024.955446
1.2850,36.58064259,35.7185911,1025.550448
1.2900,35.71954547,35.83023753,1026.155175
1.2950,34.85174302,35.94256393,1026.770427
1.3000,33.9765986,36.05639971,1027.396284
1.3050,33.09401069,36.17133626,1028.032785
1.3100,32.2067985,36.28930522,1028.679459
1.3150,31.31246557,36.40988241,1029.337247
1.3200,30.41201156,36.53312551,1030.005888
1.3250,29.50564196,36.6600359,1030.685595
1.3300,28.59271199,36.79032773,1031.376495
1.3350,27.67248225,36.92456602,1032.07912
1.3400,26.744841,37.06303016,1032.793736
1.3450,25.80997244,37.20628489,1033.520872
1.3500,24.8664017,37.35407044,1034.260989
1.3550,23.91474365,37.50539382,1035.014082
1.3600,22.9541449,37.66102192,1035.780872
1.3650,21.98353823,37.8214316,1036.562061
1.3700,21.00325171,37.98697248,1037.35796
1.3750,20.01353154,38.15641955,1038.168546
1.3800,19.01227234,38.32981099,1038.99472
1.3850,18.00097908,38.50765938,1039.836489
1.3900,16.97911845,38.68788284,1040.694075
1.3950,15.94692953,38.87178888,1041.56768
1.4000,14.90448799,39.05798536,1042.457507
1.4050,13.85108547,39.24733311,1043.364421
1.4100,12.78787603,39.43958085,1044.288058
1.4150,11.71411024,39.63576572,1045.228798
1.4200,10.6301931,39.833836,1046.186441
1.4250,9.536334055,40.0347729,1047.161078
1.4300,8.432469008,40.24007687,1048.153203
1.4350,7.319923015,40.4482481,1049.162368
1.4400,6.198822601,40.65971565,1050.187962
1.4450,5.068008797,40.87439068,1051.230566
1.4500,3.928417237,41.09211323,1052.289939
1.4550,2.781538201,41.31476703,1053.365569
1.4600,1.626066615,41.54093349,1054.457965
1.4650,0.4620608928,41.77079103,1055.567107
1.4700,-0.7100421003,42.00665048,1056.69301
1.4750,-1.891200129,42.24764457,1057.836251
1.4800,-3.079369402,42.49446991,1058.995575
1.4850,-4.275704111,42.74611878,1060.171597
1.4900,-5.478501349,43.00399512,1061.363973
1.4950,-6.687902945,43.26688907,1062.572534
1.5000,-7.902953699,43.53631487,1063.796694
1.5050,-9.122061974,43.81078754,1065.036022
1.5100,-10.34610913,44.09136225,1066.290348
1.5150,-11.57284194,44.37855485,1067.559574
1.5200,-12.80296049,44.67234812,1068.843896
1.5250,-14.03493306,44.9713031,1070.141633
1.5300,-15.26792232,45.27477209,1071.452801
1.5350,-16.50086911,45.5833341,1072.776702
1.5400,-17.73419577,45.89670133,1074.113935
1.5450,-18.96489766,46.21660555,1075.46373
1.5500,-20.19364698,46.54264311,1076.825741
1.5550,-21.4195902,46.87491667,1078.1996
1.5600,-22.6420602,47.21273117,1079.585112
1.5650,-23.86093094,47.55678668,1080.982181
1.5700,-25.07578347,47.90630589,1082.390432
1.5750,-26.28665644,48.26077374,1083.809841
1.5800,-27.49248196,48.62095167,1085.239591
1.5850,-28.69194805,48.98618267,1086.678927
1.5900,-29.88480199,49.35724786,1088.128195
1.5950,-31.07215584,49.73319257,1089.587334
1.6000,-32.25129978,50.11338158,1091.055696
1.6050,-33.42348695,50.49724926,1092.533461
1.6100,-34.58912488,50.88410404,1094.02063
1.6150,-35.74726906,51.2730214,1095.516918
1.6200,-36.89818505,51.66261983,1097.02282
1.6250,-38.04204397,52.05086793,1098.537117
1.6300,-39.17809509,52.43931673,1100.060546
1.6350,-40.3072787,52.8250584,1101.592655
1.6400,-41.42893139,53.20654252,1103.132715
1.6450,-42.54203453,53.5843927,1104.680097
1.6500,-43.6462305,53.95812001,1106.234927
1.6550,-44.74195758,54.32690954,1107.796762
1.6600,-45.8284624,54.69021016,1109.365062
1.6650,-46.90523999,55.04790999,1110.93919
1.6700,-47.97260239,55.39965443,1112.519206
1.6750,-49.02930305,55.74391525,1114.104228
1.6800,-50.07652364,56.08119158,1115.693937
1.6850,-51.11343562,56.41047292,1117.288107
1.6900,-52.14063728,56.73144228,1118.885876
1.6950,-53.15783306,57.04382443,1120.486907
1.7000,-54.16527946,57.34842639,1122.090896
1.7050,-55.16170094,57.64448565,1123.696263
1.7100,-56.14775135,57.93185182,1125.303281
1.7150,-57.12323147,58.21001034,1126.911176
1.7200,-58.08771396,58.48037832,1128.519557
1.7250,-59.04099518,58.74250085,1130.127988
1.7300,-59.9824967,58.99495897,1131.735551
1.7350,-60.91295379,59.23898685,1133.342741
1.7400,-61.83280586,59.47474736,1134.95003
1.7450,-62.74059249,59.70132843,1136.554776
1.7500,-63.63728605,59.9199801,1138.158191
1.7550,-64.52305168,60.12877759,1139.759283
1.7600,-65.39716185,60.32964046,1141.357236
1.7650,-66.26000118,60.52188516,1142.952391
1.7700,-67.11138062,60.7050068,1144.544348
1.7750,-67.9503014,60.88017499,1146.131954
1.7800,-68.77774395,61.04681213,1147.71569
1.7850,-69.59262619,61.20489254,1149.295445
1.7900,-70.39561002,61.35479762,1150.870758
1.7950,-71.18623758,61.49576074,1152.44135
1.8000,-71.96474732,61.62842678,1154.007595
1.8050,-72.73084077,61.75318248,1155.568922
1.8100,-73.48395353,61.86969092,1157.125381
1.8150,-74.22473323,61.9783054,1158.676098
1.8200,-74.95273971,62.07749335,1160.221093
1.8250,-75.66757187,62.16930777,1161.761242
1.8300,-76.3701501,62.25142874,1163.295517
1.8350,-77.05992952,62.32669224,1164.824702
1.8400,-77.73753489,62.39406736,1166.348368
1.8450,-78.40408736,62.45247942,1167.86668
1.8500,-79.05934128,62.50217116,1169.380337
1.8550,-79.70351912,62.54271756,1170.889313
1.8600,-80.33627672,62.57453709,1172.392632
1.8650,-80.95810894,62.59881491,1173.891042
1.8700,-81.56950028,62.61464646,1175.384403
1.8750,-82.17061727,62.62316991,1176.872793
1.8800,-82.76155722,62.62362849,1178.35643
1.8850,-83.34368925,62.61776463,1179.8366
1.8900,-83.91622535,62.60548789,1181.312961
1.8950,-84.47971886,62.58685629,1182.785469
1.9000,-85.03526903,62.56219704,1184.255478
1.9050,-85.58168199,62.53211242,1185.722684
1.9100,-86.1196304,62.49642123,1187.188109
1.9150,-86.64977113,62.45612521,1188.65135
1.9200,-87.17261633,62.41081127,1190.112344
1.9250,-87.68795453,62.36257047,1191.572918
1.9300,-88.1959359,62.30946122,1193.032618
1.9350,-88.69683902,62.25302049,1194.492463
1.9400,-89.18966612,62.19284076,1195.95269
1.9450,-89.67688551,62.12779607,1197.413707
1.9500,-90.15828886,62.05795411,1198.876117
1.9550,-90.6334035,61.9843691,1200.339778
1.9600,-91.10285217,61.9072034,1201.805485
1.9650,-91.56507358,61.82653197,1203.272801
1.9700,-92.02046927,61.74197998,1204.742243
1.9750,-92.46931451,61.65414209,1206.213881
1.9800,-92.90951889,61.56303887,1207.687652
1.9850,-93.34285599,61.4679677,1209.164234
1.9900,-93.76814385,61.36999863,1210.643906
1.9950,-94.18582398,61.26859215,1212.126497
2.0000,-94.59532002,61.16375821,1213.611802
2.0050,-94.9964809,61.05627636,1215.100746
2.0100,-95.38901076,60.94743871,1216.592867
2.0150,-95.77240947,60.83585201,1218.088255
2.0200,-96.14565072,60.72289591,1219.586827
2.0250,-96.50894892,60.60951272,1221.088829
2.0300,-96.86259388,60.49578985,1222.5946
2.0350,-97.20595584,60.38167776,1224.103678
2.0400,-97.5383884,60.2673973,1225.616377
2.0450,-97.8607546,60.15295259,1227.134708
2.0500,-98.17292237,60.03748564,1228.657705
2.0550,-98.4754423,59.92222625,1230.186454
2.0600,-98.76915863,59.80583968,1231.720974
2.0650,-99.05326249,59.6881752,1233.261007
2.0700,-99.32829427,59.56990058,1234.806272
2.0750,-99.59562683,59.44956044,1236.358082
2.0800,-99.85518948,59.32858512,1237.916299
2.0850,-100.1071333,59.2056065,1239.480628
2.0900,-100.3536503,59.08028885,1241.051561
2.0950,-100.5945095,58.95364081,1242.62933
2.1000,-100.8306003,58.8251279,1244.213619
2.1050,-101.0621755,58.69449269,1245.803909
2.1100,-101.2901695,58.56166392,1247.401465
2.1150,-101.5139842,58.42671967,1249.005628
2.1200,-101.7353142,58.29060011,1250.61639
2.1250,-101.954824,58.15279351,1252.23447
2.1300,-102.1720223,58.01463999,1253.85974
2.1350,-102.3874754,57.87423139,1255.492007
2.1400,-102.6023694,57.73314074,1257.131833
2.1450,-102.8162762,57.591364,1258.778018
2.1500,-103.029033,57.44915095,1260.43046
2.1550,-103.2414294,57.30743183,1262.089025
2.1600,-103.4530079,57.16740535,1263.754599
2.1650,-103.6634814,57.02761817,1265.426866
2.1700,-103.8734192,56.8891315,1267.105512
2.1750,-104.0807562,56.7531149,1268.790621
2.1800,-104.2862124,56.61878868,1270.482071
2.1850,-104.4886799,56.48585704,1272.178872
2.1900,-104.6894153,56.35505397,1273.881578
2.1950,-104.8863822,56.22637775,1275.590304
2.2000,-105.0799338,56.1002242,1277.304039
2.2050,-105.2707122,55.97550974,1279.022734
2.2100,-105.4589277,55.85285611,1280.745986
2.2150,-105.6440621,55.73284941,1282.475124
2.2200,-105.826108,55.61558497,1284.209548
2.2250,-106.0052286,55.49939879,1285.948363
2.2300,-106.1810374,55.38453456,1287.691009
2.2350,-106.352602,55.27031501,1289.436673
2.2400,-106.5210323,55.15971209,1291.185221
2.2450,-106.6848257,55.05120672,1292.937339
2.2500,-106.8453965,54.94590434,1294.692083
2.2550,-107.0020833,54.84334251,1296.448776
2.2600,-107.1551237,54.7423279,1298.20678
2.2650,-107.3053335,54.64375403,1299.965865
2.2700,-107.451557,54.54940818,1301.725421
2.2750,-107.5943357,54.45835884,1303.485956
2.2800,-107.7328071,54.37205667,1305.246792
2.2850,-107.8657217,54.29113223,1307.007085
2.2900,-107.9924409,54.21560299,1308.766044
2.2950,-108.1126851,54.14583428,1310.523759
2.3000,-108.2266238,54.08037982,1312.280202
2.3050,-108.3351225,54.01949951,1314.033883
2.3100,-108.4372471,53.96144573,1315.78505
2.3150,-108.5345895,53.90672361,1317.533772
2.3200,-108.6263841,53.85477553,1319.279458
2.3250,-108.7130971,53.803846,1321.022233
2.3300,-108.7950278,53.75616275,1322.762169
2.3350,-108.8721283,53.71109769,1324.497956
2.3400,-108.9445757,53.66771434,1326.228981
2.3450,-109.0124389,53.62573795,1327.955009
2.3500,-109.0767921,53.58561946,1329.675784
2.3550,-109.1361497,53.5474906,1331.391004
2.3600,-109.1915355,53.51202855,1333.100708
2.3650,-109.2439762,53.47822487,1334.804372
2.3700,-109.2929591,53.4452304,1336.503021
2.3750,-109.3394735,53.41167024,1338.195104
2.3800,-109.3844103,53.37719708,1339.881351
2.3850,-109.4281242,53.34400352,1341.56102
2.3900,-109.4693363,53.31011325,1343.233997
2.3950,-109.5078843,53.27743524,1344.900344
2.4000,-109.54409,53.24520022,1346.559324
2.4050,-109.5773496,53.21408097,1348.211757
2.4100,-109.6079265,53.18449964,1349.856718
2.4150,-109.6357557,53.15512347,1351.494221
2.4200,-109.6604647,53.12704407,1353.124371
2.4250,-109.6815663,53.10057938,1354.746599
2.4300,-109.6997529,53.07653402,1356.361944
2.4350,-109.7141317,53.05396081,1357.969092
2.4400,-109.7238859,53.0329648,1359.56677
2.4450,-109.728772,53.01260555,1361.155199
2.4500,-109.7291172,52.99203381,1362.734561
2.4550,-109.7252962,52.97044586,1364.304408
2.4600,-109.7184145,52.94776553,1365.864617
2.4650,-109.7081627,52.92343795,1367.413951
2.4700,-109.6948196,52.89722024,1368.953053
2.4750,-109.6805375,52.86841084,1370.48206
2.4800,-109.6644293,52.83791894,1372.001399
2.4850,-109.6475793,52.80692594,1373.510973
2.4900,-109.6288716,52.77691967,1375.010729
2.4950,-109.608917,52.74966989,1376.500556
2.5000,-109.5860127,52.72628536,1377.980718
2.5050,-109.5598257,52.70852978,1379.45183
2.5100,-109.5289772,52.69627503,1380.91296
2.5150,-109.4930977,52.68846411,1382.362851
2.5200,-109.4510477,52.6860259,1383.801348
2.5250,-109.4028362,52.68919072,1385.228959
2.5300,-109.3500458,52.69721646,1386.64584
2.5350,-109.29204,52.71046541,1388.051974
2.5400,-109.2287123,52.72667296,1389.447071
2.5450,-109.1607836,52.74579001,1390.829615
2.5500,-109.086326,52.76818449,1392.199803
2.5550,-109.0062878,52.79230078,1393.557537
2.5600,-108.9194485,52.81942109,1394.902068
2.5650,-108.8258513,52.84874335,1396.234273
2.5700,-108.7261781,52.87728231,1397.553734
2.5750,-108.6209719,52.90636125,1398.859906
2.5800,-108.5110562,52.93480063,1400.152927
2.5850,-108.3971029,52.96226181,1401.433282
2.5900,-108.2802081,52.98708104,1402.700648
2.5950,-108.1587474,53.00985605,1403.954877
2.6000,-108.0340474,53.03128147,1405.196697
2.6050,-107.9042133,53.05094372,1406.426644
2.6100,-107.7700665,53.07085887,1407.64497
2.6150,-107.6296783,53.09036643,1408.851389
2.6200,-107.4846482,53.10967029,1410.046909
2.6250,-107.3339655,53.13091101,1411.231651
2.6300,-107.177142,53.1530519,1412.405518
2.6350,-107.0138917,53.17639985,1413.569453
2.6400,-106.8439315,53.20019668,1414.723793
2.6450,-106.6658122,53.22532934,1415.869108
2.6500,-106.4794911,53.25049381,1417.005122
2.6550,-106.2857617,53.27412833,1418.131883
2.6600,-106.0838819,53.29488689,1419.248945
2.6650,-105.8736329,53.31303931,1420.356855
2.6700,-105.6570895,53.32642125,1421.455493
2.6750,-105.4333964,53.33575091,1422.545216
2.6800,-105.2038315,53.3396818,1423.626034
2.6850,-104.9689454,53.33784406,1424.698411
2.6900,-104.7303859,53.33170024,1425.762495
2.6950,-104.4881156,53.32044262,1426.818523
2.7000,-104.2407761,53.30388607,1427.866629
2.7050,-103.9893039,53.28301259,1428.906802
2.7100,-103.7320801,53.257438,1429.938576
2.7150,-103.4703317,53.22812226,1430.963507
2.7200,-103.2042185,53.19465309,1431.981431
2.7250,-102.933761,53.15688093,1432.990824
2.7300,-102.6581343,53.1159527,1433.991612
2.7350,-102.3792107,53.07183692,1434.985164
2.7400,-102.0961038,53.02427675,1435.972211
2.7450,-101.8100492,52.97485197,1436.952687
2.7500,-101.5214117,52.92482195,1437.926267
2.7550,-101.2299426,52.87261566,1438.893414
2.7600,-100.9353484,52.81802662,1439.854695
2.7650,-100.6379674,52.76318096,1440.811236
2.7700,-100.3369138,52.70935153,1441.762613
2.7750,-100.0312154,52.65513203,1442.708405
2.7800,-99.7201026,52.60120557,1443.648487
2.7850,-99.4027025,52.54681828,1444.583244
2.7900,-99.08010431,52.48957858,1445.511919
2.7950,-98.75283779,52.42888193,1446.434762
2.8000,-98.42294963,52.36316401,1447.352223
2.8050,-98.09017416,52.29255284,1448.264602
2.8100,-97.75435602,52.21634299,1449.17232
2.8150,-97.41537709,52.1356,1450.075686
2.8200,-97.07325326,52.05027059,1450.975748
2.8250,-96.72670569,51.96109866,1451.871202
2.8300,-96.37383655,51.86852259,1452.762232
2.8350,-96.01456965,51.77408927,1453.649377
2.8400,-95.6466315,51.67744415,1454.531867
2.8450,-95.26998835,51.57907326,1455.409965
2.8500,-94.88552696,51.47697731,1456.283179
2.8550,-94.49197878,51.37217235,1457.152643
2.8600,-94.08917864,51.2628034,1458.018429
2.8650,-93.67766588,51.14880586,1458.879634
2.8700,-93.25798259,51.02952098,1459.735977
2.8750,-92.8294776,50.90376628,1460.588441
2.8800,-92.39321183,50.77017796,1461.436851
2.8850,-91.94804513,50.62805217,1462.280747
2.8900,-91.4935278,50.47937715,1463.121277
2.8950,-91.03147031,50.32056909,1463.958
2.9000,-90.56003762,50.15238952,1464.791387
2.9050,-90.08277734,49.97351717,1465.621212
2.9100,-89.5991488,49.78400373,1466.44717
2.9150,-89.11022914,49.5834558,1467.269891
2.9200,-88.61640703,49.37071012,1468.089454
2.9250,-88.11813158,49.14587644,1468.905107
2.9300,-87.61676522,48.90920099,1469.718148
2.9350,-87.11263585,48.65951828,1470.528166
2.9400,-86.60587792,48.39826632,1471.335369
2.9450,-86.09908776,48.1251565,1472.139497
2.9500,-85.59089085,47.84107456,1472.940144
2.9550,-85.08172051,47.54743709,1473.737119
2.9600,-84.57179637,47.24556724,1474.529481
2.9650,-84.06244196,46.93474012,1475.318845
2.9700,-83.55370843,46.61790678,1476.105001
2.9750,-83.04523139,46.29543239,1476.887672
2.9800,-82.53641491,45.96890866,1477.666432
2.9850,-82.02808333,45.63934126,1478.441441
2.9900,-81.51919891,45.30462318,1479.212937
2.9950,-81.01111934,44.96634063,1479.980255
3.0000,-80.50388455,44.62756731,1480.742988
3.0050,-79.99829127,44.28767159,1481.501278
3.0100,-79.49525324,43.94917432,1482.255602
3.0150,-78.99304516,43.61254119,1483.005347
3.0200,-78.49081706,43.27996908,1483.750152
3.0250,-77.98865479,42.95253275,1484.490638
3.0300,-77.48633295,42.62882331,1485.225513
3.0350,-76.98253203,42.31114375,1485.955289
3.0400,-76.47901163,41.99924349,1486.679365
3.0450,-75.97478559,41.69293923,1487.398417
3.0500,-75.46968677,41.39160148,1488.111979
3.0550,-74.96338676,41.09786098,1488.820342
3.0600,-74.45604628,40.81109518,1489.52268
3.0650,-73.94753738,40.53112485,1490.219331
3.0700,-73.43899022,40.25675061,1490.909868
3.0750,-72.93070861,39.98922622,1491.594494
3.0800,-72.42345539,39.7284539,1492.274121
3.0850,-71.91742257,39.4732362,1492.948527
3.0900,-71.41287386,39.22501273,1493.618526
3.0950,-70.90798011,38.98409352,1494.284269
3.1000,-70.4029417,38.74967968,1494.945034
3.1050,-69.8976346,38.52179017,1495.601107
3.1100,-69.39198165,38.30058185,1496.252853
3.1150,-68.88772362,38.08535926,1496.90114
3.1200,-68.38403593,37.87699123,1497.545863
3.1250,-67.88286363,37.6738954,1498.1879
3.1300,-67.38381906,37.47674874,1498.827735
3.1350,-66.88677149,37.28441975,1499.464596
3.1400,-66.3914939,37.09753949,1500.099628
3.1450,-65.89731511,36.91602275,1500.731998
3.1500,-65.40434784,36.73949625,1501.362355
3.1550,-64.91194061,36.56782227,1501.989232
3.1600,-64.41939418,36.40186004,1502.613425
3.1650,-63.92738986,36.23889583,1503.234828
3.1700,-63.43613943,36.08032745,1503.854145
3.1750,-62.94522793,35.92533943,1504.470541
3.1800,-62.45504258,35.77302163,1505.084108
3.1850,-61.96718259,35.6225502,1505.695423
3.1900,-61.48226803,35.4716438,1506.303869
3.1950,-61.00048162,35.32157495,1506.91038
3.2000,-60.52285432,35.17219043,1507.514493
3.2050,-60.04799562,35.02226606,1508.116368
3.2100,-59.5766186,34.87085766,1508.716863
3.2150,-59.1090122,34.71848717,1509.315891
3.2200,-58.6449886,34.56594482,1509.913436
3.2250,-58.18401721,34.41302947,1510.509718
3.2300,-57.72497029,34.25882571,1511.103234
3.2350,-57.26770673,34.10487891,1511.694617
3.2400,-56.81251808,33.94999701,1512.283648
3.2450,-56.35830938,33.79433669,1512.870066
3.2500,-55.90563594,33.63737987,1513.45472
3.2550,-55.45565513,33.47864309,1514.038104
3.2600,-55.00782056,33.31721482,1514.621287
3.2650,-54.56218863,33.1555186,1515.202973
3.2700,-54.11788515,32.99169737,1515.782727
3.2750,-53.67578337,32.82543891,1516.360411
3.2800,-53.23686112,32.65773542,1516.936204
3.2850,-52.80082874,32.48750205,1517.50942
3.2900,-52.36838536,32.31758187,1518.079824
3.2950,-51.93941644,32.14857365,1518.648133
3.3000,-51.51360713,31.98070722,1519.214688
3.3050,-51.09110305,31.81391685,1519.778693
3.3100,-50.67290502,31.64816775,1520.340335
3.3150,-50.25873079,31.48471814,1520.898463
3.3200,-49.85017195,31.32287926,1521.454096
3.3250,-49.44628102,31.16374445,1522.007527
3.3300,-49.04716609,31.00917406,1522.558523
3.3350,-48.65249273,30.85935624,1523.106897
3.3400,-48.26090463,30.71612774,1523.652081
3.3450,-47.87218252,30.5784482,1524.193623
3.3500,-47.48714183,30.44754295,1524.73161
3.3550,-47.10417131,30.32294159,1525.265563
3.3600,-46.72181374,30.20697936,1525.794984
3.3650,-46.34035057,30.09928282,1526.319351
3.3700,-45.95883646,29.99992178,1526.838997
3.3750,-45.57657817,29.90901124,1527.35303
3.3800,-45.19440459,29.82571895,1527.860435
3.3850,-44.81064296,29.75123822,1528.360969
3.3900,-44.42600077,29.68412517,1528.853939
3.3950,-44.04204765,29.62345443,1529.339543
3.4000,-43.65718225,29.5699802,1529.817712
3.4050,-43.27291121,29.52388296,1530.288094
3.4100,-42.88806665,29.48464917,1530.749983
3.4150,-42.50187256,29.45205761,1531.202852
3.4200,-42.11592603,29.42555897,1531.647105
3.4250,-41.73026442,29.40504571,1532.082504
3.4300,-41.3454726,29.38974751,1532.50837
3.4350,-40.96184582,29.37906882,1532.924853
3.4400,-40.58044961,29.37383543,1533.331376
3.4450,-40.20162913,29.372433,1533.729216
3.4500,-39.82538118,29.37567772,1534.117482
3.4550,-39.45185104,29.38393543,1534.49742
3.4600,-39.08267417,29.39555099,1534.868288
3.4650,-38.71837015,29.41128237,1535.23081
3.4700,-38.35730294,29.42957618,1535.584019
3.4750,-37.99984441,29.45027437,1535.928614
3.4800,-37.6454553,29.47292034,1536.264783
3.4850,-37.2940589,29.49771376,1536.593138
3.4900,-36.9460932,29.52489676,1536.91397
3.4950,-36.6012915,29.55304495,1537.227469
3.5000,-36.26017646,29.58042909,1537.533582
3.5050,-35.92270234,29.60809783,1537.833019
3.5100,-35.58888705,29.6355451,1538.125778
3.5150,-35.25798686,29.66269888,1538.412108
3.5200,-34.93018336,29.68855557,1538.69213
3.5250,-34.60539327,29.71169335,1538.966165
3.5300,-34.28389371,29.73267981,1539.235289
3.5350,-33.96551567,29.75044838,1539.499224
3.5400,-33.65117409,29.76392505,1539.758261
3.5450,-33.3402403,29.77245979,1540.012969
3.5500,-33.0341224,29.77708043,1540.26439
3.5550,-32.7320034,29.77675895,1540.512364
3.5600,-32.43463195,29.7728202,1540.758318
3.5650,-32.14166677,29.76403348,1541.002625
3.5700,-31.85441379,29.75099821,1541.246156
3.5750,-31.57202574,29.73452227,1541.489199
3.5800,-31.29349803,29.71358239,1541.732083
3.5850,-31.02057387,29.68773086,1541.975982
3.5900,-30.75323198,29.65727254,1542.221277
3.5950,-30.49168703,29.62140906,1542.469136
3.6000,-30.23697486,29.57934494,1542.719868
3.6050,-29.98780566,29.53198471,1542.974418
3.6100,-29.74436103,29.48062027,1543.233849
3.6150,-29.50706394,29.42376239,1543.498675
3.6200,-29.27395795,29.36200873,1543.76812
3.6250,-29.04673527,29.29377864,1544.042349
3.6300,-28.82518633,29.2191535,1544.322574
3.6350,-28.60938926,29.13826013,1544.608643
3.6400,-28.39858315,29.05075318,1544.90127
3.6450,-28.19299043,28.95792387,1545.200218
3.6500,-27.99040417,28.85955475,1545.504831
3.6550,-27.79298025,28.75541555,1545.815043
3.6600,-27.59907126,28.64394406,1546.130028
3.6650,-27.40822487,28.52537313,1546.449557
3.6700,-27.21975639,28.4006589,1546.772792
3.6750,-27.03351587,28.2690515,1547.099582
3.6800,-26.8490928,28.13156454,1547.429315
3.6850,-26.6669835,27.98775543,1547.762144
3.6900,-26.48690336,27.83816037,1548.097596
3.6950,-26.30680689,27.6836853,1548.434586
3.7000,-26.12800547,27.52473409,1548.772493
3.7050,-25.94933019,27.36121699,1549.11062
3.7100,-25.77301031,27.19452921,1549.449479
3.7150,-25.59855716,27.02394447,1549.787768
3.7200,-25.42499032,26.85035115,1550.124586
3.7250,-25.25209554,26.67454473,1550.459698
3.7300,-25.08155244,26.49807861,1550.792869
3.7350,-24.91292816,26.32102964,1551.123895
3.7400,-24.74661615,26.1425141,1551.452842
3.7450,-24.58314992,25.96473543,1551.778236
3.7500,-24.42188406,25.78704827,1552.100359
3.7550,-24.26391582,25.60961528,1552.418508
3.7600,-24.10958447,25.43369166,1552.732973
3.7650,-23.95739673,25.25930474,1553.042968
3.7700,-23.80909999,25.08887919,1553.349347
3.7750,-23.66437815,24.9232558,1553.651843
3.7800,-23.52405204,24.76269541,1553.950033
3.7850,-23.38878508,24.6076334,1554.243047
3.7900,-23.25736811,24.45946844,1554.531458
3.7950,-23.13059729,24.31764121,1554.814581
3.8000,-23.00943362,24.18335672,1555.092593
3.8050,-22.89295686,24.05783506,1555.365317
3.8100,-22.78128793,23.94027571,1555.632018
3.8150,-22.67626482,23.83113559,1555.893151
3.8200,-22.57551582,23.73119607,1556.148195
3.8250,-22.48086968,23.64022244,1556.396722
3.8300,-22.3928378,23.55859627,1556.638813
3.8350,-22.31117541,23.48679856,1556.873982
3.8400,-22.2365941,23.42667216,1557.103396
3.8450,-22.16915878,23.37791945,1557.326178
3.8500,-22.10856707,23.34016221,1557.542321
3.8550,-22.0545364,23.31375438,1557.751644
3.8600,-22.00783479,23.29809962,1557.953419
3.8650,-21.9677593,23.29344919,1558.147783
3.8700,-21.93497369,23.29968255,1558.334989
3.8750,-21.90990282,23.31542093,1558.515298
3.8800,-21.89350951,23.34002523,1558.689042
3.8850,-21.88453872,23.37442867,1558.855732
3.8900,-21.88329648,23.41870334,1559.015946
3.8950,-21.88953995,23.47241853,1559.168428
3.9000,-21.90256032,23.53562018,1559.313617
3.9050,-21.92261946,23.60796178,1559.451483
3.9100,-21.94941762,23.68794435,1559.581014
3.9150,-21.98346251,23.77550714,1559.70271
3.9200,-22.02573429,23.86984062,1559.816862
3.9250,-22.07429992,23.97207245,1559.923532
3.9300,-22.12968462,24.08118647,1560.022547
3.9350,-22.19306707,24.19595329,1560.113453
3.9400,-22.26407136,24.31642099,1560.195962
3.9450,-22.34207856,24.44151824,1560.269861
3.9500,-22.42777951,24.57089607,1560.335674
3.9550,-22.5201843,24.70512706,1560.393401
3.9600,-22.62115615,24.84386314,1560.443745
3.9650,-22.7293093,24.98596333,1560.4857
3.9700,-22.84553771,25.1319732,1560.519617
3.9750,-22.96948829,25.2818371,1560.545236
3.9800,-23.10079554,25.43520668,1560.562683
3.9850,-23.23966081,25.59251921,1560.571329
3.9900,-23.38535698,25.75317035,1560.570511
3.9950,-23.53762991,25.91705939,1560.55961
4.0000,-23.69671698,26.08350293,1560.539096
4.0050,-23.86224944,26.25263234,1560.508404
4.0100,-24.03382639,26.42369578,1560.467184
4.0150,-24.21196648,26.59725679,1560.415641
4.0200,-24.39664327,26.77296917,1560.353463
4.0250,-24.58882966,26.95094455,1560.279946
4.0300,-24.78666464,27.1304452,1560.195851
4.0350,-24.99142695,27.31115426,1560.1006
4.0400,-25.20345522,27.49412355,1559.99435
4.0450,-25.42188589,27.67974615,1559.877178
4.0500,-25.64763483,27.86776267,1559.749348
4.0550,-25.88212331,28.05716451,1559.611217
4.0600,-26.12399104,28.2476315,1559.461807
4.0650,-26.37352565,28.44095757,1559.302029
4.0700,-26.63013852,28.63625271,1559.131234
4.0750,-26.89496501,28.83295968,1558.949867
4.0800,-27.16867986,29.03194017,1558.75897
4.0850,-27.45025865,29.23382579,1558.558339
4.0900,-27.74137088,29.43761161,1558.347918
4.0950,-28.04194389,29.64584558,1558.129168
4.1000,-28.35053562,29.85872403,1557.901506
4.1050,-28.66829079,30.07517031,1557.664296
4.1100,-28.99436362,30.29707157,1557.418434
4.1150,-29.32907028,30.52275772,1557.163429
4.1200,-29.67309176,30.75399948,1556.899895
4.1250,-30.02498044,30.99071029,1556.628053
4.1300,-30.38430989,31.23257844,1556.348035
4.1350,-30.75093405,31.47981058,1556.060099
4.1400,-31.12436901,31.73207736,1555.763589
4.1450,-31.50480076,31.98984575,1555.459304
4.1500,-31.8920185,32.25105317,1555.145976
4.1550,-32.2868123,32.51721601,1554.825305
4.1600,-32.6890015,32.78668637,1554.497557
4.1650,-33.10003183,33.05999632,1554.163122
4.1700,-33.51835828,33.33660004,1553.821438
4.1750,-33.94604175,33.61632185,1553.473907
4.1800,-34.38247888,33.89939145,1553.120479
4.1850,-34.82727851,34.18559448,1552.762111
4.1900,-35.28038624,34.47407072,1552.398326
4.1950,-35.74234332,34.76522672,1552.030396
4.2000,-36.2133758,35.05873587,1551.658064
4.2050,-36.69383906,35.3551556,1551.281875
4.2100,-37.18250947,35.65413472,1550.902105
4.2150,-37.679252,35.95585006,1550.518748
4.2200,-38.18427366,36.2609065,1550.13237
4.2250,-38.69769984,36.56846898,1549.742724
4.2300,-39.21828629,36.87814221,1549.349429
4.2350,-39.74515052,37.19017611,1548.95273
4.2400,-40.27770163,37.5044455,1548.551492
4.2450,-40.81629759,37.82055733,1548.145483
4.2500,-41.36015863,38.13760415,1547.73427
4.2550,-41.90952335,38.45493048,1547.31789
4.2600,-42.46319649,38.77230597,1546.896057
4.2650,-43.0218538,39.09048699,1546.469026
4.2700,-43.58535284,39.40767055,1546.035502
4.2750,-44.1532869,39.72436331,1545.595897
4.2800,-44.72619654,40.04002489,1545.15019
4.2850,-45.30362756,40.35400502,1544.698391
4.2900,-45.88471576,40.66588114,1544.23996
4.2950,-46.47061422,40.97527542,1543.775444
4.3000,-47.06139749,41.28308501,1543.304635
4.3050,-47.65752716,41.58840596,1542.82747
4.3100,-48.26029963,41.88972894,1542.34385
4.3150,-48.8686044,42.18908732,1541.85413
4.3200,-49.48334032,42.48587616,1541.357964
4.3250,-50.10268477,42.7793196,1540.855103
4.3300,-50.72839822,43.07019089,1540.344415
4.3350,-51.35896116,43.35988427,1539.826405
4.3400,-51.99370494,43.64781509,1539.300399
4.3450,-52.63234401,43.93291816,1538.766373
4.3500,-53.27459168,44.21669507,1538.223758
4.3550,-53.91909288,44.49900302,1537.671926
4.3600,-54.56555982,44.78042043,1537.111172
4.3650,-55.21388272,45.06040355,1536.540814
4.3700,-55.86416188,45.33762114,1535.960996
4.3750,-56.51582773,45.61183856,1535.370965
4.3800,-57.16849359,45.88348843,1534.770185
4.3850,-57.82205276,46.15094887,1534.15896
4.3900,-58.47529165,46.41545924,1533.538031
4.3950,-59.12774115,46.67573643,1532.906238
4.4000,-59.77903181,46.93152949,1532.263893
4.4050,-60.42951172,47.1836904,1531.612621
4.4100,-61.08007456,47.43135644,1530.952231
4.4150,-61.72840202,47.67515484,1530.282631
4.4200,-62.37492605,47.91365434,1529.602975
4.4250,-63.01842374,48.14778933,1528.913658
4.4300,-63.6601375,48.37714331,1528.214853
4.4350,-64.30030545,48.60075918,1527.507085
4.4400,-64.93884576,48.81848274,1526.79109
4.4450,-65.5754633,49.0293595,1526.066516
4.4500,-66.21005561,49.23494893,1525.334762
4.4550,-66.84211444,49.43437064,1524.595438
4.4600,-67.47230282,49.62809106,1523.848615
4.4650,-68.09934988,49.8151317,1523.094594
4.4700,-68.72446223,49.99545777,1522.334086
4.4750,-69.3463361,50.1691001,1521.566483
4.4800,-69.96534956,50.33583814,1520.792319
4.4850,-70.58123147,50.49546415,1520.010909
4.4900,-71.19399368,50.64807924,1519.223082
4.4950,-71.80189617,50.79386017,1518.42894
4.5000,-72.40615177,50.93157315,1517.62895
4.5050,-73.00641277,51.06124918,1516.823058
4.5100,-73.60365085,51.18303738,1516.012214
4.5150,-74.19731656,51.29812653,1515.196258
4.5200,-74.78700123,51.40613137,1514.376254
4.5250,-75.37304638,51.50762022,1513.552134
4.5300,-75.95571111,51.60428579,1512.723929
4.5350,-76.53329589,51.69586959,1511.891804
4.5400,-77.10789308,51.78100834,1511.05642
4.5450,-77.67928027,51.86125976,1510.218523
4.5500,-78.24633983,51.93645484,1509.378288
4.5550,-78.80877253,52.00848098,1508.535953
4.5600,-79.36712157,52.0763398,1507.690924
4.5650,-79.92111692,52.14104231,1506.843207
4.5700,-80.4692166,52.203779,1505.993975
4.5750,-81.01218749,52.26306451,1505.142408
4.5800,-81.54863155,52.32061719,1504.288723
4.5850,-82.08081845,52.37511693,1503.432655
4.5900,-82.60910555,52.42810088,1502.575067
4.5950,-83.13351997,52.47928374,1501.715345
4.6000,-83.65344763,52.52868977,1500.853653
4.6050,-84.16955534,52.5759312,1499.989858
4.6100,-84.67978576,52.62425782,1499.124484
4.6150,-85.18561763,52.67083705,1498.256366
4.6200,-85.68681231,52.71589826,1497.385457
4.6250,-86.18447673,52.76029032,1496.512269
4.6300,-86.67797453,52.80362723,1495.637564
4.6350,-87.16851596,52.84592025,1494.761244
4.6400,-87.65673092,52.88756387,1493.883466
4.6450,-88.14244059,52.93027351,1493.004367
4.6500,-88.62640369,52.97366164,1492.12321
4.6550,-89.1076817,53.01841021,1491.240222
4.6600,-89.5881274,53.06507278,1490.355954
4.6650,-90.06777196,53.11357569,1489.470032
4.6700,-90.54744409,53.1647647,1488.582486
4.6750,-91.02703936,53.21996303,1487.693499
4.6800,-91.50603874,53.27805517,1486.80243
4.6850,-91.98519657,53.34191395,1485.910047
4.6900,-92.46475928,53.40998382,1485.01455
4.6950,-92.94518293,53.48299399,1484.116083
4.7000,-93.42771998,53.56093466,1483.214456
4.7050,-93.91150043,53.64358465,1482.309602
4.7100,-94.39641858,53.7306967,1481.400388
4.7150,-94.88376027,53.82243165,1480.486598
4.7200,-95.37454307,53.91823773,1479.569147
4.7250,-95.86940772,54.01872509,1478.647632
4.7300,-96.36737629,54.12313577,1477.720675
4.7350,-96.87053193,54.23178779,1476.788333
4.7400,-97.37665951,54.34541798,1475.849106
4.7450,-97.88690182,54.46411492,1474.903908
4.7500,-98.4013486,54.58714348,1473.95167
4.7550,-98.91975615,54.71403552,1472.991877
4.7600,-99.44132596,54.84380783,1472.024482
4.7650,-99.96649979,54.97675165,1471.048953
4.7700,-100.4946383,55.11180414,1470.065414
4.7750,-101.0252983,55.24989408,1469.074226
4.7800,-101.5573464,55.39030557,1468.074905
4.7850,-102.090379,55.53297169,1467.068301
4.7900,-102.6237615,55.67780439,1466.05405
4.7950,-103.1579613,55.82381392,1465.031346
4.8000,-103.6916367,55.97180399,1464.000794
4.8050,-104.2234603,56.12138789,1462.961972
4.8100,-104.7517486,56.27333007,1461.914409
4.8150,-105.2759142,56.42662952,1460.858238
4.8200,-105.7940305,56.58101211,1459.79294
4.8250,-106.3073333,56.73687706,1458.718886
4.8300,-106.8151637,56.89320166,1457.637259
4.8350,-107.3183199,57.05032037,1456.547397
4.8400,-107.8145605,57.20980889,1455.450063
4.8450,-108.3033167,57.37106453,1454.344788
4.8500,-108.7853197,57.53572891,1453.231202
4.8550,-109.2593828,57.70317668,1452.108521
4.8600,-109.7256771,57.87260833,1450.977569
4.8650,-110.1848314,58.04452569,1449.838418
4.8700,-110.6371445,58.21891577,1448.690465
4.8750,-111.081877,58.39680869,1447.533814
4.8800,-111.5202668,58.57700152,1446.367784
4.8850,-111.9498014,58.76175261,1445.192659
4.8900,-112.3709234,58.9512049,1444.008323
4.8950,-112.7832564,59.14564235,1442.81448
4.9000,-113.1873612,59.3448549,1441.610316
4.9050,-113.5826253,59.54879693,1440.396656
4.9100,-113.9706204,59.75641147,1439.172575
4.9150,-114.3520641,59.96811333,1437.938797
4.9200,-114.7265829,60.18466875,1436.695325
4.9250,-115.0943948,60.40445084,1435.442467
4.9300,-115.4556125,60.6279759,1434.179775
4.9350,-115.8087578,60.85466149,1432.906341
4.9400,-116.1555073,61.08391673,1431.623322
4.9450,-116.4962246,61.31435795,1430.329398
4.9500,-116.8307431,61.54600891,1429.026113
4.9550,-117.1602553,61.77864909,1427.713294
4.9600,-117.4839768,62.01168095,1426.390852
4.9650,-117.8023327,62.2448957,1425.058627
4.9700,-118.1142318,62.47720705,1423.71691
4.9750,-118.4205152,62.70801168,1422.364995
4.9800,-118.7220302,62.93767701,1421.003964
4.9850,-119.018343,63.16366946,1419.633058
4.9900,-119.3114067,63.38634186,1418.253029
4.9950,-119.6013543,63.60582267,1416.864338
5.0000,-119.8883752,63.82238696,1415.467042
5.0050,-120.1715239,64.03589053,1414.059954
5.0100,-120.4511623,64.24667323,1412.64461
5.0150,-120.7272014,64.4551416,1411.221124
5.0200,-120.9979761,64.66164777,1409.788654
5.0250,-121.2645777,64.86421081,1408.346791
5.0300,-121.5266364,65.06444276,1406.896393
5.0350,-121.7825987,65.26222927,1405.437879
5.0400,-122.0339624,65.45556947,1403.971781
5.0450,-122.28028,65.64552328,1402.497514
5.0500,-122.5214556,65.8318853,1401.014678
5.0550,-122.7579312,66.01405854,1399.523633
5.0600,-122.9887768,66.19341866,1398.024677
5.0650,-123.2146532,66.36960991,1396.517939
5.0700,-123.4343058,66.54227568,1395.002973
5.0750,-123.6476071,66.71192763,1393.479646
5.0800,-123.8549475,66.8778319,1391.947901
5.0850,-124.0568129,67.04003977,1390.407303
5.0900,-124.2519145,67.19828294,1388.857691
5.0950,-124.4399889,67.35244113,1387.29965
5.1000,-124.6208829,67.50183631,1385.732966
5.1050,-124.7945212,67.64620005,1384.157696
5.1100,-124.9619711,67.78502438,1382.573344
5.1150,-125.1232284,67.91820255,1380.981211
5.1200,-125.2783394,68.04696729,1379.380354
5.1250,-125.4255592,68.17026658,1377.772416
5.1300,-125.5637519,68.28896086,1376.155078
5.1350,-125.6934132,68.40345997,1374.529616
5.1400,-125.8140432,68.51447028,1372.895951
5.1450,-125.9245633,68.62167881,1371.254117
5.1500,-126.0243148,68.72357093,1369.603577
5.1550,-126.1129558,68.8203046,1367.944898
5.1600,-126.1899284,68.91397298,1366.278144
5.1650,-126.2541644,69.00131992,1364.603206
5.1700,-126.3052597,69.08189279,1362.920289
5.1750,-126.3435099,69.15612838,1361.22903
5.1800,-126.3688078,69.22372933,1359.53038
5.1850,-126.3814094,69.28365842,1357.823941
5.1900,-126.3810579,69.33323649,1356.110449
5.1950,-126.3680477,69.37198634,1354.390972
5.2000,-126.3422807,69.39810233,1352.666607
5.2050,-126.3046399,69.41013534,1350.93614
5.2100,-126.2547423,69.40717935,1349.200415
5.2150,-126.1923715,69.38930916,1347.459601
5.2200,-126.1190598,69.35526278,1345.71529
5.2250,-126.0345253,69.30603083,1343.966062
5.2300,-125.9389988,69.23895093,1342.212864
5.2350,-125.8348117,69.15550391,1340.457144
5.2400,-125.7218635,69.05504029,1338.698031
5.2450,-125.6019898,68.93863041,1336.937158
5.2500,-125.4747475,68.80698301,1335.174181
5.2550,-125.3409774,68.66019621,1333.409739
5.2600,-125.2012028,68.50060345,1331.643344
5.2650,-125.0552921,68.32856411,1329.875879
5.2700,-124.9051361,68.14635586,1328.107398
5.2750,-124.7497672,67.95587985,1326.338736
5.2800,-124.5883592,67.75863052,1324.569289
5.2850,-124.4206876,67.55731276,1322.798506
5.2900,-124.2456971,67.35457639,1321.026809
5.2950,-124.0634534,67.15027702,1319.254148
5.3000,-123.873168,66.94659756,1317.480959
5.3050,-123.6757751,66.7441483,1315.707637
5.3100,-123.4693484,66.54475731,1313.933177
5.3150,-123.2540572,66.34954863,1312.157504
5.3200,-123.0312997,66.15913496,1310.379945
5.3250,-122.8006602,65.97457679,1308.600702
5.3300,-122.5627378,65.79593375,1306.820023
5.3350,-122.317202,65.62289286,1305.037198
5.3400,-122.0636387,65.45717068,1303.252514
5.3450,-121.8014763,65.29827372,1301.465376
5.3500,-121.5317438,65.14579437,1299.67769
5.3550,-121.2532763,65.00025016,1297.888528
5.3600,-120.9673196,64.86069656,1296.098631
5.3650,-120.6748931,64.72691754,1294.307609
5.3700,-120.3763654,64.59980842,1292.515083
5.3750,-120.0716641,64.47967236,1290.720866
5.3800,-119.7602703,64.36721665,1288.925113
5.3850,-119.4423645,64.26116302,1287.127704
5.3900,-119.1186351,64.16221781,1285.328067
5.3950,-118.7895035,64.06822401,1283.526456
5.4000,-118.4544819,63.97855895,1281.723185
5.4050,-118.1145074,63.89326262,1279.918545
5.4100,-117.7681254,63.81294014,1278.112806
5.4150,-117.4157036,63.73570495,1276.305664
5.4200,-117.0572099,63.66026108,1274.4974
5.4250,-116.6928726,63.58731562,1272.687707
5.4300,-116.3238582,63.51547127,1270.878113
5.4350,-115.9484143,63.44470156,1269.068514
5.4400,-115.5675267,63.37428736,1267.25963
5.4450,-115.1822769,63.30377262,1265.452309
5.4500,-114.7937906,63.23370672,1263.646385
5.4550,-114.4016098,63.1628573,1261.84117
5.4600,-114.0056952,63.09046266,1260.036777
5.4650,-113.6070759,63.01788471,1258.233027
5.4700,-113.2067407,62.9442623,1256.430577
5.4750,-112.8039777,62.87034536,1254.63023
5.4800,-112.3980315,62.79492373,1252.83141
5.4850,-111.9893733,62.71638886,1251.034922
5.4900,-111.5774612,62.63622332,1249.241014
5.4950,-111.1621901,62.5534512,1247.449368
5.5000,-110.7431321,62.46878209,1245.660678
5.5050,-110.3197038,62.38342466,1243.874994
5.5100,-109.8924014,62.29629652,1242.092857
5.5150,-109.4604462,62.20846457,1240.314887
5.5200,-109.0221351,62.11964697,1238.539974
5.5250,-108.5768988,62.03095082,1236.768991
5.5300,-108.1245663,61.94286495,1235.002255
5.5350,-107.6637678,61.85460976,1233.238625
5.5400,-107.1938856,61.76628983,1231.479055
5.5450,-106.7144723,61.67704854,1229.723729
5.5500,-106.2270726,61.58565163,1227.972667
5.5550,-105.731509,61.49177995,1226.225884
5.5600,-105.2283053,61.39558943,1224.48429
5.5650,-104.7181865,61.29667578,1222.748121
5.5700,-104.2004233,61.19456309,1221.018073
5.5750,-103.6761052,61.08985403,1219.294691
5.5800,-103.1455399,60.98281443,1217.577825
5.5850,-102.6110799,60.87316626,1215.868874
5.5900,-102.0736578,60.75982278,1214.167826
5.5950,-101.5316029,60.64520062,1212.474473
5.6000,-100.9855921,60.52976029,1210.789147
5.6050,-100.4361335,60.41323764,1209.111036
5.6100,-99.88442638,60.29576089,1207.440446
5.6150,-99.33190168,60.17655397,1205.778362
5.6200,-98.778086,60.05606194,1204.12489
5.6250,-98.22329075,59.93529475,1202.480663
5.6300,-97.66785246,59.81252097,1200.846139
5.6350,-97.11225485,59.68919184,1199.221678
5.6400,-96.55599138,59.56549874,1197.606285
5.6450,-95.99917394,59.44162897,1196.000615
5.6500,-95.44111538,59.31969318,1194.404017
5.6550,-94.88322365,59.19992181,1192.817441
5.6600,-94.32449829,59.08377384,1191.240004
5.6650,-93.7645214,58.9712951,1189.671932
5.6700,-93.20290028,58.86386914,1188.113067
5.6750,-92.6409008,58.75926347,1186.56359
5.6800,-92.07764166,58.65894151,1185.022083
5.6850,-91.51280398,58.56381293,1183.488696
5.6900,-90.9472416,58.47249209,1181.963518
5.6950,-90.38057126,58.38694471,1180.446155
5.7000,-89.81290168,58.30814577,1178.936054
5.7050,-89.24447148,58.23542166,1177.432226
5.7100,-88.67666673,58.16803808,1175.935284
5.7150,-88.1083721,58.10699949,1174.444256
5.7200,-87.539928,58.05341252,1172.960284
5.7250,-86.97062428,58.0052659,1171.482074
5.7300,-86.40081627,57.96307443,1170.009589
5.7350,-85.83151812,57.92644392,1168.542493
5.7400,-85.26198515,57.89450747,1167.080425
5.7450,-84.69151626,57.86763405,1165.622575
5.7500,-84.11937429,57.84570606,1164.169519
5.7550,-83.54574187,57.8280633,1162.721343
5.7600,-82.97009879,57.81443438,1161.277386
5.7650,-82.39165468,57.80424306,1159.838004
5.7700,-81.81008457,57.79809293,1158.402929
5.7750,-81.22587474,57.79377353,1156.972285
5.7800,-80.63893619,57.78997571,1155.545612
5.7850,-80.04894112,57.78902332,1154.122957
5.7900,-79.45569997,57.78917752,1152.703655
5.7950,-78.8582809,57.79078889,1151.28801
5.8000,-78.25603505,57.79105484,1149.875018
5.8050,-77.64950726,57.78962915,1148.466127
5.8100,-77.03609187,57.78756318,1147.060201
5.8150,-76.41633427,57.78279222,1145.65726
5.8200,-75.78878667,57.77464779,1144.25663
5.8250,-75.15428393,57.76169575,1142.858986
5.8300,-74.51171565,57.74412791,1141.463213
5.8350,-73.86159944,57.72219904,1140.070688
5.8400,-73.2019872,57.69460879,1138.680595
5.8450,-72.53229616,57.66279086,1137.292826
5.8500,-71.85038463,57.62676704,1135.907429
5.8550,-71.15652837,57.58695854,1134.524671
5.8600,-70.45051926,57.54274622,1133.144224
5.8650,-69.73114861,57.49499458,1131.766401
5.8700,-68.99852953,57.44409847,1130.390895
5.8750,-68.25227664,57.38793807,1129.017087
5.8800,-67.49385623,57.32692114,1127.646279
5.8850,-66.72039511,57.26260651,1126.277571
5.8900,-65.93104707,57.194353,1124.91102
5.8950,-65.12770088,57.12215367,1123.547116
5.9000,-64.31091237,57.04515164,1122.186005
5.9050,-63.48115462,56.9637211,1120.827756
5.9100,-62.63918881,56.87771981,1119.473007
5.9150,-61.78372721,56.78840324,1118.121308
5.9200,-60.9152924,56.69486158,1116.772891
5.9250,-60.0345497,56.59682688,1115.428126
5.9300,-59.14035689,56.49662932,1114.086535
5.9350,-58.23313397,56.39404428,1112.747905
5.9400,-57.31507308,56.28955033,1111.413793
5.9450,-56.38614507,56.18321012,1110.083887
5.9500,-55.44656263,56.07544203,1108.757815
5.9550,-54.49610595,55.96608118,1107.434966
5.9600,-53.53556078,55.8554869,1106.116091
5.9650,-52.56531991,55.74385162,1104.801026
5.9700,-51.58729724,55.63110524,1103.490523
5.9750,-50.60178144,55.51828322,1102.184545
5.9800,-49.61051998,55.40437639,1100.884049
5.9850,-48.61438431,55.28933606,1099.588948
5.9900,-47.61414629,55.17492031,1098.299898
5.9950,-46.60956228,55.06094254,1097.016775
6.0000,-45.60160299,54.94721661,1095.739012
6.0050,-44.59161935,54.83458748,1094.468188
6.0100,-43.57850182,54.72332563,1093.203348
6.0150,-42.56401906,54.61494596,1091.945645
6.0200,-41.54857189,54.50751589,1090.69374
6.0250,-40.53433382,54.40230301,1089.449163
6.0300,-39.52084322,54.29872372,1088.211614
6.0350,-38.50848023,54.19659533,1086.981705
6.0400,-37.49763171,54.09622924,1085.759074
6.0450,-36.48907322,53.99680912,1084.544396
6.0500,-35.48270605,53.8966709,1083.337486
6.0550,-34.47907712,53.79705727,1082.138707
6.0600,-33.47814236,53.69584202,1080.948533
6.0650,-32.4796448,53.59211344,1079.766926
6.0700,-31.48257757,53.48441839,1078.593516
6.0750,-30.48674732,53.37301782,1077.428216
6.0800,-29.49068362,53.25906755,1076.271035
6.0850,-28.49335378,53.14122926,1075.121439
6.0900,-27.49453101,53.02035727,1073.979674
6.0950,-26.49417958,52.89562796,1072.845191
6.1000,-25.49170385,52.76826905,1071.717665
6.1050,-24.48499564,52.63698923,1070.595785
6.1100,-23.47484834,52.50048548,1069.479886
6.1150,-22.4596736,52.36002867,1068.369194
6.1200,-21.44157338,52.21496545,1067.264645
6.1250,-20.41931809,52.06404897,1066.165317
6.1300,-19.39277244,51.90739626,1065.071346
6.1350,-18.36122186,51.74460409,1063.981865
6.1400,-17.32694861,51.57611573,1062.898147
6.1450,-16.28938801,51.40103869,1061.82001
6.1500,-15.2498835,51.21882352,1060.747982
6.1550,-14.20803495,51.02929824,1059.682222
6.1600,-13.16398878,50.83223288,1058.623155
6.1650,-12.11977581,50.6264957,1057.571322
6.1700,-11.07370669,50.41173096,1056.52655
6.1750,-10.02568078,50.18879728,1055.489014
6.1800,-8.975580404,49.95706544,1054.459145
6.1850,-7.924087696,49.71630251,1053.43742
6.1900,-6.870880294,49.46583027,1052.423975
6.1950,-5.816322146,49.20672168,1051.419548
6.2000,-4.760792855,48.9376436,1050.424293
6.2050,-3.705463369,48.65883931,1049.439243
6.2100,-2.650540288,48.36969192,1048.464394
6.2150,-1.596878242,48.06945148,1047.500095
6.2200,-0.5476399346,47.75959771,1046.547828
6.2250,0.4966950573,47.44056599,1045.607708
6.2300,1.533771309,47.1109391,1044.680141
6.2350,2.561255943,46.7728131,1043.766245
6.2400,3.579053736,46.42500101,1042.865325
6.2450,4.585129314,46.06989041,1041.977998
6.2500,5.57611591,45.70644693,1041.105474
6.2550,6.552452071,45.33651606,1040.247397
6.2600,7.512016065,44.96027183,1039.404035
6.2650,8.454762269,44.5789602,1038.575458
6.2700,9.380660375,44.19400133,1037.761451
6.2750,10.2892812,43.8044932,1036.962223
6.2800,11.1810817,43.41241178,1036.177695
6.2850,12.0561293,43.0183906,1035.40798
6.2900,12.91566282,42.62169407,1034.65279
6.2950,13.75904465,42.22285602,1033.912077
6.3000,14.58683069,41.82228128,1033.186548
6.3050,15.40100751,41.42019823,1032.475642
6.3100,16.20191913,41.01651847,1031.779217
6.3150,16.99087796,40.61054774,1031.09697
6.3200,17.77016241,40.20342847,1030.428659
6.3250,18.54189922,39.79503752,1029.773586
6.3300,19.30724784,39.3855163,1029.13145
6.3350,20.06790295,38.97580201,1028.501894
6.3400,20.82567783,38.56583046,1027.884088
6.3450,21.58150372,38.15597297,1027.277894
6.3500,22.33644433,37.74789788,1026.682834
6.3550,23.09065298,37.34086397,1026.09883
6.3600,23.84480615,36.93548205,1025.525113
6.3650,24.5998559,36.53323468,1024.961478
6.3700,25.35575741,36.13454066,1024.407581
6.3750,26.112317,35.73945817,1023.863414
6.3800,26.86912207,35.34851424,1023.328816
6.3850,27.62556684,34.96162242,1022.803599
6.3900,28.38288891,34.57879716,1022.287186
6.3950,29.14000923,34.20003924,1021.779628
6.4000,29.89814317,33.82687363,1021.280592
6.4050,30.65613785,33.45925254,1020.790066
6.4100,31.41331838,33.09784272,1020.308133
6.4150,32.17076753,32.74265762,1019.83423
6.4200,32.92919511,32.3940317,1019.368027
6.4250,33.68926712,32.05270351,1018.909301
6.4300,34.4513813,31.71897809,1018.457823
6.4350,35.21539852,31.39235064,1018.01345
6.4400,35.98255497,31.07402075,1017.575872
6.4450,36.75212242,30.76297404,1017.144978
6.4500,37.52477198,30.45932151,1016.720322
6.4550,38.30138311,30.16392282,1016.301626
6.4600,39.08141773,29.87529795,1015.888847
6.4650,39.86662377,29.59528626,1015.481257
6.4700,40.65637866,29.32389486,1015.079007
6.4750,41.44863709,29.06116659,1014.682515
6.4800,42.24413948,28.80778178,1014.291485
6.4850,43.0416547,28.56350059,1013.905953
6.4900,43.84076128,28.33004514,1013.526082
6.4950,44.64124217,28.10551669,1013.151385
6.5000,45.44296303,27.89072443,1012.781953
6.5050,46.24474745,27.68545465,1012.417777
6.5100,47.0454305,27.48925311,1012.059118
6.5150,47.84312683,27.30203745,1011.706177
6.5200,48.63848319,27.12229583,1011.358431
6.5250,49.42903627,26.94974785,1011.016509
6.5300,50.21477573,26.78478374,1010.680323
6.5350,50.99607483,26.62666338,1010.349663
6.5400,51.77099718,26.47457825,1010.024946
6.5450,52.53949216,26.32728348,1009.706064
6.5500,53.30347599,26.18452438,1009.39218
6.5550,54.06003275,26.04646685,1009.084283
6.5600,54.81148928,25.91166378,1008.781426
6.5650,55.55624024,25.78113653,1008.484051
6.5700,56.29452184,25.65263011,1008.191855
6.5750,57.02691357,25.52811797,1007.904721
6.5800,57.75341599,25.40659791,1007.622342
6.5850,58.47466196,25.28723213,1007.344329
6.5900,59.1892966,25.17051842,1007.071061
6.5950,59.89896173,25.05628141,1006.801924
6.6000,60.60327307,24.94436651,1006.53676
6.6050,61.30209444,24.83364656,1006.275413
6.6100,61.9965771,24.72332376,1006.017442
6.6150,62.68667361,24.6133554,1005.762689
6.6200,63.37199678,24.50417158,1005.511162
6.6250,64.05348572,24.3961025,1005.262502
6.6300,64.73124215,24.28854164,1005.016497
6.6350,65.40517476,24.18120749,1004.773125
6.6400,66.07441048,24.07370112,1004.532514
6.6450,66.74058685,23.96505157,1004.293896
6.6500,67.40277288,23.8555243,1004.057537
6.6550,68.06249345,23.74406831,1003.822776
6.6600,68.71865001,23.63177912,1003.59008
6.6650,69.37182223,23.51781577,1003.35907
6.6700,70.02228568,23.40169536,1003.129563
6.6750,70.67055073,23.28357276,1002.901491
6.6800,71.31709633,23.16453713,1002.674795
6.6850,71.96261841,23.04423228,1002.449422
6.6900,72.60653985,22.92266665,1002.225251
6.6950,73.25025496,22.79939876,1002.001901
6.7000,73.89207302,22.67472568,1001.779788
6.7050,74.53304673,22.54933336,1001.558784
6.7100,75.17435888,22.4238347,1001.338686
6.7150,75.81582013,22.29564538,1001.119112
6.7200,76.45664997,22.16593818,1000.900483
6.7250,77.09655008,22.03523961,1000.682913
6.7300,77.73459219,21.90151234,1000.466331
6.7350,78.37093717,21.76481665,1000.250844
6.7400,79.00522288,21.62406437,1000.036379
6.7450,79.6368219,21.47919085,999.8231827
6.7500,80.26488332,21.32976591,999.611498
6.7550,80.88911714,21.17439633,999.4012138
6.7600,81.50915912,21.01481316,999.1927384
6.7650,82.12338602,20.84888558,998.9864271
6.7700,82.73251445,20.67690693,998.7821781
6.7750,83.33709916,20.49930073,998.5800433
6.7800,83.93709228,20.3162616,998.3800651
6.7850,84.53286509,20.12705812,998.1822155
6.7900,85.12343155,19.93100569,997.9867319
6.7950,85.70941542,19.72938317,997.7936323
6.8000,86.29165334,19.52194039,997.6026716
6.8050,86.86997534,19.30992214,997.4141197
6.8100,87.4442218,19.09304346,997.227964
6.8150,88.01500966,18.87105156,997.0440252
6.8200,88.5808192,18.6459936,996.8628721
6.8250,89.14281774,18.41876301,996.6842782
6.8300,89.70066752,18.18958449,996.5082154
6.8350,90.25163981,17.95773104,996.335151
6.8400,90.79646239,17.72540052,996.1650688
6.8450,91.33367073,17.49308505,995.9981501
6.8500,91.8623952,17.26185249,995.8347107
6.8550,92.38218471,17.0312553,995.6746415
6.8600,92.89104633,16.80322238,995.5183503
6.8650,93.38909557,16.57665141,995.3657399
6.8700,93.87526556,16.35297669,995.2170033
6.8750,94.34829886,16.13084492,995.0721489
6.8800,94.80616431,15.91046401,994.9316416
6.8850,95.24817141,15.69216108,994.7955539
6.8900,95.67395151,15.47681461,994.6639679
6.8950,96.08185315,15.26360264,994.5371434
6.9000,96.47138513,15.05406528,994.4154179
6.9050,96.84217094,14.8484564,994.2987522
6.9100,97.19169186,14.6477576,994.1879129
6.9150,97.52042568,14.45135532,994.082586
6.9200,97.82798007,14.25926439,993.9829293
6.9250,98.11316644,14.07000821,993.8890272
6.9300,98.37509882,13.88525473,993.8012379
6.9350,98.61294127,13.70407453,993.7195351
6.9400,98.82702328,13.52714746,993.6439771
6.9450,99.01451184,13.3545909,993.5750924
6.9500,99.17663216,13.18654501,993.51276
6.9550,99.31169436,13.02256927,993.4571739
6.9600,99.42010323,12.8634982,993.4083795
6.9650,99.50078235,12.70800162,993.3664021
6.9700,99.5530908,12.55773104,993.3316007
6.9750,99.57764402,12.41163758,993.3036063
6.9800,99.574096,12.26925505,993.2826363
6.9850,99.54310879,12.13077371,993.2683212
6.9900,99.48463411,11.99525718,993.2607961
6.9950,99.39962304,11.86381544,993.2599591
7.0000,99.28881865,11.73504363,993.2656216
7.0050,99.15293584,11.60787241,993.2774492
7.0100,98.99226356,11.48108594,993.295248
7.0150,98.80712956,11.35709041,993.3194059
7.0200,98.59881517,11.23410715,993.3494402
7.0250,98.37050073,11.11346232,993.3849988
7.0300,98.1224379,10.99460619,993.4261079
7.0350,97.8563941,10.87734324,993.4724095
7.0400,97.57349043,10.76280181,993.5237884
7.0450,97.2754934,10.64862924,993.5798719
7.0500,96.9639951,10.53657237,993.6405202
7.0550,96.6401173,10.42530827,993.7055402
7.0600,96.30606835,10.31483905,993.7745019
7.0650,95.96507103,10.20513655,993.8467843
7.0700,95.61617453,10.09689171,993.9227087
7.0750,95.26115871,9.989071316,994.0018926
7.0800,94.90057463,9.880723716,994.0842572
7.0850,94.53510607,9.773881913,994.1699171
7.0900,94.16578989,9.669053838,994.2588262
7.0950,93.79323573,9.565227785,994.3508714
7.1000,93.41629047,9.463088268,994.4465016
7.1050,93.03680066,9.361285321,994.5453123
7.1100,92.65329171,9.2620503,994.6479118
7.1150,92.26610562,9.165479236,994.7544274
7.1200,91.87443278,9.070970072,994.8651437
7.1250,91.47898245,8.978187382,994.9798835
7.1300,91.07740461,8.888471889,995.099558
7.1350,90.66949623,8.802903306,995.2243438
7.1400,90.25400015,8.720565308,995.3546211
7.1450,89.82903958,8.642118133,995.4909942
7.1500,89.39287321,8.568706275,995.6340201
7.1550,88.94445191,8.500883053,995.7841248
7.1600,88.4823549,8.439136606,995.9417806
7.1650,88.00435142,8.384495346,996.1076275
7.1700,87.50845758,8.335738905,996.2821554
7.1750,86.99479699,8.295924218,996.4657184
7.1800,86.46151637,8.265836527,996.6588446
7.1850,85.9069756,8.246179705,996.8621877
7.1900,85.33119704,8.236962765,997.0756554
7.1950,84.7329352,8.239791908,997.2998001
7.2000,84.11146873,8.253209068,997.5346571
7.2050,83.46550264,8.27829096,997.7808424
7.2100,82.79566977,8.315323989,998.0383002
7.2150,82.10116196,8.366361533,998.307733
7.2200,81.3810029,8.430024444,998.5893059
7.2250,80.63588598,8.508482091,998.8833954
7.2300,79.86506443,8.600369682,999.1903199
7.2350,79.07041339,8.7075338,999.5101381
7.2400,78.25119397,8.828976182,999.8432706
7.2450,77.40767714,8.964510662,1000.190027
7.2500,76.54000491,9.113182244,1000.550546
7.2550,75.64794374,9.275287115,1000.925267
7.2600,74.73230776,9.450586529,1001.314399
7.2650,73.79271604,9.639022811,1001.718389
7.2700,72.83022874,9.839895942,1002.137185
7.2750,71.84466096,10.0532752,1002.571103
7.2800,70.83494861,10.27885551,1003.020643
7.2850,69.80201313,10.51577968,1003.485813
7.2900,68.74653333,10.76443555,1003.966634
7.2950,67.66844661,11.02432656,1004.463247
7.3000,66.56792178,11.2954882,1004.975586
7.3050,65.44453934,11.57897456,1005.504194
7.3100,64.29960792,11.87498129,1006.048845
7.3150,63.13423986,12.18302388,1006.609389
7.3200,61.94927008,12.5035484,1007.18559
7.3250,60.74267708,12.83418359,1007.777651
7.3300,59.517298,13.17694997,1008.385372
7.3350,58.27178183,13.53018287,1009.008845
7.3400,57.00801398,13.89218026,1009.647721
7.3450,55.72717977,14.2646766,1010.3017
7.3500,54.43020205,14.64576126,1010.970627
7.3550,53.11813362,15.03553968,1011.654351
7.3600,51.79232691,15.43387004,1012.352688
7.3650,50.45270387,15.83953451,1013.06558
7.3700,49.1016689,16.25144922,1013.792439
7.3750,47.74002829,16.66924598,1014.533097
7.3800,46.36886154,17.09294862,1015.287498
7.3850,44.99019924,17.52072294,1016.055177
7.3900,43.60472268,17.95213166,1016.836042
7.3950,42.213303,18.3863647,1017.629791
7.4000,40.81729345,18.82393527,1018.436392
7.4050,39.41797984,19.26441412,1019.255415
7.4100,38.01720749,19.70500659,1020.086152
7.4150,36.61470531,20.14585544,1020.928637
7.4200,35.21174988,20.5874772,1021.782753
7.4250,33.80696037,21.02896971,1022.648998
7.4300,32.40161059,21.46911512,1023.526783
7.4350,30.99656083,21.90691695,1024.415838
7.4400,29.59367175,22.3429815,1025.316018
7.4450,28.1932708,22.77633121,1026.227237
7.4500,26.79651316,23.2064141,1027.149394
7.4550,25.40385959,23.63317301,1028.082483
7.4600,24.01574859,24.05454748,1029.026463
7.4650,22.63336601,24.46999053,1029.981167
7.4700,21.25806298,24.88007304,1030.946609
7.4750,19.88926576,25.28316639,1031.923095
7.4800,18.52960493,25.67877851,1032.910098
7.4850,17.17974496,26.06652032,1033.907578
7.4900,15.83923674,26.44439126,1034.916045
7.4950,14.50911296,26.8125506,1035.935314
7.5000,13.19072048,27.17044443,1036.965079
7.5050,11.88515897,27.51970859,1038.005154
7.5100,10.59321982,27.85992086,1039.055226
7.5150,9.315634124,28.18907548,1040.114743
7.5200,8.053678172,28.50947577,1041.18339
7.5250,6.806874473,28.82108773,1042.261328
7.5300,5.575437639,29.12479196,1043.348137
7.5350,4.358142775,29.42009649,1044.444108
7.5400,3.155912267,29.7076481,1045.548206
7.5450,1.968318784,29.98904095,1046.660397
7.5500,0.7948619868,30.26486189,1047.780398
7.5550,-0.3649859365,30.53589394,1048.908251
7.5600,-1.512420377,30.80147111,1050.043416
7.5650,-2.647652221,31.06274731,1051.185653
7.5700,-3.772384742,31.31949368,1052.335008
7.5750,-4.886138816,31.57344893,1053.490992
7.5800,-5.989781802,31.82300218,1054.652945
7.5850,-7.08488087,32.06969136,1055.82169
7.5900,-8.172906303,32.31509372,1056.996888
7.5950,-9.253055991,32.55829809,1058.178031
7.6000,-10.32628426,32.79962682,1059.364968
7.6050,-11.39254437,33.03823592,1060.557478
7.6100,-12.45332895,33.2743548,1061.755768
7.6150,-13.51060643,33.50627619,1062.959944
7.6200,-14.56449422,33.73503416,1064.169652
7.6250,-15.61498412,33.96064235,1065.385218
7.6300,-16.66339231,34.1824775,1066.60645
7.6350,-17.70961936,34.40228609,1067.833649
7.6400,-18.75320944,34.62109376,1069.066371
7.6450,-19.79425791,34.83808402,1070.304773
7.6500,-20.83336514,35.05414552,1071.549175
7.6550,-21.86977774,35.27024202,1072.798614
7.6600,-22.90399143,35.48539363,1074.053408
7.6650,-23.93602984,35.70132459,1075.313956
7.6700,-24.96623942,35.91775811,1076.580298
7.6750,-25.99444788,36.13407239,1077.852381
7.6800,-27.01985772,36.35093044,1079.129164
7.6850,-28.0422935,36.56780647,1080.409635
7.6900,-29.06162597,36.78569215,1081.693975
7.6950,-30.07688218,37.00340309,1082.981785
7.7000,-31.08757092,37.22030086,1084.271976
7.7050,-32.09500802,37.43698204,1085.564926
7.7100,-33.09918707,37.65431838,1086.860226
7.7150,-34.09860538,37.87182382,1088.157638
7.7200,-35.09333003,38.08811908,1089.456363
7.7250,-36.08023899,38.3044833,1090.755612
7.7300,-37.06018292,38.52029971,1092.055691
7.7350,-38.03095054,38.73603221,1093.355797
7.7400,-38.99353812,38.95066109,1094.656033
7.7450,-39.94735038,39.16486293,1095.956935
7.7500,-40.89257082,39.37687613,1097.258243
7.7550,-41.82842903,39.58556568,1098.559169
7.7600,-42.75482892,39.79233964,1099.860248
7.7650,-43.66971261,39.99680184,1101.161169
7.7700,-44.57385255,40.19928891,1102.462797
7.7750,-45.46617799,40.39875762,1103.764754
7.7800,-46.34671424,40.59548467,1105.068
7.7850,-47.21496049,40.78964567,1106.372551
7.7900,-48.0712152,40.98138478,1107.678774
7.7950,-48.9152325,41.16989617,1108.987
7.8000,-49.74720538,41.35513426,1110.297178
7.8050,-50.56760293,41.53527286,1111.609838
7.8100,-51.37755129,41.7106624,1112.9256
7.8150,-52.17791386,41.88255488,1114.244971
7.8200,-52.9690501,42.0503941,1115.56866
7.8250,-53.75121958,42.21351293,1116.896665
7.8300,-54.52393646,42.37225478,1118.229465
7.8350,-55.28860831,42.52573449,1119.566839
7.8400,-56.04644894,42.67457025,1120.910131
7.8450,-56.79621997,42.81899442,1122.25909
7.8500,-57.54080049,42.95907889,1123.61507
7.8550,-58.27811306,43.09405673,1124.977666
7.8600,-59.00956321,43.22440187,1126.347484
7.8650,-59.73620009,43.35030429,1127.725101
7.8700,-60.45786789,43.47128448,1129.110066
7.8750,-61.17556393,43.58757841,1130.503683
7.8800,-61.89008425,43.69969697,1131.905921
7.8850,-62.60177025,43.80805779,1133.317003
7.8900,-63.3100314,43.91100176,1134.736883
7.8950,-64.01619648,44.00934866,1136.166368
7.9000,-64.72045618,44.10436891,1137.605486
7.9050,-65.42214399,44.19779727,1139.05463
7.9100,-66.12164921,44.28841277,1140.514162
7.9150,-66.81814765,44.37933274,1141.983296
7.9200,-67.51092908,44.46916985,1143.462428
7.9250,-68.20075081,44.55962907,1144.951212
7.9300,-68.88755077,44.65017092,1146.449822
7.9350,-69.57088299,44.74133617,1147.958581
7.9400,-70.25223254,44.83213168,1149.477712
7.9450,-70.93154759,44.92465091,1151.007774
7.9500,-71.60930628,45.01705796,1152.54809
7.9550,-72.28505099,45.10951696,1154.099716
7.9600,-72.95937327,45.20262554,1155.662745
7.9650,-73.63147198,45.29628144,1157.236759
7.9700,-74.30113345,45.38960903,1158.8215
7.9750,-74.96814292,45.48361812,1160.41696
7.9800,-75.63138239,45.57727002,1162.024039
7.9850,-76.29063013,45.67094167,1163.64333
7.9900,-76.94612501,45.76225799,1165.273343
7.9950,-77.59908686,45.85253709,1166.915009
8.0000,-78.24955306,45.94066134,1168.568619
8.0050,-78.89613195,46.02580073,1170.233272
8.0100,-79.53888502,46.10832202,1171.909361
8.0150,-80.17735773,46.18825575,1173.595453
8.0200,-80.81178136,46.26581257,1175.291528
8.0250,-81.44346949,46.3394487,1176.996413
8.0300,-82.07052449,46.41022909,1178.709901
8.0350,-82.69481415,46.47671718,1180.431977
8.0400,-83.31615783,46.54025697,1182.162223
8.0450,-83.9340355,46.59973609,1183.899093
8.0500,-84.54688818,46.6567211,1185.642249
8.0550,-85.15428366,46.71166191,1187.392434
8.0600,-85.75545479,46.76564737,1189.148707
8.0650,-86.35174345,46.81843046,1190.911276
8.0700,-86.94170233,46.86956247,1192.67889
8.0750,-87.52493722,46.91970232,1194.451746
8.0800,-88.10219222,46.96918393,1196.230261
8.0850,-88.67283149,47.01721815,1198.013501
8.0900,-89.23591409,47.06463071,1199.80174
8.0950,-89.79067234,47.11069132,1201.594403
8.1000,-90.33646104,47.15707045,1203.390955
8.1050,-90.87258129,47.20241401,1205.192033
8.1100,-91.39931844,47.24750044,1206.997384
8.1150,-91.91579006,47.29131013,1208.807457
8.1200,-92.42119138,47.3349113,1210.621608
8.1250,-92.91583091,47.37853624,1212.439151
8.1300,-93.4004957,47.42338863,1214.259751
8.1350,-93.87488295,47.47062937,1216.083871
8.1400,-94.33829753,47.5201798,1217.911148
8.1450,-94.79337653,47.57090062,1219.741879
8.1500,-95.23861642,47.62251821,1221.574377
8.1550,-95.67632468,47.67582511,1223.409162
8.1600,-96.10592342,47.73034667,1225.245493
8.1650,-96.52703477,47.78616294,1227.082439
8.1700,-96.93947988,47.84306519,1228.920022
8.1750,-97.34453634,47.90211302,1230.757397
8.1800,-97.74059022,47.96370259,1232.594556
8.1850,-98.12880579,48.02834595,1234.431272
8.1900,-98.50960379,48.09681525,1236.267468
8.1950,-98.88319178,48.1695747,1238.103137
8.2000,-99.24813289,48.24560513,1239.937978
8.2050,-99.60610029,48.32624838,1241.772139
8.2100,-99.95574184,48.41302933,1243.604588
8.2150,-100.298786,48.50434433,1245.434451
8.2200,-100.6359873,48.60061734,1247.263983
8.2250,-100.9672915,48.70101254,1249.091321
8.2300,-101.2934321,48.80656796,1250.914619
8.2350,-101.6150015,48.91706981,1252.73311
8.2400,-101.9322035,49.03339902,1254.54762
8.2450,-102.2467078,49.15403977,1256.357784
8.2500,-102.5574877,49.28148403,1258.16243
8.2550,-102.8678205,49.41535439,1259.961277
8.2600,-103.1775258,49.55484843,1261.753206
8.2650,-103.487337,49.69770953,1263.537897
8.2700,-103.799017,49.84493306,1265.315619
8.2750,-104.1124889,49.99579235,1267.085083
8.2800,-104.4280227,50.14995819,1268.845009
8.2850,-104.7466351,50.30776464,1270.595947
8.2900,-105.0672269,50.4683247,1272.336863
8.2950,-105.3893613,50.63069012,1274.067119
8.3000,-105.7119757,50.79477561,1275.785751
8.3050,-106.0345649,50.95930175,1277.492427
8.3100,-106.3551056,51.12345373,1279.185847
8.3150,-106.6733801,51.28642542,1280.867272
8.3200,-106.987094,51.44640262,1282.535823
8.3250,-107.2946739,51.60354475,1284.191895
8.3300,-107.5951613,51.75617126,1285.835166
8.3350,-107.8862206,51.90304555,1287.466017
8.3400,-108.1662661,52.04303553,1289.084705
8.3450,-108.432549,52.17686658,1290.690856
8.3500,-108.6844278,52.30239163,1292.285251
8.3550,-108.9206991,52.41841994,1293.867356
8.3600,-109.1396345,52.52519403,1295.437524
8.3650,-109.3393091,52.62151917,1296.994936
8.3700,-109.5203021,52.70689515,1298.540943
8.3750,-109.6823626,52.78045375,1300.074985
8.3800,-109.8247213,52.84011208,1301.597043
8.3850,-109.9472459,52.88773044,1303.10791
8.3900,-110.0504037,52.92256198,1304.607542
8.3950,-110.1334786,52.94552263,1306.097234
8.4000,-110.1973892,52.95623995,1307.577463
8.4050,-110.2426072,52.95603199,1309.047439
8.4100,-110.2698193,52.94352676,1310.507922
8.4150,-110.2794263,52.92251509,1311.959251
8.4200,-110.2719103,52.89165415,1313.40196
8.4250,-110.247215,52.85228526,1314.835897
8.4300,-110.2050907,52.80278186,1316.262191
8.4350,-110.1468687,52.74318511,1317.681282
8.4400,-110.0740662,52.67373487,1319.093271
8.4450,-109.9853451,52.5951348,1320.499329
8.4500,-109.8822442,52.50699366,1321.900361
8.4550,-109.7653433,52.41024482,1323.296647
8.4600,-109.6357598,52.30350675,1324.689515
8.4650,-109.4946942,52.18828013,1326.080641
8.4700,-109.3425129,52.0658565,1327.470403
8.4750,-109.1794229,51.93421438,1328.86016
8.4800,-109.005584,51.79620394,1330.250019
8.4850,-108.8211878,51.65123959,1331.640101
8.4900,-108.6276745,51.50053519,1333.031139
8.4950,-108.4258103,51.34453784,1334.423709
8.5000,-108.218268,51.18422675,1335.818359
8.5050,-108.0046838,51.01938429,1337.214843
8.5100,-107.7881042,50.85126508,1338.613802
8.5150,-107.5675961,50.68143192,1340.017738
8.5200,-107.3445573,50.51073685,1341.423531
8.5250,-107.1199107,50.33987254,1342.833827
8.5300,-106.8944058,50.16957729,1344.249848
8.5350,-106.6695173,50.00032929,1345.672001
8.5400,-106.4463847,49.83358464,1347.099809
8.5450,-106.2247644,49.67111746,1348.532892
8.5500,-106.0055625,49.51310372,1349.972058
8.5550,-105.7886323,49.36081609,1351.416869
8.5600,-105.5748512,49.21379258,1352.86731
8.5650,-105.3635793,49.07439621,1354.323265
8.5700,-105.1547303,48.9416874,1355.784087
8.5750,-104.9486116,48.8168538,1357.250275
8.5800,-104.7468216,48.69883403,1358.722082
8.5850,-104.5483849,48.58557158,1360.198455
8.5900,-104.3537688,48.4780343,1361.680373
8.5950,-104.1623862,48.37611773,1363.166615
8.6000,-103.9743884,48.27819287,1364.657323
8.6050,-103.7901803,48.18390094,1366.15211
8.6100,-103.609549,48.09288169,1367.650916
8.6150,-103.4325588,48.00499747,1369.152405
8.6200,-103.2585073,47.92044621,1370.655714
8.6250,-103.0871297,47.83783761,1372.159989
8.6300,-102.9195943,47.75757649,1373.664585
8.6350,-102.7552597,47.68150901,1375.168929
8.6400,-102.5936359,47.60910939,1376.671748
8.6450,-102.4364991,47.53777254,1378.173394
8.6500,-102.2832419,47.46851917,1379.67273
8.6550,-102.1343454,47.4017711,1381.169105
8.6600,-101.9894672,47.33536995,1382.662538
8.6650,-101.8481364,47.27037691,1384.152369
8.6700,-101.7094021,47.20746481,1385.637374
8.6750,-101.5721903,47.14783095,1387.117627
8.6800,-101.4359218,47.09280361,1388.592079
8.6850,-101.3007008,47.04039109,1390.060921
8.6900,-101.1644169,46.99217945,1391.522489
8.6950,-101.0287202,46.94902481,1392.977123
8.7000,-100.8906154,46.91045693,1394.424188
8.7050,-100.75095,46.87622876,1395.864108
8.7100,-100.608237,46.84758024,1397.295688
8.7150,-100.4623238,46.82194251,1398.718644
8.7200,-100.3128563,46.79995996,1400.133711
8.7250,-100.1590201,46.78078004,1401.540346
8.7300,-100.0012993,46.76503699,1402.938144
8.7350,-99.83801997,46.75267476,1404.325528
8.7400,-99.6691551,46.74157693,1405.703687
8.7450,-99.49484032,46.73302217,1407.07098
8.7500,-99.31452316,46.72837542,1408.427484
8.7550,-99.1288687,46.72570066,1409.772945
8.7600,-98.93713969,46.7260257,1411.107144
8.7650,-98.74016054,46.72893521,1412.429174
8.7700,-98.53688007,46.7334443,1413.739999
8.7750,-98.32810116,46.74150989,1415.038564
8.7800,-98.11468172,46.75158042,1416.325782
8.7850,-97.89641882,46.76281431,1417.600949
8.7900,-97.67190826,46.77503405,1418.863619
8.7950,-97.44192532,46.78926899,1420.114214
8.8000,-97.20606356,46.80461354,1421.352574
8.8050,-96.96508176,46.82030385,1422.578664
8.8100,-96.71733571,46.83614729,1423.792344
8.8150,-96.46393832,46.8521069,1424.992419
8.8200,-96.20521182,46.868839,1426.181086
8.8250,-95.94089203,46.88621357,1427.357147
8.8300,-95.67002604,46.90571326,1428.520544
8.8350,-95.3928971,46.92663541,1429.671339
8.8400,-95.10999636,46.94805518,1430.809193
8.8450,-94.82101781,46.9703901,1431.934853
8.8500,-94.52552847,46.99189337,1433.04813
8.8550,-94.22291355,47.01250308,1434.149132
8.8600,-93.91373183,47.03216763,1435.23865
8.8650,-93.59750572,47.05106876,1436.316867
8.8700,-93.27427925,47.06898231,1437.384108
8.8750,-92.94280393,47.08459287,1438.440078
8.8800,-92.60321983,47.09860091,1439.485458
8.8850,-92.25722768,47.11025458,1440.520696
8.8900,-91.90374847,47.12041912,1441.545727
8.8950,-91.54354416,47.12773808,1442.56157
8.9000,-91.17673166,47.13305171,1443.567986
8.9050,-90.80292651,47.13642507,1444.565784
8.9100,-90.42452482,47.13555121,1445.555032
8.9150,-90.04002005,47.13107024,1446.536805
8.9200,-89.6509699,47.12391105,1447.511851
8.9250,-89.25832661,47.1138585,1448.481098
8.9300,-88.86112206,47.10144596,1449.444628
8.9350,-88.4583243,47.08468722,1450.40195
8.9400,-88.05027152,47.06478015,1451.353712
8.9450,-87.63533473,47.04346378,1452.299744
8.9500,-87.21448007,47.02091517,1453.2405
8.9550,-86.78734614,46.99581366,1454.176104
8.9600,-86.3542785,46.96895782,1455.106152
8.9650,-85.91648587,46.94004685,1456.031667
8.9700,-85.47356252,46.90783424,1456.952909
8.9750,-85.02470034,46.87258058,1457.87001
8.9800,-84.57077903,46.83374021,1458.783116
8.9850,-84.11181315,46.79114949,1459.692091
8.9900,-83.64787945,46.74430063,1460.597751
8.9950,-83.17801309,46.69260383,1461.499721
9.0000,-82.70265003,46.63605597,1462.398499
9.0050,-82.22109844,46.57327514,1463.293544
9.0100,-81.73298596,46.50438886,1464.185586
9.0150,-81.23903324,46.42982576,1465.074229
9.0200,-80.74006082,46.3482502,1465.959578
9.0250,-80.23718984,46.26092437,1466.842572
9.0300,-79.73104333,46.16826604,1467.723679
9.0350,-79.22286259,46.06885646,1468.603031
9.0400,-78.71275229,45.96414887,1469.480195
9.0450,-78.20082344,45.85315885,1470.355359
9.0500,-77.68809302,45.73582939,1471.228922
9.0550,-77.17473842,45.61255696,1472.100399
9.0600,-76.66154001,45.48545488,1472.970453
9.0650,-76.14867435,45.35451389,1473.839045
9.0700,-75.63887625,45.22136866,1474.706108
9.0750,-75.13092706,45.08591014,1475.57109
9.0800,-74.62530402,44.94947722,1476.433477
9.0850,-74.12299796,44.81370379,1477.293744
9.0900,-73.62419109,44.67978141,1478.151998
9.0950,-73.13045574,44.54641084,1479.006939
9.1000,-72.64111481,44.41569657,1479.858196
9.1050,-72.15803288,44.28956683,1480.705915
9.1100,-71.67977505,44.16872297,1481.549491
9.1150,-71.20612772,44.05402064,1482.38913
9.1200,-70.73802402,43.94609095,1483.22344
9.1250,-70.27339019,43.84640071,1484.052163
9.1300,-69.81317795,43.75432919,1484.874833
9.1350,-69.35579985,43.6710812,1485.69022
9.1400,-68.90053069,43.59627821,1486.498241
9.1450,-68.44942229,43.53086708,1487.297991
9.1500,-68.00158456,43.47634513,1488.088987
9.1550,-67.55632996,43.43208081,1488.871651
9.1600,-67.11350934,43.39894358,1489.644955
9.1650,-66.67352349,43.37636882,1490.408408
9.1700,-66.23540098,43.3649545,1491.161584
9.1750,-65.79873592,43.36375029,1491.904026
9.1800,-65.36408077,43.3709686,1492.635242
9.1850,-64.92935149,43.38736108,1493.35485
9.1900,-64.49620099,43.41131204,1494.062836
9.1950,-64.06565642,43.44221142,1494.759224
9.2000,-63.6375389,43.478284,1495.44377
9.2050,-63.21200777,43.5186461,1496.116532
9.2100,-62.78765457,43.56460975,1496.778036
9.2150,-62.36535872,43.6132306,1497.427628
9.2200,-61.9444614,43.66330133,1498.065171
9.2250,-61.52318086,43.71404293,1498.690526
9.2300,-61.10274623,43.7633813,1499.303724
9.2350,-60.68427763,43.81241966,1499.905592
9.2400,-60.26785269,43.85890382,1500.496641
9.2450,-59.85446126,43.90079383,1501.076492
9.2500,-59.44381741,43.93817447,1501.645764
9.2550,-59.03453668,43.97217791,1502.20514
9.2600,-58.62697533,44.00062901,1502.754116
9.2650,-58.21885195,44.02387733,1503.293235
9.2700,-57.8102699,44.04196113,1503.82176
9.2750,-57.40206246,44.05434857,1504.340726
9.2800,-56.99294148,44.06075283,1504.849968
9.2850,-56.58294692,44.06144705,1505.34969
9.2900,-56.17256323,44.05587709,1505.841346
9.2950,-55.76068095,44.04554641,1506.324605
9.3000,-55.34841902,44.02949776,1506.799924
9.3050,-54.93477947,44.00976646,1507.268696
9.3100,-54.52037681,43.98598114,1507.730328
9.3150,-54.10466276,43.95653256,1508.18571
9.3200,-53.68729092,43.92433153,1508.635805
9.3250,-53.26811463,43.88644877,1509.080704
9.3300,-52.84727816,43.84375943,1509.520046
9.3350,-52.42499375,43.79633189,1509.954957
9.3400,-52.00063854,43.74585956,1510.385735
9.3450,-51.57673693,43.69300633,1510.813586
9.3500,-51.15298424,43.63697654,1511.238352
9.3550,-50.72943914,43.57932621,1511.661118
9.3600,-50.3072343,43.51958207,1512.081704
9.3650,-49.88636664,43.4579789,1512.500063
9.3700,-49.46651434,43.39379218,1512.91585
9.3750,-49.04979879,43.32781383,1513.330533
9.3800,-48.63575212,43.25879864,1513.7439
9.3850,-48.22467474,43.18872681,1514.156869
9.3900,-47.8175798,43.11695685,1514.569788
9.3950,-47.41270174,43.04505071,1514.982361
9.4000,-47.01158752,42.97514132,1515.395654
9.4050,-46.61164303,42.90684561,1515.808794
9.4100,-46.21606591,42.8405144,1516.222687
9.4150,-45.8239169,42.77646669,1516.637445
9.4200,-45.43468524,42.71559482,1517.052483
9.4250,-45.05030894,42.65725703,1517.468612
9.4300,-44.67206212,42.60263507,1517.886276
9.4350,-44.29969842,42.55164274,1518.305687
9.4400,-43.93383194,42.50561975,1518.726297
9.4450,-43.57347935,42.46425055,1519.148111
9.4500,-43.21925091,42.42848261,1519.571498
9.4550,-42.87014349,42.39835982,1519.995085
9.4600,-42.52549447,42.37414732,1520.418769
9.4650,-42.18540969,42.35561395,1520.841859
9.4700,-41.85113391,42.34249974,1521.26379
9.4750,-41.52447176,42.33610525,1521.685333
9.4800,-41.20415467,42.33504976,1522.104687
9.4850,-40.89065788,42.33854475,1522.521919
9.4900,-40.58455671,42.34587888,1522.93618
9.4950,-40.28411119,42.35693916,1523.346054
9.5000,-39.98886604,42.37212039,1523.751345
9.5050,-39.69936876,42.39022221,1524.150686
9.5100,-39.41570693,42.40999619,1524.543436
9.5150,-39.13867126,42.43119943,1524.929719
9.5200,-38.86758302,42.45363383,1525.308519
9.5250,-38.60316563,42.47683036,1525.680009
9.5300,-38.34288395,42.50173059,1526.043231
9.5350,-38.08776931,42.52623421,1526.39769
9.5400,-37.83683591,42.55011308,1526.74232
9.5450,-37.58904915,42.57365857,1527.077421
9.5500,-37.34358533,42.59583038,1527.401963
9.5550,-37.10105342,42.61564842,1527.715376
9.5600,-36.86058326,42.63351442,1528.01808
9.5650,-36.62191302,42.65012021,1528.309754
9.5700,-36.38375526,42.66454209,1528.590828
9.5750,-36.14560828,42.6745733,1528.860757
9.5800,-35.90573344,42.68097913,1529.11964
9.5850,-35.66342023,42.68372697,1529.367575
9.5900,-35.41817161,42.68317128,1529.604209
9.5950,-35.16976748,42.67773498,1529.829856
9.6000,-34.91841896,42.66736866,1530.045214
9.6050,-34.66385741,42.65188786,1530.250095
9.6100,-34.40678363,42.63076417,1530.445468
9.6150,-34.14679819,42.60547482,1530.631944
9.6200,-33.88642649,42.57302807,1530.809503
9.6250,-33.62572294,42.5357202,1530.978706
9.6300,-33.3655389,42.49183539,1531.140973
9.6350,-33.10717075,42.44265834,1531.296543
9.6400,-32.85238184,42.38823662,1531.446913
9.6450,-32.60053804,42.32710582,1531.591687
9.6500,-32.35347907,42.26201834,1531.732343
9.6550,-32.11296822,42.19327619,1531.869632
9.6600,-31.87750693,42.12138286,1532.004034
9.6650,-31.64783657,42.04745607,1532.135802
9.6700,-31.42393236,41.9733791,1532.266288
9.6750,-31.20597053,41.89950794,1532.395372
9.6800,-30.99621541,41.82817441,1532.524314
9.6850,-30.79380033,41.7598207,1532.652948
9.6900,-30.59846981,41.69542174,1532.781662
9.6950,-30.41122149,41.63692701,1532.911492
9.7000,-30.2303718,41.58319425,1533.041813
9.7050,-30.05711104,41.53454607,1533.173808
9.7100,-29.88973423,41.4925832,1533.307271
9.7150,-29.72802798,41.45749954,1533.441443
9.7200,-29.57282714,41.42928897,1533.577623
9.7250,-29.42278946,41.4078219,1533.715235
9.7300,-29.27720048,41.39288496,1533.854137
9.7350,-29.13592435,41.38509175,1533.994046
9.7400,-28.99870771,41.38319619,1534.135323
9.7450,-28.86403565,41.38768422,1534.27733
9.7500,-28.73331899,41.39648875,1534.419785
9.7550,-28.60636175,41.40992065,1534.562742
9.7600,-28.48289755,41.42554827,1534.705051
9.7650,-28.36348444,41.44362582,1534.847561
9.7700,-28.24702642,41.46202029,1534.988738
9.7750,-28.13298588,41.47794679,1535.128379
9.7800,-28.02212416,41.49220657,1535.26605
9.7850,-27.91559627,41.50265064,1535.401275
9.7900,-27.8118875,41.50854354,1535.533711
9.7950,-27.71136065,41.50795357,1535.662838
9.8000,-27.61512786,41.5005616,1535.788311
9.8050,-27.52405809,41.48524179,1535.910392
9.8100,-27.43685333,41.46075729,1536.02776
9.8150,-27.35424434,41.42664984,1536.140341
9.8200,-27.27604831,41.38302023,1536.24835
9.8250,-27.20355739,41.32918481,1536.350639
9.8300,-27.13755983,41.26445429,1536.447744
9.8350,-27.07673822,41.18950774,1536.539217
9.8400,-27.02285754,41.10362407,1536.625418
9.8450,-26.97651585,41.00722318,1536.705617
9.8500,-26.9375874,40.90167229,1536.780492
9.8550,-26.90545345,40.78662987,1536.849241
9.8600,-26.87936477,40.66441897,1536.911769
9.8650,-26.86192724,40.53333067,1536.968405
9.8700,-26.85302473,40.39579763,1537.018684
9.8750,-26.8518818,40.25462069,1537.062903
9.8800,-26.86101071,40.10951458,1537.101194
9.8850,-26.87896962,39.96210638,1537.133221
9.8900,-26.904937,39.81322906,1537.158795
9.8950,-26.9400826,39.66338359,1537.17835
9.9000,-26.98414677,39.51466697,1537.1916
9.9050,-27.03736657,39.36756052,1537.198867
9.9100,-27.0990475,39.22253717,1537.200173
9.9150,-27.16960085,39.0807456,1537.195017
9.9200,-27.24773193,38.94370258,1537.183892
9.9250,-27.33405488,38.81302803,1537.167154
9.9300,-27.42914694,38.68876194,1537.144281
9.9350,-27.53190292,38.57149702,1537.116218
9.9400,-27.64353655,38.46082206,1537.082349
9.9450,-27.76395103,38.35787227,1537.043563
9.9500,-27.89219566,38.26289495,1536.999452
9.9550,-28.02823479,38.17557506,1536.950149
9.9600,-28.17393113,38.09663414,1536.895583
9.9650,-28.32866135,38.02602595,1536.836361
9.9700,-28.49292856,37.9636898,1536.772519
9.9750,-28.66676683,37.90947942,1536.704255
9.9800,-28.84828517,37.86376939,1536.631162
9.9850,-29.03877136,37.82658329,1536.55374
9.9900,-29.23772235,37.79713363,1536.471562
9.9950,-29.44397083,37.77494851,1536.384987
10.0000,-29.65820764,37.75943872,1536.2941
10.0050,-29.87993217,37.7505587,1536.198564
10.0100,-30.10919282,37.74792223,1536.09856
10.0150,-30.34558111,37.75052154,1535.994162
10.0200,-30.587895,37.7579606,1535.884879
10.0250,-30.8364041,37.77176378,1535.770905
10.0300,-31.090244,37.79124429,1535.652455
10.0350,-31.34904514,37.81518761,1535.529527
10.0400,-31.61190092,37.84495469,1535.402152
10.0450,-31.87967516,37.87800014,1535.270004
10.0500,-32.15105986,37.91502337,1535.132956
10.0550,-32.42718545,37.95567203,1534.991976
10.0600,-32.7078343,38.00007838,1534.847056
10.0650,-32.99329776,38.04746497,1534.697646
10.0700,-33.28270301,38.09796866,1534.544756
10.0750,-33.57676398,38.15165576,1534.387502
10.0800,-33.87575167,38.20850592,1534.22712
10.0850,-34.17848087,38.26937524,1534.063397
10.0900,-34.48585159,38.33344863,1533.895773
10.0950,-34.79815948,38.4017406,1533.724705
10.1000,-35.11441363,38.47284633,1533.550643
10.1050,-35.43334903,38.54795136,1533.373112
10.1100,-35.7555028,38.62743376,1533.192573
10.1150,-36.08010325,38.7117101,1533.008558
10.1200,-36.40846121,38.79931953,1532.821072
10.1250,-36.73892127,38.89146055,1532.631064
10.1300,-37.07248178,38.98743083,1532.437648
10.1350,-37.4096381,39.08674835,1532.240983
10.1400,-37.75008646,39.19115162,1532.041217
10.1450,-38.09382473,39.30019729,1531.83878
10.1500,-38.44107886,39.41344721,1531.633336
10.1550,-38.79261485,39.53245919,1531.425628
10.1600,-39.14867885,39.65617022,1531.215774
10.1650,-39.50754235,39.78547132,1531.003046
10.1700,-39.86993208,39.92064562,1530.78813
10.1750,-40.23578531,40.06206945,1530.570114
10.1800,-40.60455176,40.21003442,1530.349981
10.1850,-40.97667455,40.36405269,1530.127445
10.1900,-41.35334956,40.52429641,1529.901956
10.1950,-41.73426001,40.69143244,1529.673902
10.2000,-42.11865018,40.86527596,1529.443182
10.2050,-42.50727581,41.04638356,1529.209526
10.2100,-42.89979714,41.23547007,1528.973222
10.2150,-43.296174,41.43163058,1528.734381
10.2200,-43.69627731,41.63662106,1528.492463
10.2250,-44.09971452,41.84864253,1528.24817
10.2300,-44.50634415,42.07059362,1528.002314
10.2350,-44.91595406,42.30121005,1527.753571
10.2400,-45.32757911,42.5416311,1527.502776
10.2450,-45.74172506,42.79250672,1527.249892
10.2500,-46.1584603,43.05401029,1526.99443
10.2550,-46.57764874,43.32660479,1526.736438
10.2600,-46.99890652,43.60903002,1526.476378
10.2650,-47.42246252,43.90229268,1526.213825
10.2700,-47.8475893,44.20553084,1525.948351
10.2750,-48.27387779,44.51954818,1525.679749
10.2800,-48.70306546,44.84425214,1525.408698
10.2850,-49.13277766,45.17848893,1525.13444
10.2900,-49.56373374,45.52291551,1524.857177
10.2950,-49.9952994,45.87658696,1524.576082
10.3000,-50.42724925,46.24111112,1524.291335
10.3050,-50.85962529,46.61507548,1524.002472
10.3100,-51.29256765,46.99727299,1523.708873
10.3150,-51.7255596,47.38766027,1523.410527
10.3200,-52.1582318,47.78618839,1523.106119
10.3250,-52.59081048,48.19096778,1522.795599
10.3300,-53.02238514,48.60206103,1522.478528
10.3350,-53.45422112,49.01919476,1522.154352
10.3400,-53.88605442,49.43972111,1521.822771
10.3450,-54.31684988,49.86454746,1521.483656
10.3500,-54.74639681,50.29220361,1521.136833
10.3550,-55.17432623,50.72160811,1520.781426
10.3600,-55.60156775,51.15366063,1520.417716
10.3650,-56.0283101,51.58680727,1520.045864
10.3700,-56.45487163,52.02155478,1519.666329
10.3750,-56.88091837,52.45748678,1519.278462
10.3800,-57.3061321,52.89433022,1518.881661
10.3850,-57.73044474,53.33018084,1518.475904
10.3900,-58.15454045,53.76596116,1518.061972
10.3950,-58.57818365,54.20110767,1517.639637
10.4000,-59.00135028,54.63524189,1517.208618
10.4050,-59.42517491,55.0692132,1516.769689
10.4100,-59.85007075,55.50202844,1516.322507
10.4150,-60.27608286,55.93239575,1515.866984
10.4200,-60.70332181,56.36117379,1515.403598
10.4250,-61.13271767,56.78739089,1514.93154
10.4300,-61.56359034,57.2113646,1514.451725
10.4350,-61.99606594,57.63325722,1513.964455
10.4400,-62.42868476,58.05321823,1513.468801
10.4450,-62.86175563,58.47014249,1512.965141
10.4500,-63.29524953,58.8836106,1512.453033
10.4550,-63.72893938,59.29426677,1511.932928
10.4600,-64.16323371,59.70106723,1511.404325
10.4650,-64.59773633,60.10394216,1510.867543
10.4700,-65.03214867,60.50283578,1510.321716
10.4750,-65.46702215,60.89686081,1509.767458
10.4800,-65.90287888,61.28567739,1509.204323
10.4850,-66.33948239,61.66934602,1508.632169
10.4900,-66.77778563,62.04712463,1508.05192
10.4950,-67.21700114,62.41846409,1507.462817
10.5000,-67.65790433,62.78374304,1506.865628
10.5050,-68.09927553,63.14234198,1506.260295
10.5100,-68.54340042,63.49413964,1505.646996
10.5150,-68.98925641,63.84006188,1505.026169
10.5200,-69.43840384,64.17896357,1504.397954
10.5250,-69.89108214,64.51109821,1503.762054
10.5300,-70.34656044,64.83505875,1503.118091
10.5350,-70.80580222,65.15187871,1502.466952
10.5400,-71.26842015,65.46074221,1501.807743
10.5450,-71.73467109,65.76204691,1501.140413
10.5500,-72.20434702,66.05453277,1500.465374
10.5550,-72.67679018,66.33843415,1499.782695
10.5600,-73.1518974,66.61557612,1499.09153
10.5650,-73.62922108,66.88559521,1498.392828
10.5700,-74.10945334,67.14948367,1497.686019
10.5750,-74.59061455,67.40750772,1496.970992
10.5800,-75.07125024,67.65864096,1496.247073
10.5850,-75.55340439,67.90299777,1495.514118
10.5900,-76.03455705,68.14069611,1494.771443
10.5950,-76.51564725,68.37239818,1494.018979
10.6000,-76.99689639,68.59621879,1493.256198
10.6050,-77.47759146,68.81412454,1492.483095
10.6100,-77.9572042,69.02577573,1491.699883
10.6150,-78.43664112,69.23257551,1490.906522
10.6200,-78.91562588,69.43400273,1490.103366
10.6250,-79.39371846,69.63053244,1489.290119
10.6300,-79.87091719,69.82166886,1488.466787
10.6350,-80.34725382,70.00908655,1487.633155
10.6400,-80.82192953,70.19354577,1486.788859
10.6450,-81.29594813,70.37537104,1485.933941
10.6500,-81.769191,70.55560501,1485.06862
10.6550,-82.24076152,70.73497121,1484.192339
10.6600,-82.70979387,70.91265954,1483.305715
10.6650,-83.17549927,71.08858055,1482.408107
10.6700,-83.63808934,71.26353546,1481.499094
10.6750,-84.09670115,71.43792944,1480.579236
10.6800,-84.55099507,71.61066926,1479.649085
10.6850,-85.001846,71.7829114,1478.708129
10.6900,-85.44770739,71.95432999,1477.756227
10.6950,-85.88818042,72.12488256,1476.793761
10.7000,-86.32432321,72.29502978,1475.820609
10.7050,-86.75471883,72.46383563,1474.836708
10.7100,-87.17962042,72.63117587,1473.842586
10.7150,-87.59914566,72.79786432,1472.838289
10.7200,-88.01269856,72.9641946,1471.824704
10.7250,-88.42148646,73.12913582,1470.802507
10.7300,-88.82537804,73.29153091,1469.771666
10.7350,-89.22384405,73.45217377,1468.73248
10.7400,-89.618935,73.60972731,1467.685614
10.7450,-90.0107072,73.76578762,1466.631103
10.7500,-90.39942093,73.92035928,1465.56968
10.7550,-90.78564874,74.07254836,1464.501129
10.7600,-91.1694409,74.2236507,1463.425324
10.7650,-91.55230385,74.37342147,1462.343043
10.7700,-91.93428725,74.52124788,1461.25452
10.7750,-92.31604188,74.6666169,1460.15936
10.7800,-92.69692103,74.81085739,1459.057669
10.7850,-93.07961599,74.95320192,1457.949932
10.7900,-93.46212293,75.09300918,1456.836525
10.7950,-93.84519899,75.2315245,1455.717723
10.8000,-94.22836471,75.36915826,1454.593176
10.8050,-94.61291097,75.50532206,1453.4628
10.8100,-94.99722112,75.64110154,1452.326873
10.8150,-95.383137,75.77564969,1451.185912
10.8200,-95.7691544,75.90895988,1450.040086
10.8250,-96.15471018,76.04225717,1448.889492
10.8300,-96.53876163,76.17563517,1447.73405
10.8350,-96.92233256,76.3106452,1446.573999
10.8400,-97.30549436,76.44654472,1445.409482
10.8450,-97.68785038,76.5841833,1444.240187
10.8500,-98.06871625,76.72273404,1443.066275
10.8550,-98.44799719,76.86493578,1441.887524
10.8600,-98.82620962,77.00937818,1440.704016
10.8650,-99.20239098,77.15684879,1439.515393
10.8700,-99.57618297,77.3079,1438.32241
10.8750,-99.948147,77.46128263,1437.124615
10.8800,-100.3177921,77.61823621,1435.922442
10.8850,-100.6843277,77.77890896,1434.715324
10.8900,-101.048616,77.94397908,1433.503909
10.8950,-101.4101936,78.11345428,1432.287826
10.9000,-101.7678187,78.28768352,1431.066332
10.9050,-102.121006,78.46673103,1429.839846
10.9100,-102.4685222,78.65107277,1428.607374
10.9150,-102.8105588,78.83908801,1427.368432
10.9200,-103.14679,79.03112151,1426.123557
10.9250,-103.4773478,79.22739687,1424.872062
10.9300,-103.8027014,79.42657124,1423.613922
10.9350,-104.121373,79.62687488,1422.349615
10.9400,-104.434202,79.82997657,1421.078494
10.9450,-104.7400974,80.0337539,1419.801126
10.9500,-105.0384628,80.23856105,1418.517359
10.9550,-105.3301002,80.44358612,1417.227851
10.9600,-105.6151091,80.64899727,1415.931423
10.9650,-105.893109,80.85499847,1414.628795
10.9700,-106.1647161,81.06006338,1413.320261
10.9750,-106.4308872,81.26441671,1412.005267
10.9800,-106.6913785,81.46748294,1410.684033
10.9850,-106.9457889,81.66940086,1409.356202
10.9900,-107.1936634,81.87010072,1408.022007
10.9950,-107.4364174,82.06910065,1406.68108
11.0000,-107.6735492,82.2659451,1405.333788
11.0050,-107.9074417,82.45869703,1403.980315
11.0100,-108.1378569,82.64781774,1402.62068
11.0150,-108.3658105,82.83254327,1401.254731
11.0200,-108.5923859,83.01107157,1399.882087
11.0250,-108.8166849,83.18531482,1398.502634
11.0300,-109.0403439,83.35519464,1397.116981
11.0350,-109.2621917,83.51955119,1395.724687
11.0400,-109.4819586,83.67986985,1394.326784
11.0450,-109.6998014,83.83599917,1392.922826
11.0500,-109.9167866,83.98696511,1391.512563
11.0550,-110.1331517,84.13308942,1390.095587
11.0600,-110.3485696,84.27445883,1388.672039
11.0650,-110.5628857,84.41129694,1387.241222
11.0700,-110.7767156,84.54406854,1385.803789
11.0750,-110.9891557,84.6743229,1384.360188
11.0800,-111.2003162,84.80127046,1382.909956
11.0850,-111.4078015,84.9256085,1381.453433
11.0900,-111.6131111,85.04827877,1379.989394
11.0950,-111.8157994,85.16891458,1378.517772
11.1000,-112.0154892,85.2870906,1377.038499
11.1050,-112.2125029,85.40417416,1375.551518
11.1100,-112.4072521,85.51951812,1374.05656
11.1150,-112.5985425,85.63512935,1372.55218
11.1200,-112.7868391,85.75076853,1371.03856
11.1250,-112.9724464,85.86546123,1369.515513
11.1300,-113.1571354,85.9802875,1367.982493
11.1350,-113.3396562,86.09391844,1366.439835
11.1400,-113.5206157,86.20708153,1364.887496
11.1450,-113.6993235,86.31968567,1363.325419
11.1500,-113.8764905,86.43207919,1361.753924
11.1550,-114.0501859,86.54418052,1360.173506
11.1600,-114.21896,86.65588506,1358.584479
11.1650,-114.382423,86.76707009,1356.987182
11.1700,-114.5398303,86.87728241,1355.38065
11.1750,-114.6914349,86.98643851,1353.766758
11.1800,-114.8368271,87.09422649,1352.144333
11.1850,-114.9746968,87.20142243,1350.51502
11.1900,-115.1037882,87.30732586,1348.878933
11.1950,-115.2231431,87.41173389,1347.236295
11.2000,-115.3333418,87.51358334,1345.58845
11.2050,-115.4338254,87.61217931,1343.934881
11.2100,-115.525356,87.70781591,1342.277444
11.2150,-115.6067493,87.79999892,1340.616461
11.2200,-115.6784307,87.88740815,1338.952518
11.2250,-115.7394265,87.96948291,1337.286244
11.2300,-115.7889481,88.04637302,1335.617597
11.2350,-115.8291559,88.11615729,1333.94767
11.2400,-115.8594146,88.17878744,1332.277343
11.2450,-115.8817899,88.23406218,1330.606784
11.2500,-115.896754,88.28059197,1328.936908
11.2550,-115.904583,88.31825821,1327.268266
11.2600,-115.9063487,88.34688176,1325.601231
11.2650,-115.9027323,88.36438379,1323.936519
11.2700,-115.8933173,88.37170141,1322.27457
11.2750,-115.8780905,88.36793034,1320.616722
11.2800,-115.8561083,88.35436532,1318.962878
11.2850,-115.8275896,88.33051562,1317.313845
11.2900,-115.7930292,88.29463884,1315.669423
11.2950,-115.7532845,88.24639246,1314.030693
11.3000,-115.7072889,88.18598158,1312.396267
11.3050,-115.6541402,88.11398516,1310.767107
11.3100,-115.5943802,88.03092665,1309.143822
11.3150,-115.5281702,87.93579078,1307.526708
11.3200,-115.4547938,87.82998218,1305.916088
11.3250,-115.3734787,87.71310584,1304.312186
11.3300,-115.2852273,87.58463256,1302.714205
11.3350,-115.1903306,87.44665244,1301.122614
11.3400,-115.0896325,87.296954,1299.535899
11.3450,-114.9826445,87.13620304,1297.954559
11.3500,-114.8682705,86.9657996,1296.378302
11.3550,-114.7468167,86.786319,1294.808415
11.3600,-114.6184821,86.59708115,1293.244475
11.3650,-114.4836418,86.39912612,1291.685389
11.3700,-114.3429008,86.19250964,1290.130698
11.3750,-114.1970307,85.97872131,1288.580104
11.3800,-114.0460536,85.75807237,1287.032664
11.3850,-113.8909596,85.5311194,1285.487942
11.3900,-113.730885,85.29949134,1283.945244
11.3950,-113.5659806,85.0640701,1282.404144
11.4000,-113.3969513,84.82517123,1280.864366
11.4050,-113.2236262,84.58248317,1279.325839
11.4100,-113.0455754,84.33785064,1277.787039
11.4150,-112.8635049,84.0904508,1276.2487
11.4200,-112.6764905,83.84292216,1274.710031
11.4250,-112.4846607,83.59680066,1273.170993
11.4300,-112.2877423,83.35096559,1271.631171
11.4350,-112.0848536,83.10682209,1270.090183
11.4400,-111.8742583,82.86607128,1268.547522
11.4450,-111.6570206,82.62784836,1267.003593
11.4500,-111.432717,82.39308918,1265.457545
11.4550,-111.2020576,82.16032283,1263.909257
11.4600,-110.9656752,81.93072205,1262.358841
11.4650,-110.7246352,81.70334262,1260.805716
11.4700,-110.4781963,81.47903901,1259.25059
11.4750,-110.2255238,81.25774085,1257.691957
11.4800,-109.9667724,81.04070995,1256.131304
11.4850,-109.7016543,80.82652099,1254.568471
11.4900,-109.4301723,80.61437336,1253.003627
11.4950,-109.1530102,80.4039213,1251.438313
11.5000,-108.8698095,80.19614421,1249.871836
11.5050,-108.5806982,79.99042639,1248.305085
11.5100,-108.2843231,79.78660358,1246.737131
11.5150,-107.9816027,79.58444988,1245.168152
11.5200,-107.6726515,79.38527175,1243.598028
11.5250,-107.3577906,79.18766848,1242.027023
11.5300,-107.0379356,78.99060696,1240.455347
11.5350,-106.7114546,78.79725881,1238.883105
11.5400,-106.3799273,78.60498514,1237.31117
11.5450,-106.0410835,78.41453409,1235.738499
11.5500,-105.6946533,78.2261488,1234.165264
11.5550,-105.3396387,78.03984573,1232.591649
11.5600,-104.975879,77.85424596,1231.018335
11.5650,-104.6036702,77.67134045,1229.445141
11.5700,-104.2221849,77.48961721,1227.871495
11.5750,-103.8307516,77.30813321,1226.297986
11.5800,-103.4311072,77.12766241,1224.72581
11.5850,-103.0224881,76.94693757,1223.154835
11.5900,-102.6057285,76.76633476,1221.585684
11.5950,-102.179516,76.58618257,1220.017894
11.6000,-101.7459543,76.40595923,1218.452217
11.6050,-101.3032356,76.22503349,1216.887945
11.6100,-100.851962,76.04236738,1215.325132
11.6150,-100.3922624,75.85899378,1213.764051
11.6200,-99.92325482,75.673801,1212.203722
11.6250,-99.44689867,75.48604326,1210.643938
11.6300,-98.96226725,75.29630174,1209.085342
11.6350,-98.47054598,75.10322913,1207.52735
11.6400,-97.97205251,74.90791549,1205.971426
11.6450,-97.46694945,74.70893038,1204.417821
11.6500,-96.95618071,74.50621826,1202.866615
11.6550,-96.43970657,74.29820944,1201.316744
11.6600,-95.91897075,74.08541276,1199.768142
11.6650,-95.39446646,73.86804424,1198.222088
11.6700,-94.86510041,73.64667181,1196.678382
11.6750,-94.33092404,73.41891497,1195.136859
11.6800,-93.79088607,73.18739059,1193.59786
11.6850,-93.24603109,72.95048223,1192.060533
11.6900,-92.69609079,72.70955256,1190.525528
11.6950,-92.14110859,72.46356546,1188.992282
11.7000,-91.58093715,72.21404739,1187.461021
11.7050,-91.01524808,71.9601606,1185.930821
11.7100,-90.44449843,71.70176763,1184.402731
11.7150,-89.86873953,71.43888442,1182.876588
11.7200,-89.28735025,71.17102462,1181.352001
11.7250,-88.70049391,70.89851679,1179.829498
11.7300,-88.10704094,70.62241781,1178.30964
11.7350,-87.50741966,70.34236119,1176.791556
11.7400,-86.90385558,70.05804771,1175.276385
11.7450,-86.29400403,69.77070536,1173.763177
11.7500,-85.67928013,69.48070498,1172.252492
11.7550,-85.05836733,69.18815836,1170.744327
11.7600,-84.43108086,68.89335921,1169.238004
11.7650,-83.79621118,68.59643839,1167.734484
11.7700,-83.15498808,68.29748555,1166.234636
11.7750,-82.50846269,67.99564722,1164.739281
11.7800,-81.85632053,67.69019383,1163.247709
11.7850,-81.19917824,67.38101265,1161.760668
11.7900,-80.53800245,67.06896545,1160.27816
11.7950,-79.87134933,66.75337576,1158.799751
11.8000,-79.20026845,66.43466011,1157.326183
11.8050,-78.52481993,66.11177936,1155.857003
11.8100,-77.84634834,65.78416046,1154.39278
11.8150,-77.16379358,65.45263505,1152.933655
11.8200,-76.47624329,65.11508498,1151.480285
11.8250,-75.78413128,64.7724346,1150.032381
11.8300,-75.08601706,64.42659854,1148.590137
11.8350,-74.38366505,64.07450214,1147.153354
11.8400,-73.67646316,63.71632878,1145.721725
11.8450,-72.96588478,63.35182043,1144.295624
11.8500,-72.2509098,62.9819444,1142.874336
11.8550,-71.53311114,62.60398772,1141.457666
11.8600,-70.81274794,62.21895877,1140.046269
11.8650,-70.08795206,61.8261086,1138.638999
11.8700,-69.35983573,61.42534636,1137.236164
11.8750,-68.6289257,61.01771253,1135.837577
11.8800,-67.89335301,60.60365329,1134.442299
11.8850,-67.15410988,60.18334017,1133.050566
11.8900,-66.41030558,59.75798389,1131.662402
11.8950,-65.66258405,59.32646242,1130.278462
11.9000,-64.91001758,58.88913134,1128.899749
11.9050,-64.15487336,58.44696532,1127.526919
11.9100,-63.39681949,57.99920981,1126.159939
11.9150,-62.63581796,57.54657121,1124.799521
11.9200,-61.87415908,57.0883116,1123.447678
11.9250,-61.11231267,56.62475282,1122.104821
11.9300,-60.34893924,56.15686875,1120.771095
11.9350,-59.58476457,55.68369291,1119.446952
11.9400,-58.81940093,55.20632051,1118.131838
11.9450,-58.05354922,54.7271717,1116.826345
11.9500,-57.28690437,54.24384615,1115.53048
11.9550,-56.51999733,53.75874091,1114.245158
11.9600,-55.75277983,53.27133223,1112.971837
11.9650,-54.98469145,52.7825072,1111.710791
11.9700,-54.21720137,52.29217334,1110.462599
11.9750,-53.45011707,51.80161889,1109.227916
11.9800,-52.68496649,51.30957985,1108.006567
11.9850,-51.92011464,50.81870453,1106.799714
11.9900,-51.15605591,50.32627656,1105.606772
11.9950,-50.39240277,49.83443416,1104.428542
12.0000,-49.62880861,49.34181092,1103.264527
12.0050,-48.86642335,48.85020673,1102.115628
12.0100,-48.10485118,48.3585339,1100.980911
12.0150,-47.34390348,47.86772229,1099.859822
12.0200,-46.58588331,47.37790566,1098.752981
12.0250,-45.82934415,46.88947936,1097.659209
12.0300,-45.07512381,46.40316355,1096.577965
12.0350,-44.32340022,45.92043551,1095.509929
12.0400,-43.57325893,45.44091057,1094.454181
12.0450,-42.82747394,44.963657,1093.412105
12.0500,-42.08498375,44.48822421,1092.383512
12.0550,-41.34776917,44.01568541,1091.36838
12.0600,-40.61812119,43.54514206,1090.368016
12.0650,-39.89640475,43.0764902,1089.381346
12.0700,-39.1827633,42.60901662,1088.407257
12.0750,-38.47735863,42.14372546,1087.445794
12.0800,-37.77949936,41.68114753,1086.496902
12.0850,-37.08901286,41.22190518,1085.559716
12.0900,-36.40518983,40.76532945,1084.633682
12.0950,-35.72904807,40.31272192,1083.718567
12.1000,-35.05833749,39.8630736,1082.813457
12.1050,-34.39475364,39.41753117,1081.91927
12.1100,-33.73637164,38.97649658,1081.034622
12.1150,-33.0837036,38.53877299,1080.159303
12.1200,-32.43588869,38.1044909,1079.29205
12.1250,-31.79304767,37.67242844,1078.432305
12.1300,-31.15410282,37.24180691,1077.579058
12.1350,-30.51754664,36.81306324,1076.732011
12.1400,-29.88209746,36.38566912,1075.890425
12.1450,-29.24728142,35.95783821,1075.054235
12.1500,-28.61430835,35.52688551,1074.223346
12.1550,-27.98144178,35.09429512,1073.397075
12.1600,-27.34831195,34.65970146,1072.575623
12.1650,-26.71605211,34.22323224,1071.759466
12.1700,-26.08302198,33.78465729,1070.948078
12.1750,-25.44899136,33.34275499,1070.141282
12.1800,-24.81472661,32.89662881,1069.339428
12.1850,-24.17971041,32.44660673,1068.543144
12.1900,-23.54409605,31.99177999,1067.752703
12.1950,-22.90706986,31.53125491,1066.967908
12.2000,-22.26993331,31.0641714,1066.189268
12.2050,-21.63215883,30.58945413,1065.416738
12.2100,-20.99341603,30.1073426,1064.650482
12.2150,-20.35391536,29.61704268,1063.890937
12.2200,-19.71331419,29.11871391,1063.137374
12.2250,-19.07050961,28.6126468,1062.38991
12.2300,-18.42740996,28.09740728,1061.648837
12.2350,-17.78307543,27.57492154,1060.914037
12.2400,-17.13742859,27.04465226,1060.185724
12.2450,-16.49106251,26.50531922,1059.463464
12.2500,-15.84283817,25.96037049,1058.746547
12.2550,-15.19344608,25.41009541,1058.034745
12.2600,-14.54094862,24.85462182,1057.326377
12.2650,-13.88439514,24.29475272,1056.620312
12.2700,-13.22320842,23.73097862,1055.916283
12.2750,-12.55784139,23.16418808,1055.213731
12.2800,-11.88717266,22.59454079,1054.511998
12.2850,-11.21310549,22.02319847,1053.811219
12.2900,-10.53625511,21.45076938,1053.111258
12.2950,-9.857510639,20.87680233,1052.411807
12.3000,-9.176795158,20.30285653,1051.712812
12.3050,-8.494546119,19.72916909,1051.014252
12.3100,-7.811985632,19.1572428,1050.317072
12.3150,-7.129171084,18.58752639,1049.621609
12.3200,-6.447160927,18.02033362,1048.92776
12.3250,-5.76596472,17.45669942,1048.235649
12.3300,-5.086541429,16.89670888,1047.545587
12.3350,-4.409172096,16.34040967,1046.857035
12.3400,-3.734064675,15.78725505,1046.169581
12.3450,-3.059716216,15.23948497,1045.482324
12.3500,-2.385859773,14.69917957,1044.794787
12.3550,-1.712347882,14.16494462,1044.106684
12.3600,-1.037813426,13.63805457,1043.417692
12.3650,-0.363187344,13.11933797,1042.728465
12.3700,0.3107322614,12.60910531,1042.040015
12.3750,0.985425548,12.10646857,1041.351881
12.3800,1.660197168,11.61156907,1040.664457
12.3850,2.334930086,11.1246297,1039.978309
12.3900,3.01079501,10.64677346,1039.293469
12.3950,3.689006763,10.17759842,1038.609903
12.4000,4.368599945,9.717711624,1037.928364
12.4050,5.05292727,9.266900065,1037.247578
12.4100,5.742609277,8.823839021,1036.568058
12.4150,6.438774702,8.389789049,1035.890101
12.4200,7.14194613,7.964001577,1035.213718
12.4250,7.854147446,7.54709902,1034.53873
12.4300,8.575366143,7.1368447,1033.865611
12.4350,9.305900302,6.734124587,1033.194794
12.4400,10.04658901,6.339102026,1032.52619
12.4450,10.79774972,5.952157305,1031.860495
12.4500,11.55907868,5.572264612,1031.198079
12.4550,12.33074697,5.199260144,1030.539515
12.4600,13.11321582,4.832718589,1029.884755
12.4650,13.90565287,4.472141909,1029.234531
12.4700,14.70714555,4.117684589,1028.589844
12.4750,15.51776063,3.770759115,1027.950934
12.4800,16.33778732,3.430085571,1027.31832
12.4850,17.16684199,3.095139695,1026.691833
12.4900,18.00385157,2.766184472,1026.072537
12.4950,18.8478297,2.444473011,1025.460913
12.5000,19.69963452,2.129622148,1024.857216
12.5050,20.55860974,1.821071633,1024.261745
12.5100,21.42417752,1.518247216,1023.674999
12.5150,22.29554806,1.221308548,1023.097549
12.5200,23.17269595,0.9293468672,1022.529566
12.5250,24.05593708,0.6420646877,1021.971312
12.5300,24.94606834,0.3606085997,1021.422543
12.5350,25.84164405,0.08385237266,1020.883688
12.5400,26.74303624,-0.1875054345,1020.354804
12.5450,27.6510822,-0.4537210147,1019.835427
12.5500,28.56445398,-0.7152053026,1019.325917
12.5550,29.48417104,-0.9734031488,1018.825682
12.5600,30.40989914,-1.225901739,1018.334804
12.5650,31.33935247,-1.473473032,1017.853875
12.5700,32.27476277,-1.716145005,1017.381533
12.5750,33.21559892,-1.954405135,1016.917677
12.5800,34.15995672,-2.188254208,1016.462587
12.5850,35.10989036,-2.418447903,1016.014693
12.5900,36.06500504,-2.643378784,1015.574002
12.5950,37.02408639,-2.863611238,1015.14026
12.6000,37.98636016,-3.079286984,1014.713014
12.6050,38.95098684,-3.28948715,1014.291963
12.6100,39.9174642,-3.49528422,1013.876344
12.6150,40.88422854,-3.696060285,1013.465844
12.6200,41.85277157,-3.891306204,1013.05971
12.6250,42.82060182,-4.08201942,1012.657907
12.6300,43.78726186,-4.266698515,1012.259912
12.6350,44.75133147,-4.446396904,1011.865853
12.6400,45.71176404,-4.620346377,1011.475586
12.6450,46.66630025,-4.789639584,1011.089144
12.6500,47.614176,-4.955042897,1010.706328
12.6550,48.55419887,-5.116585169,1010.326964
12.6600,49.48731997,-5.274616937,1009.9504
12.6650,50.41391638,-5.429555043,1009.575978
12.6700,51.33440047,-5.580267766,1009.203286
12.6750,52.24838862,-5.726962323,1008.831961
12.6800,53.1550486,-5.869242336,1008.462288
12.6850,54.05428475,-6.00708923,1008.094066
12.6900,54.94457727,-6.140773489,1007.727609
12.6950,55.82551434,-6.270768326,1007.363142
12.7000,56.69760866,-6.396826838,1007.000603
12.7050,57.55863866,-6.518621204,1006.641003
12.7100,58.40778355,-6.635605495,1006.284878
12.7150,59.24296894,-6.749382823,1005.932953
12.7200,60.06528004,-6.858619727,1005.585724
12.7250,60.87118926,-6.964332501,1005.244551
12.7300,61.66020312,-7.064534596,1004.910183
12.7350,62.43182842,-7.159828505,1004.583
12.7400,63.1838719,-7.25130153,1004.264086
12.7450,63.91472889,-7.338798981,1003.954062
12.7500,64.62531742,-7.420596338,1003.653138
12.7550,65.31293187,-7.49548572,1003.362296
12.7600,65.97726413,-7.563555676,1003.081799
12.7650,66.61792138,-7.624176645,1002.812233
12.7700,67.23453515,-7.676038343,1002.553862
12.7750,67.82505092,-7.719113647,1002.307452
12.7800,68.38885075,-7.752168654,1002.073333
12.7850,68.92390449,-7.774050015,1001.852306
12.7900,69.43093847,-7.784778638,1001.644274
12.7950,69.90952168,-7.782726716,1001.449576
12.8000,70.35916077,-7.767439217,1001.268223
12.8050,70.77929484,-7.738737783,1001.100589
12.8100,71.1713616,-7.695687395,1000.946262
12.8150,71.53425475,-7.63778287,1000.805454
12.8200,71.86973196,-7.563703978,1000.677832
12.8250,72.17653635,-7.473261533,1000.563625
12.8300,72.4553252,-7.366884404,1000.462562
12.8350,72.70702366,-7.244506621,1000.374354
12.8400,72.93218682,-7.107236277,1000.298596
12.8450,73.13145736,-6.955021745,1000.235167
12.8500,73.3064056,-6.788432481,1000.183632
12.8550,73.45774029,-6.607952261,1000.143804
12.8600,73.58576448,-6.414798596,1000.115573
12.8650,73.69234391,-6.210632334,1000.09833
12.8700,73.77614934,-5.995518372,1000.092446
12.8750,73.83802881,-5.77145845,1000.097473
12.8800,73.87962183,-5.53986904,1000.112898
12.8850,73.90054969,-5.302157195,1000.138965
12.8900,73.90110597,-5.060117775,1000.175313
12.8950,73.88181341,-4.81405684,1000.221865
12.9000,73.84149544,-4.565821496,1000.278623
12.9050,73.78050675,-4.317786279,1000.345501
12.9100,73.6987912,-4.06948683,1000.422429
12.9150,73.59817862,-3.822689875,1000.508941
12.9200,73.47713712,-3.578353297,1000.605296
12.9250,73.33719074,-3.338004773,1000.711035
12.9300,73.17758769,-3.103385919,1000.826409
12.9350,72.99808752,-2.874452435,1000.951183
12.9400,72.79978747,-2.65263041,1001.085248
12.9450,72.58382062,-2.439028092,1001.22822
12.9500,72.34959552,-2.234591686,1001.380261
12.9550,72.098557,-2.038984546,1001.541123
12.9600,71.82987594,-1.853331457,1001.710885
12.9650,71.54357982,-1.676116371,1001.889697
12.9700,71.23979749,-1.509319194,1002.077518
12.9750,70.9181795,-1.350910958,1002.274843
12.9800,70.57919515,-1.202504354,1002.48135
12.9850,70.22277997,-1.064170146,1002.697334
12.9900,69.8491572,-0.9357439758,1002.92286
12.9950,69.45710733,-0.815369927,1003.158586
13.0000,69.04578342,-0.7044345366,1003.404938
13.0050,68.61731442,-0.6001567906,1003.661806
13.0100,68.16889626,-0.5030981749,1003.929953
13.0150,67.7022148,-0.4125013335,1004.209284
13.0200,67.21485312,-0.3274567048,1004.500494
13.0250,66.70728922,-0.2464353217,1004.803789
13.0300,66.17885058,-0.1687763971,1005.119316
13.0350,65.62955059,-0.09355726472,1005.447351
13.0400,65.05971307,-0.01904493315,1005.788045
13.0450,64.46739444,0.05681104975,1006.142416
13.0500,63.85278146,0.1347383532,1006.510628
13.0550,63.21686754,0.2146854397,1006.892636
13.0600,62.55814863,0.2986162106,1007.289457
13.0650,61.87566102,0.3874352718,1007.701291
13.0700,61.16875062,0.4818534818,1008.128685
13.0750,60.43796693,0.5819591996,1008.571873
13.0800,59.68267877,0.6891497489,1009.031148
13.0850,58.90426612,0.805088126,1009.506751
13.0900,58.10263345,0.9289133789,1009.99863
13.0950,57.27694884,1.061163431,1010.50735
13.1000,56.42862434,1.203265946,1011.03281
13.1050,55.5572462,1.356117018,1011.575414
13.1100,54.66219523,1.519966001,1012.13584
13.1150,53.74459621,1.694177023,1012.713857
13.1200,52.80396929,1.879248014,1013.310107
13.1250,51.84104032,2.07484283,1013.924531
13.1300,50.85595174,2.281314603,1014.557664
13.1350,49.84927989,2.497404504,1015.2098
13.1400,48.82197211,2.724178278,1015.881013
13.1450,47.77482048,2.961836265,1016.571452
13.1500,46.70711562,3.209064619,1017.281489
13.1550,45.62212749,3.465651476,1018.01056
13.1600,44.519487,3.730209902,1018.758675
13.1650,43.40008269,4.003831647,1019.526044
13.1700,42.26682909,4.284114202,1020.311822
13.1750,41.12034417,4.572308014,1021.116205
13.1800,39.96146084,4.86803188,1021.939173
13.1850,38.79035873,5.170955255,1022.780641
13.1900,37.60782081,5.480659269,1023.640658
13.1950,36.41433185,5.796041021,1024.518755
13.2000,35.21118274,6.117094308,1025.415103
13.2050,34.00106315,6.445435814,1026.328415
13.2100,32.78368167,6.779609449,1027.259394
13.2150,31.56074183,7.119636963,1028.207191
13.2200,30.33291412,7.466481545,1029.171847
13.2250,29.10016363,7.819410201,1030.152924
13.2300,27.86382188,8.178199429,1031.15006
13.2350,26.62436438,8.541949587,1032.163271
13.2400,25.38251515,8.912644593,1033.192412
13.2450,24.13824018,9.290402578,1034.237323
13.2500,22.89279356,9.67455659,1035.297539
13.2550,21.6464282,10.06509859,1036.372541
13.2600,20.39979351,10.46179359,1037.462316
13.2650,19.15367285,10.86315731,1038.566676
13.2700,17.90953936,11.27037851,1039.684898
13.2750,16.66667285,11.68180848,1040.817256
13.2800,15.42566976,12.09695714,1041.963546
13.2850,14.18819846,12.51595964,1043.122945
13.2900,12.95430369,12.93837624,1044.295657
13.2950,11.72416869,13.36380585,1045.481464
13.3000,10.49868019,13.79133764,1046.679527
13.3050,9.276774197,14.21799547,1047.890096
13.3100,8.060834499,14.6458117,1049.112883
13.3150,6.850299872,15.07487855,1050.348285
13.3200,5.644452999,15.50371929,1051.596051
13.3250,4.444453911,15.93050848,1052.855723
13.3300,3.249401573,16.35508871,1054.127718
13.3350,2.058896873,16.77706054,1055.411961
13.3400,0.8721406197,17.19626327,1056.708847
13.3450,-0.3087603816,17.61209004,1058.01714
13.3500,-1.486813865,18.02485984,1059.337816
13.3550,-2.661372912,18.43407371,1060.670559
13.3600,-3.832458442,18.83965121,1062.015048
13.3650,-5.000576476,19.24132159,1063.371259
13.3700,-6.166801812,19.63908268,1064.738752
13.3750,-7.331182324,20.03386027,1066.117563
13.3800,-8.493941954,20.42491137,1067.50752
13.3850,-9.655625865,20.81212843,1068.908423
13.3900,-10.81715527,21.19639101,1070.320357
13.3950,-11.97836431,21.57747416,1071.743256
13.4000,-13.14132244,21.9547746,1073.177757
13.4050,-14.3054,22.32766103,1074.6229
13.4100,-15.47169485,22.69728405,1076.078897
13.4150,-16.63917745,23.06306875,1077.545334
13.4200,-17.80917704,23.42555158,1079.021925
13.4250,-18.98072785,23.78448842,1080.508218
13.4300,-20.15432054,24.13956485,1082.004049
13.4350,-21.33018374,24.49199706,1083.508957
13.4400,-22.50758366,24.84087826,1085.022457
13.4450,-23.68664959,25.1860333,1086.544239
13.4500,-24.86676448,25.52789675,1088.074304
13.4550,-26.0487965,25.8663879,1089.61284
13.4600,-27.23135244,26.20302417,1091.159082
13.4650,-28.41395234,26.5365205,1092.712302
13.4700,-29.5968326,26.86845463,1094.272833
13.4750,-30.77877976,27.19757789,1095.839763
13.4800,-31.95923885,27.52479909,1097.413033
13.4850,-33.13644563,27.85007669,1098.991799
13.4900,-34.310012,28.17444451,1100.576027
13.4950,-35.4782045,28.49727643,1102.164494
13.5000,-36.6398969,28.81832156,1103.757046
13.5050,-37.79481257,29.13669254,1105.353125
13.5100,-38.94085444,29.45314488,1106.951632
13.5150,-40.07896707,29.76766334,1108.552951
13.5200,-41.20741723,30.07883323,1110.156573
13.5250,-42.32525601,30.38723152,1111.761924
13.5300,-43.43118883,30.69446354,1113.368835
13.5350,-44.52263476,30.99862394,1114.975446
13.5400,-45.60006736,31.30029841,1116.581541
13.5450,-46.66222446,31.59946392,1118.186749
13.5500,-47.70815731,31.89694433,1119.790567
13.5550,-48.73725496,32.19150796,1121.393229
13.5600,-49.74772778,32.48355919,1122.993277
13.5650,-50.73848218,32.77348387,1124.589915
13.5700,-51.71011589,33.0611357,1126.183635
13.5750,-52.66057105,33.34696624,1127.77277
13.5800,-53.58924195,33.63151028,1129.357936
13.5850,-54.49575639,33.9136584,1130.938341
13.5900,-55.37857414,34.19316282,1132.513446
13.5950,-56.23602742,34.46966685,1134.082938
13.6000,-57.06775535,34.74408756,1135.647401
13.6050,-57.8732742,35.01583192,1137.207313
13.6100,-58.65251638,35.28313035,1138.762327
13.6150,-59.40554244,35.54465695,1140.311983
13.6200,-60.13031451,35.79987192,1141.855909
13.6250,-60.82769835,36.04921649,1143.395496
13.6300,-61.49636553,36.29111385,1144.930061
13.6350,-62.13776819,36.52473682,1146.460362
13.6400,-62.7516099,36.7497194,1147.985673
13.6450,-63.33822891,36.9656874,1149.506224
13.6500,-63.89597655,37.1719291,1151.021883
13.6550,-64.42680046,37.36791106,1152.532443
13.6600,-64.93224672,37.55274943,1154.038969
13.6650,-65.41180962,37.72682502,1155.540747
13.6700,-65.86603249,37.88893446,1157.038813
13.6750,-66.29690793,38.04067679,1158.533838
13.6800,-66.70509978,38.18219351,1160.026614
13.6850,-67.09098287,38.3133913,1161.517056
13.6900,-67.45632984,38.4350864,1163.006154
13.6950,-67.80271893,38.54689913,1164.49385
13.7000,-68.13108556,38.64934086,1165.980398
