type,name,time_units,begin_time,frequency,count,units
signal_3d,"Noraxon MyoMotion-Trajectories-Lateral humeral epicondyle RT","s",0.0000,200,4916,"mm"

time,x,y,z
0.0000,191.8030376,-17.32071478,1238.610823
0.0050,191.7973967,-17.32488814,1238.611185
0.0100,191.7917566,-17.32906258,1238.611547
0.0150,191.7861173,-17.33323811,1238.611909
0.0200,191.7800411,-17.33800959,1238.612247
0.0250,191.7735769,-17.34336966,1238.612549
0.0300,191.7667814,-17.34929426,1238.612803
0.0350,191.7597143,-17.35574643,1238.612997
0.0400,191.7524356,-17.36268065,1238.613119
0.0450,191.7450054,-17.37004993,1238.613157
0.0500,191.7374842,-17.37781215,1238.613101
0.0550,191.7299338,-17.38592979,1238.612937
0.0600,191.7224119,-17.39436772,1238.612653
0.0650,191.7149642,-17.4030966,1238.612242
0.0700,191.7076191,-17.41209721,1238.611696
0.0750,191.7003857,-17.42135755,1238.611015
0.0800,191.6932529,-17.43086412,1238.610201
0.0850,191.6861902,-17.44059619,1238.609263
0.0900,191.6791519,-17.45052879,1238.608213
0.0950,191.6720844,-17.46064,1238.607067
0.1000,191.6649315,-17.4709153,1238.60584
0.1050,191.6576373,-17.48134652,1238.604549
0.1100,191.6501471,-17.49192961,1238.60321
0.1150,191.6424133,-17.5026628,1238.601842
0.1200,191.6344007,-17.5135419,1238.600464
0.1250,191.6260909,-17.52455334,1238.599091
0.1300,191.6174842,-17.53566998,1238.59774
0.1350,191.6085996,-17.54685063,1238.596424
0.1400,191.599472,-17.55804209,1238.595157
0.1450,191.5901476,-17.56918357,1238.59395
0.1500,191.5806819,-17.58020999,1238.592813
0.1550,191.5603237,-17.60247807,1238.590941
0.1600,191.5405799,-17.62541039,1238.588874
0.1650,191.520905,-17.64798262,1238.586888
0.1700,191.5008956,-17.67066861,1238.585086
0.1750,191.4810777,-17.69278385,1238.583268
0.1800,191.4622308,-17.71477654,1238.581369
0.1850,191.4432498,-17.73613625,1238.579645
0.1900,191.4252992,-17.75718923,1238.577841
0.1950,191.4075157,-17.77698556,1238.576188
0.2000,191.3899061,-17.79641843,1238.574649
0.2050,191.3726973,-17.81591435,1238.573091
0.2100,191.3562413,-17.83386474,1238.571661
0.2150,191.3407923,-17.8512388,1238.570186
0.2200,191.3262829,-17.86697395,1238.568825
0.2250,191.3128605,-17.88203791,1238.5674
0.2300,191.3006659,-17.89698139,1238.565907
0.2350,191.2896565,-17.91083208,1238.564353
0.2400,191.2793541,-17.92371833,1238.562889
0.2450,191.2696672,-17.93571082,1238.561445
0.2500,191.2610795,-17.94783919,1238.559832
0.2550,191.2525745,-17.95987111,1238.55833
0.2600,191.2449466,-17.97086144,1238.556816
0.2650,191.2372083,-17.98204285,1238.555398
0.2700,191.2292614,-17.99310343,1238.554081
0.2750,191.2219278,-18.00454748,1238.552657
0.2800,191.2145507,-18.01609504,1238.551267
0.2850,191.2071563,-18.027893,1238.549832
0.2900,191.2005866,-18.0399943,1238.548223
0.2950,191.1941001,-18.05254779,1238.546541
0.3000,191.1876655,-18.06618484,1238.544728
0.3050,191.1806252,-18.08104852,1238.542816
0.3100,191.1734415,-18.09625186,1238.540849
0.3150,191.1659293,-18.11230834,1238.538867
0.3200,191.1576017,-18.1292975,1238.536892
0.3250,191.1488735,-18.14718175,1238.534788
0.3300,191.1391211,-18.16646118,1238.532672
0.3350,191.1288976,-18.18705495,1238.53046
0.3400,191.1178795,-18.20792168,1238.528339
0.3450,191.1061768,-18.22950187,1238.526225
0.3500,191.0943247,-18.25169659,1238.524044
0.3550,191.0817752,-18.27450622,1238.521959
0.3600,191.068925,-18.2972955,1238.519849
0.3650,191.0559069,-18.32053922,1238.517742
0.3700,191.0418245,-18.34427546,1238.515652
0.3750,191.0277907,-18.36827754,1238.513529
0.3800,191.0125758,-18.39265939,1238.511578
0.3850,190.99721,-18.41728628,1238.509635
0.3900,190.9811571,-18.44213126,1238.50779
0.3950,190.9639801,-18.46767554,1238.506068
0.4000,190.9462136,-18.49334807,1238.504516
0.4050,190.9279996,-18.51862619,1238.503167
0.4100,190.9088912,-18.54454443,1238.502038
0.4150,190.8894485,-18.57103325,1238.500984
0.4200,190.8697757,-18.59765506,1238.50006
0.4250,190.8496226,-18.62497814,1238.499211
0.4300,190.8288392,-18.65203759,1238.498565
0.4350,190.8081056,-18.67933967,1238.497925
0.4400,190.786576,-18.70605704,1238.497572
0.4450,190.7657787,-18.73352148,1238.497071
0.4500,190.744977,-18.76078739,1238.496608
0.4550,190.7244929,-18.78837468,1238.496065
0.4600,190.7036067,-18.81485467,1238.495748
0.4650,190.6836012,-18.8415967,1238.495234
0.4700,190.6644249,-18.86806195,1238.494558
0.4750,190.6455472,-18.89428109,1238.493957
0.4800,190.6267939,-18.91963554,1238.493392
0.4850,190.6087732,-18.94456784,1238.492737
0.4900,190.5918433,-18.96899447,1238.491981
0.4950,190.5748998,-18.99296219,1238.491262
0.5000,190.5588719,-19.0158654,1238.490532
0.5050,190.5434427,-19.03813235,1238.489749
0.5100,190.5282559,-19.05933861,1238.489021
0.5150,190.5132069,-19.07941719,1238.488341
0.5200,190.4980598,-19.09878732,1238.487696
0.5250,190.4823199,-19.11741686,1238.487103
0.5300,190.4658269,-19.13420914,1238.486595
0.5350,190.4495506,-19.1499895,1238.485907
0.5400,190.434066,-19.16460541,1238.484783
0.5450,190.4192745,-19.17795915,1238.483281
0.5500,190.405177,-19.18944533,1238.481408
0.5550,190.3932363,-19.19926344,1238.478739
0.5600,190.3831184,-19.20782879,1238.475275
0.5650,190.375414,-19.21447968,1238.470969
0.5700,190.3710091,-19.21943881,1238.465685
0.5750,190.3686779,-19.22225432,1238.459648
0.5800,190.3700826,-19.22263149,1238.452438
0.5850,190.3748947,-19.22203744,1238.444118
0.5900,190.3819193,-19.2186372,1238.435071
0.5950,190.391084,-19.21394996,1238.425118
0.6000,190.4032006,-19.20697938,1238.414148
0.6050,190.4182878,-19.19835059,1238.402126
0.6100,190.4361457,-19.18817947,1238.389047
0.6150,190.4561704,-19.17614744,1238.375022
0.6200,190.4792749,-19.16326429,1238.359672
0.6250,190.5052563,-19.14868004,1238.343174
0.6300,190.5340494,-19.13202216,1238.32543
0.6350,190.5654415,-19.11490106,1238.30636
0.6400,190.5997219,-19.09688316,1238.285872
0.6450,190.6373456,-19.07813336,1238.263867
0.6500,190.6778713,-19.05828687,1238.240439
0.6550,190.7216067,-19.03797882,1238.215479
0.6600,190.7686666,-19.01689658,1238.189074
0.6650,190.8192347,-18.99664802,1238.160944
0.6700,190.8747792,-18.97631523,1238.13103
0.6750,190.9333188,-18.95577051,1238.099621
0.6800,190.9969522,-18.9349176,1238.066396
0.6850,191.0641005,-18.91554329,1238.031437
0.6900,191.1340011,-18.89630493,1237.995098
0.6950,191.2072601,-18.87777871,1237.95731
0.7000,191.2822933,-18.86009137,1237.918317
0.7050,191.3576641,-18.84345703,1237.878568
0.7100,191.4332174,-18.82882623,1237.837929
0.7150,191.5075409,-18.8148493,1237.796945
0.7200,191.5793932,-18.80260144,1237.755792
0.7250,191.6477025,-18.79157887,1237.714801
0.7300,191.7113568,-18.78188431,1237.674284
0.7350,191.7680866,-18.77456739,1237.634498
0.7400,191.8179421,-18.77009723,1237.595534
0.7450,191.8589176,-18.76702276,1237.557785
0.7500,191.890732,-18.76685655,1237.521306
0.7550,191.9142349,-18.76887554,1237.485928
0.7600,191.9280966,-18.77369065,1237.451851
0.7650,191.9321993,-18.77971579,1237.419182
0.7700,191.9268592,-18.78731906,1237.387772
0.7750,191.9125901,-18.79638035,1237.357479
0.7800,191.8912095,-18.80772435,1237.327953
0.7850,191.8624453,-18.8203172,1237.299268
0.7900,191.8268486,-18.8331334,1237.271272
0.7950,191.7859415,-18.84701457,1237.243671
0.8000,191.7408785,-18.86235948,1237.216055
0.8050,191.6931512,-18.87804668,1237.188285
0.8100,191.6440009,-18.89549392,1237.159965
0.8150,191.5941583,-18.91409111,1237.130936
0.8200,191.5444105,-18.9334042,1237.101049
0.8250,191.49549,-18.95436451,1237.070192
0.8300,191.448712,-18.97642088,1237.038096
0.8350,191.4035491,-18.99912222,1237.004868
0.8400,191.3600841,-19.0225522,1236.970628
0.8450,191.3187415,-19.04619978,1236.935312
0.8500,191.2793721,-19.07109413,1236.898788
0.8550,191.2416224,-19.09627284,1236.861287
0.8600,191.2052193,-19.12182672,1236.82288
0.8650,191.1705493,-19.14712521,1236.78351
0.8700,191.1371526,-19.17270832,1236.743259
0.8750,191.104969,-19.19854577,1236.702079
0.8800,191.0734069,-19.22462596,1236.660083
0.8850,191.0416045,-19.24990624,1236.617522
0.8900,191.0108862,-19.27559995,1236.574019
0.8950,190.9807937,-19.29963606,1236.529859
0.9000,190.9511638,-19.32387888,1236.48492
0.9050,190.9223676,-19.34712916,1236.439343
0.9100,190.8944403,-19.36924434,1236.393084
0.9150,190.8680588,-19.39057967,1236.346021
0.9200,190.8427842,-19.41011001,1236.298493
0.9250,190.8182703,-19.42830397,1236.250452
0.9300,190.794809,-19.44611349,1236.201837
0.9350,190.7728327,-19.46192628,1236.15276
0.9400,190.7518503,-19.47733631,1236.103157
0.9450,190.7308258,-19.49139786,1236.053339
0.9500,190.7096081,-19.50512819,1236.003261
0.9550,190.6882703,-19.5174493,1235.953049
0.9600,190.6661307,-19.52891234,1235.902736
0.9650,190.6433886,-19.53892411,1235.852365
0.9700,190.6187842,-19.54754484,1235.802119
0.9750,190.5922072,-19.55522679,1235.752145
0.9800,190.5630035,-19.56196161,1235.702491
0.9850,190.5311976,-19.56567384,1235.653536
0.9900,190.4965661,-19.56834648,1235.605
0.9950,190.4581749,-19.56900973,1235.557342
1.0000,190.4159457,-19.56766928,1235.510608
1.0050,190.370849,-19.56475124,1235.46456
1.0100,190.3212883,-19.55948744,1235.419563
1.0150,190.2683253,-19.55287288,1235.375406
1.0200,190.2113281,-19.54457108,1235.332146
1.0250,190.1499223,-19.53526916,1235.289771
1.0300,190.0850794,-19.52495281,1235.247999
1.0350,190.018197,-19.51306108,1235.206724
1.0400,189.9481206,-19.49972788,1235.165961
1.0450,189.8751585,-19.48559682,1235.125649
1.0500,189.7999092,-19.47051666,1235.08562
1.0550,189.7216045,-19.45421722,1235.04601
1.0600,189.6411347,-19.43706595,1235.006578
1.0650,189.5589407,-19.42049425,1234.967143
1.0700,189.4754736,-19.4039356,1234.927653
1.0750,189.39056,-19.38637608,1234.888215
1.0800,189.3046786,-19.36816872,1234.848656
1.0850,189.2173151,-19.34928685,1234.809032
1.0900,189.1288953,-19.33005577,1234.769252
1.0950,189.0400328,-19.3103041,1234.729186
1.1000,188.9499189,-19.28958065,1234.689045
1.1050,188.8585378,-19.26886608,1234.648695
1.1100,188.7659116,-19.2470529,1234.608113
1.1150,188.6727591,-19.2251392,1234.567161
1.1200,188.5793032,-19.20306392,1234.525778
1.1250,188.4862797,-19.18039217,1234.483741
1.1300,188.3941816,-19.15816302,1234.440922
1.1350,188.3027918,-19.13566916,1234.397422
1.1400,188.2132354,-19.1129866,1234.352908
1.1450,188.1273276,-19.09021342,1234.30697
1.1500,188.0453972,-19.06667499,1234.259686
1.1550,187.9677959,-19.04411396,1234.210687
1.1600,187.8960786,-19.02210029,1234.159682
1.1650,187.8305488,-19.00144983,1234.106581
1.1700,187.7716762,-18.98293939,1234.051015
1.1750,187.7206873,-18.96566189,1233.99295
1.1800,187.6777549,-18.9508907,1233.932137
1.1850,187.644109,-18.93719035,1233.868415
1.1900,187.6195828,-18.92577935,1233.801591
1.1950,187.6047376,-18.9167478,1233.731612
1.2000,187.5989225,-18.90978928,1233.65852
1.2050,187.6010211,-18.90467213,1233.582493
1.2100,187.6122696,-18.90276028,1233.50316
1.2150,187.6295251,-18.90345175,1233.421214
1.2200,187.6541029,-18.90653007,1233.336372
1.2250,187.6843767,-18.9121729,1233.248996
1.2300,187.7196373,-18.91884032,1233.15941
1.2350,187.7582132,-18.92764662,1233.067826
1.2400,187.799918,-18.93791064,1232.97445
1.2450,187.8429242,-18.95016428,1232.879602
1.2500,187.8873927,-18.96364178,1232.783372
1.2550,187.9325881,-18.97913424,1232.685814
1.2600,187.9778676,-18.99540899,1232.587238
1.2650,188.0222173,-19.01274449,1232.487931
1.2700,188.0665268,-19.03006028,1232.387771
1.2750,188.1101378,-19.04759622,1232.286888
1.2800,188.1518587,-19.06514691,1232.185607
1.2850,188.1921437,-19.08326234,1232.083694
1.2900,188.2310551,-19.10172051,1231.981395
1.2950,188.268949,-19.12064693,1231.878507
1.3000,188.3049214,-19.13850154,1231.775338
1.3050,188.3386042,-19.15567947,1231.671943
1.3100,188.3718485,-19.1707652,1231.568265
1.3150,188.4027393,-19.18438046,1231.464551
1.3200,188.4320112,-19.19585454,1231.360737
1.3250,188.4596526,-19.20461151,1231.256902
1.3300,188.4847243,-19.21070746,1231.153278
1.3350,188.5068032,-19.21368851,1231.049927
1.3400,188.5256699,-19.2136444,1230.946889
1.3450,188.5418317,-19.21050661,1230.844065
1.3500,188.5538942,-19.2046743,1230.741593
1.3550,188.5623863,-19.19712035,1230.639301
1.3600,188.5670004,-19.18704143,1230.537225
1.3650,188.5669933,-19.17425483,1230.435447
1.3700,188.5626036,-19.15897605,1230.333902
1.3750,188.554059,-19.1419378,1230.232442
1.3800,188.5399651,-19.12264836,1230.131204
1.3850,188.5213955,-19.10126729,1230.030041
1.3900,188.498181,-19.07915566,1229.928743
1.3950,188.4702712,-19.05513744,1229.827416
1.4000,188.4380845,-19.02987841,1229.725829
1.4050,188.4013489,-19.00261206,1229.624045
1.4100,188.3605058,-18.97350306,1229.522021
1.4150,188.3145705,-18.94130292,1229.420067
1.4200,188.2639064,-18.90704849,1229.317966
1.4250,188.2079599,-18.87031988,1229.215984
1.4300,188.1464429,-18.83017458,1229.114279
1.4350,188.0800528,-18.78790664,1229.01269
1.4400,188.0077105,-18.74253213,1228.911655
1.4450,187.9280511,-18.69459969,1228.811444
1.4500,187.8415736,-18.64386177,1228.71205
1.4550,187.7486677,-18.58862216,1228.61372
1.4600,187.6482753,-18.52998172,1228.516482
1.4650,187.5399361,-18.46790435,1228.420485
1.4700,187.4231986,-18.40090145,1228.326097
1.4750,187.2974406,-18.32950463,1228.233316
1.4800,187.1632658,-18.25252327,1228.142355
1.4850,187.0197802,-18.17102405,1228.053212
1.4900,186.8678529,-18.08422466,1227.965952
1.4950,186.7072895,-17.99250059,1227.880499
1.5000,186.5379418,-17.89455481,1227.797202
1.5050,186.3612764,-17.79134328,1227.715704
1.5100,186.1759135,-17.68116891,1227.636465
1.5150,185.9838286,-17.56429619,1227.559162
1.5200,185.7842719,-17.44032363,1227.483976
1.5250,185.5777063,-17.30920869,1227.410946
1.5300,185.3649159,-17.17189516,1227.339834
1.5350,185.1465728,-17.02675265,1227.270713
1.5400,184.9227325,-16.87381719,1227.203481
1.5450,184.695641,-16.71178685,1227.137998
1.5500,184.4643329,-16.54048012,1227.074424
1.5550,184.2295533,-16.35892118,1227.012763
1.5600,183.9918213,-16.16780429,1226.952867
1.5650,183.7511941,-15.96587032,1226.894858
1.5700,183.5075226,-15.75465486,1226.838682
1.5750,183.2612453,-15.53293106,1226.784299
1.5800,183.0125648,-15.30019697,1226.731913
1.5850,182.7624194,-15.05694467,1226.681322
1.5900,182.5114658,-14.80161171,1226.632551
1.5950,182.2585318,-14.53469267,1226.585766
1.6000,182.0059175,-14.25768696,1226.540435
1.6050,181.7524078,-13.97065921,1226.496828
1.6100,181.4974127,-13.67480388,1226.454915
1.6150,181.2419704,-13.37052858,1226.414423
1.6200,180.9859406,-13.05992882,1226.375145
1.6250,180.7288548,-12.74331946,1226.33715
1.6300,180.4714188,-12.4207597,1226.300316
1.6350,180.212523,-12.09479597,1226.264561
1.6400,179.9528022,-11.76597792,1226.229651
1.6450,179.6925916,-11.4344865,1226.195662
1.6500,179.4325044,-11.10031931,1226.162454
1.6550,179.1721152,-10.76306533,1226.130177
1.6600,178.9114668,-10.42475724,1226.098729
1.6650,178.6509178,-10.08476529,1226.068161
1.6700,178.3902294,-9.743351244,1226.038452
1.6750,178.1305208,-9.401550798,1226.009256
1.6800,177.8701309,-9.059219811,1225.981041
1.6850,177.6100452,-8.717146811,1225.953442
1.6900,177.3492208,-8.375447952,1225.92673
1.6950,177.0880179,-8.033905669,1225.900841
1.7000,176.8257651,-7.692440749,1225.876027
1.7050,176.5633563,-7.351188549,1225.852137
1.7100,176.3002403,-7.010523762,1225.829251
1.7150,176.0366162,-6.670103503,1225.807377
1.7200,175.7724244,-6.329706826,1225.786701
1.7250,175.5080483,-5.989012498,1225.767161
1.7300,175.243909,-5.649241602,1225.748614
1.7350,174.9795099,-5.309303542,1225.731215
1.7400,174.7143505,-4.970144347,1225.715032
1.7450,174.4492425,-4.632092967,1225.699919
1.7500,174.1835355,-4.294620483,1225.686077
1.7550,173.9168528,-3.959831002,1225.673326
1.7600,173.6495111,-3.626517928,1225.661893
1.7650,173.3816725,-3.29453893,1225.651679
1.7700,173.1136509,-2.964233775,1225.642523
1.7750,172.8460755,-2.634855731,1225.634518
1.7800,172.5783485,-2.306876418,1225.627618
1.7850,172.3117443,-1.980427036,1225.621525
1.7900,172.0457326,-1.654558027,1225.616409
1.7950,171.7809107,-1.330017265,1225.612058
1.8000,171.517273,-1.006332983,1225.608469
1.8050,171.2550361,-0.6834587304,1225.6056
1.8100,170.9949834,-0.3618135332,1225.603193
1.8150,170.7365789,-0.04003973524,1225.601528
1.8200,170.4804147,0.2797941096,1225.600123
1.8250,170.2271308,0.5993177499,1225.599092
1.8300,169.9759522,0.917235907,1225.598394
1.8350,169.7273931,1.235061233,1225.598181
1.8400,169.4809302,1.552120262,1225.598508
1.8450,169.2357199,1.86768528,1225.599353
1.8500,168.9921547,2.181320665,1225.600565
1.8550,168.7499598,2.491856802,1225.602027
1.8600,168.5094158,2.799820583,1225.603775
1.8650,168.2700871,3.105543321,1225.605921
1.8700,168.0318159,3.409088167,1225.60847
1.8750,167.794128,3.709835161,1225.611491
1.8800,167.5572039,4.007367969,1225.614807
1.8850,167.3197391,4.302654979,1225.618906
1.8900,167.0825692,4.595426224,1225.623518
1.8950,166.8450878,4.885136624,1225.628677
1.9000,166.6065545,5.172410798,1225.634576
1.9050,166.3683009,5.45808189,1225.640967
1.9100,166.1298165,5.741718803,1225.647869
1.9150,165.890235,6.023676158,1225.655648
1.9200,165.649276,6.304332387,1225.664404
1.9250,165.4071074,6.584216172,1225.674163
1.9300,165.1637563,6.862092365,1225.68466
1.9350,164.9190451,7.139356834,1225.696174
1.9400,164.6737625,7.414286906,1225.708316
1.9450,164.4256783,7.686709214,1225.72149
1.9500,164.1748959,7.955818916,1225.735557
1.9550,163.9216777,8.221772101,1225.750566
1.9600,163.6654504,8.484677941,1225.766698
1.9650,163.4077477,8.744557733,1225.783659
1.9700,163.1480875,9.000480907,1225.80143
1.9750,162.8861394,9.252782223,1225.820129
1.9800,162.6239212,9.50109141,1225.839306
1.9850,162.3597338,9.745025641,1225.859281
1.9900,162.094709,9.985297268,1225.879863
1.9950,161.8283743,10.22140119,1225.901083
2.0000,161.5614442,10.45408657,1225.922832
2.0050,161.293988,10.68365853,1225.945134
2.0100,161.0261553,10.91094633,1225.968146
2.0150,160.7587182,11.13590593,1225.991517
2.0200,160.4925996,11.3596197,1226.015285
2.0250,160.2276448,11.58348361,1226.03972
2.0300,159.9635606,11.8077195,1226.06488
2.0350,159.7009322,12.03234548,1226.090703
2.0400,159.4405406,12.25836599,1226.117039
2.0450,159.1816765,12.48692107,1226.144192
2.0500,158.9245341,12.71778157,1226.171964
2.0550,158.6685812,12.95267996,1226.200732
2.0600,158.4129279,13.19050496,1226.230421
2.0650,158.1582847,13.43104724,1226.260783
2.0700,157.9040059,13.6748285,1226.29212
2.0750,157.6487149,13.92109847,1226.324498
2.0800,157.3922213,14.17041025,1226.358177
2.0850,157.1344348,14.42225554,1226.393036
2.0900,156.873059,14.67631417,1226.429563
2.0950,156.6081092,14.93304447,1226.467922
2.1000,156.3386905,15.19232679,1226.508367
2.1050,156.0645355,15.45414943,1226.551001
2.1100,155.7844854,15.71822804,1226.596097
2.1150,155.4989848,15.98414569,1226.643534
2.1200,155.2063393,16.25305461,1226.693997
2.1250,154.9057113,16.52433228,1226.747518
2.1300,154.5974997,16.79917991,1226.804302
2.1350,154.2810044,17.07555158,1226.86414
2.1400,153.9549287,17.35487585,1226.927669
2.1450,153.61978,17.63735076,1226.994855
2.1500,153.2756185,17.92301085,1227.065823
2.1550,152.9216865,18.21295839,1227.14105
2.1600,152.558158,18.50774695,1227.220734
2.1650,152.1853484,18.80657727,1227.304707
2.1700,151.8026789,19.11026592,1227.393348
2.1750,151.4120472,19.41968779,1227.486548
2.1800,151.0127204,19.73424332,1227.58434
2.1850,150.6058245,20.05347033,1227.68639
2.1900,150.190024,20.37802769,1227.793245
2.1950,149.767063,20.70720704,1227.904396
2.2000,149.3366224,21.04066556,1228.019962
2.2050,148.8979728,21.37709963,1228.13993
2.2100,148.4510149,21.71731568,1228.264516
2.2150,147.99594,22.06178272,1228.393783
2.2200,147.5327157,22.4099235,1228.527637
2.2250,147.061328,22.76051631,1228.665804
2.2300,146.5822907,23.11406893,1228.808327
2.2350,146.0963652,23.46851385,1228.954613
2.2400,145.6026697,23.82667688,1229.105686
2.2450,145.1024695,24.18770807,1229.260936
2.2500,144.5945521,24.5517331,1229.420832
2.2550,144.07961,24.91787345,1229.585008
2.2600,143.5575251,25.28498771,1229.753196
2.2650,143.0275665,25.65336809,1229.925673
2.2700,142.4910357,26.02428888,1230.102509
2.2750,141.9473898,26.3975213,1230.283822
2.2800,141.3976405,26.77390952,1230.469552
2.2850,140.8433009,27.15424408,1230.659531
2.2900,140.2851723,27.53810456,1230.8535
2.2950,139.7236246,27.92614525,1231.05155
2.3000,139.1585108,28.31725972,1231.253419
2.3050,138.5895193,28.71136698,1231.459242
2.3100,138.0174186,29.10708069,1231.668398
2.3150,137.4407782,29.50450122,1231.88139
2.3200,136.8604478,29.90275983,1232.0977
2.3250,136.2759567,30.30052622,1232.317133
2.3300,135.6872373,30.69977018,1232.540304
2.3350,135.0948715,31.10029263,1232.766999
2.3400,134.4989784,31.50148501,1232.997057
2.3450,133.8995053,31.9021785,1233.230253
2.3500,133.2957955,32.30317626,1233.467064
2.3550,132.6893306,32.70407528,1233.707025
2.3600,132.0794857,33.10624448,1233.950728
2.3650,131.4654391,33.50797134,1234.197996
2.3700,130.8474512,33.90932921,1234.448751
2.3750,130.2251699,34.30877271,1234.702707
2.3800,129.5977221,34.70663296,1234.960199
2.3850,128.9652122,35.10369159,1235.221517
2.3900,128.32886,35.4987761,1235.485931
2.3950,127.6891059,35.89364852,1235.753868
2.4000,127.0459784,36.2873697,1236.02506
2.4050,126.3999714,36.68104373,1236.299742
2.4100,125.7514802,37.07542277,1236.57803
2.4150,125.1005629,37.46934696,1236.859573
2.4200,124.4476854,37.86336597,1237.144476
2.4250,123.7937352,38.25801813,1237.432647
2.4300,123.1379967,38.65440417,1237.724801
2.4350,122.4819194,39.05215204,1238.020313
2.4400,121.8267426,39.45028905,1238.31854
2.4450,121.1725841,39.84770129,1238.619179
2.4500,120.5191615,40.24395028,1238.922115
2.4550,119.8663134,40.63782357,1239.227045
2.4600,119.2133087,41.02940603,1239.534202
2.4650,118.5608974,41.4173481,1239.842887
2.4700,117.9085661,41.80101718,1240.153014
2.4750,117.2544447,42.179724,1240.464868
2.4800,116.5992421,42.55381443,1240.778307
2.4850,115.9424696,42.92487798,1241.093909
2.4900,115.2852643,43.29331944,1241.411442
2.4950,114.6277394,43.66164835,1241.731652
2.5000,113.9714639,44.03078801,1242.054253
2.5050,113.3168171,44.40246907,1242.379624
2.5100,112.6654383,44.77596617,1242.707001
2.5150,112.018385,45.15109524,1243.035831
2.5200,111.3768567,45.52797885,1243.365818
2.5250,110.7407668,45.90676346,1243.697057
2.5300,110.1086742,46.28624148,1244.029649
2.5350,109.4814773,46.66751953,1244.363669
2.5400,108.8592192,47.04873727,1244.698393
2.5450,108.2421057,47.42890103,1245.033485
2.5500,107.6318711,47.80888578,1245.368503
2.5550,107.0275857,48.18677265,1245.703098
2.5600,106.4309552,48.56364204,1246.036946
2.5650,105.8414262,48.93851447,1246.36992
2.5700,105.2584836,49.30974177,1246.701513
2.5750,104.6822036,49.67787397,1247.031824
2.5800,104.1117608,50.04175227,1247.360721
2.5850,103.5464279,50.40117676,1247.68835
2.5900,102.9855456,50.75578229,1248.014688
2.5950,102.4306042,51.10578241,1248.339148
2.6000,101.8804409,51.45206492,1248.662455
2.6050,101.3364069,51.79513425,1248.984155
2.6100,100.7982059,52.13692363,1249.305016
2.6150,100.267489,52.47696453,1249.624154
2.6200,99.74277497,52.81652693,1249.94254
2.6250,99.22516099,53.1569865,1250.260236
2.6300,98.71508934,53.49810959,1250.576877
2.6350,98.21238654,53.8402705,1250.892661
2.6400,97.7170453,54.18307375,1251.207398
2.6450,97.23012166,54.52756797,1251.521045
2.6500,96.75146114,54.87185057,1251.832955
2.6550,96.2802966,55.21516399,1252.143089
2.6600,95.81705865,55.5554568,1252.450504
2.6650,95.3617499,55.89335937,1252.755399
2.6700,94.91244042,56.22680752,1253.057731
2.6750,94.4696172,56.5559351,1253.357326
2.6800,94.03217121,56.8801228,1253.65431
2.6850,93.59943578,57.19937932,1253.948954
2.6900,93.17041168,57.51481135,1254.242106
2.6950,92.74482077,57.82563129,1254.533546
2.7000,92.32371391,58.13232974,1254.822995
2.7050,91.90656757,58.43550289,1255.110831
2.7100,91.49473209,58.73449535,1255.396187
2.7150,91.08680609,59.03129055,1255.680413
2.7200,90.68289042,59.32644119,1255.96359
2.7250,90.28383305,59.61914322,1256.245084
2.7300,89.89030633,59.90940612,1256.524508
2.7350,89.50010217,60.19722919,1256.802808
2.7400,89.11357566,60.4835635,1257.080103
2.7450,88.73022536,60.76970265,1257.357042
2.7500,88.35021361,61.05615052,1257.633771
2.7550,87.97321131,61.34234024,1257.910069
2.7600,87.59913638,61.62858212,1258.186072
2.7650,87.2274786,61.91652608,1258.462671
2.7700,86.85942634,62.20696069,1258.739701
2.7750,86.49582265,62.49936784,1259.0166
2.7800,86.13747009,62.79423308,1259.293232
2.7850,85.78437475,63.08995919,1259.56903
2.7900,85.43565932,63.38424334,1259.843406
2.7950,85.09036247,63.67530327,1260.116083
2.8000,84.74644295,63.96212196,1260.387522
2.8050,84.40375974,64.24402122,1260.657567
2.8100,84.06198201,64.52054513,1260.926159
2.8150,83.72113743,64.79205129,1261.193491
2.8200,83.38048666,65.0585163,1261.459923
2.8250,83.04205575,65.3208247,1261.724874
2.8300,82.70721393,65.57963614,1261.988052
2.8350,82.37603085,65.83648532,1262.249979
2.8400,82.05049903,66.09095947,1262.50963
2.8450,81.73050003,66.34329585,1262.767115
2.8500,81.41534044,66.59212139,1263.022177
2.8550,81.10546824,66.83887674,1263.275269
2.8600,80.80040599,67.0819528,1263.525919
2.8650,80.50035753,67.32136424,1263.773918
2.8700,80.20487442,67.55625896,1264.019074
2.8750,79.91317682,67.78511849,1264.261085
2.8800,79.62452363,68.0079624,1264.500214
2.8850,79.33967793,68.22403238,1264.73569
2.8900,79.05844344,68.43434284,1264.968099
2.8950,78.77903476,68.63656999,1265.197167
2.9000,78.50253603,68.83172807,1265.42282
2.9050,78.22606808,69.01750395,1265.645393
2.9100,77.95036299,69.194862,1265.864885
2.9150,77.67394917,69.36290272,1266.081626
2.9200,77.39620368,69.5211095,1266.295623
2.9250,77.11748607,69.67016226,1266.506912
2.9300,76.83586029,69.80988268,1266.71636
2.9350,76.55103016,69.93933957,1266.92367
2.9400,76.26304768,70.05949821,1267.129236
2.9450,75.97025248,70.16994251,1267.33359
2.9500,75.67424904,70.27217325,1267.536632
2.9550,75.37525692,70.36718177,1267.738698
2.9600,75.07400491,70.45515783,1267.939497
2.9650,74.76833793,70.5362562,1268.140107
2.9700,74.45930039,70.61315966,1268.341172
2.9750,74.14751006,70.68650149,1268.542641
2.9800,73.83391188,70.75662234,1268.744222
2.9850,73.51822015,70.82462758,1268.946481
2.9900,73.20033151,70.8892501,1269.148868
2.9950,72.88025758,70.95111422,1269.351631
3.0000,72.55899583,71.01169924,1269.554918
3.0050,72.23583337,71.07071139,1269.758933
3.0100,71.91064749,71.13000239,1269.964632
3.0150,71.5852561,71.19025739,1270.171438
3.0200,71.26096189,71.25216859,1270.379086
3.0250,70.93754198,71.31647123,1270.587984
3.0300,70.61579481,71.38197067,1270.797191
3.0350,70.29683171,71.45041185,1271.006932
3.0400,69.97995247,71.52104196,1271.217193
3.0450,69.66530653,71.59413467,1271.428061
3.0500,69.35332739,71.66960996,1271.639241
3.0550,69.04479834,71.74914523,1271.851149
3.0600,68.7399214,71.83123148,1272.062982
3.0650,68.43858474,71.91609291,1272.274887
3.0700,68.14008046,72.00238913,1272.486604
3.0750,67.84439242,72.09066689,1272.698326
3.0800,67.55033368,72.18078428,1272.91059
3.0850,67.25780369,72.27241761,1273.123267
3.0900,66.96650225,72.36669668,1273.337031
3.0950,66.67766506,72.46453061,1273.551661
3.1000,66.39153022,72.56508388,1273.76662
3.1050,66.10804408,72.66858505,1273.982042
3.1100,65.8271322,72.77556798,1274.198178
3.1150,65.54676996,72.88497366,1274.415607
3.1200,65.26800031,72.99825025,1274.634369
3.1250,64.9885418,73.11420186,1274.855145
3.1300,64.70839381,73.23303767,1275.078066
3.1350,64.42819769,73.35462738,1275.302775
3.1400,64.14722737,73.47893913,1275.529712
3.1450,63.86675775,73.60646692,1275.758447
3.1500,63.58609896,73.73680283,1275.989257
3.1550,63.30684259,73.86972585,1276.221144
3.1600,63.02890581,74.00519109,1276.454291
3.1650,62.75107818,74.1409593,1276.688317
3.1700,62.47315932,74.27814699,1276.923862
3.1750,62.19587586,74.41609789,1277.160253
3.1800,61.91832647,74.55290563,1277.397082
3.1850,61.6388093,74.68766324,1277.63482
3.1900,61.35664034,74.81822019,1277.872783
3.1950,61.0713706,74.94545033,1278.111681
3.2000,60.78258544,75.06824995,1278.351186
3.2050,60.49057615,75.18625435,1278.590967
3.2100,60.19375462,75.29829731,1278.831357
3.2150,59.89230704,75.40497979,1279.072521
3.2200,59.58663866,75.5067376,1279.314495
3.2250,59.27686204,75.60371832,1279.557326
3.2300,58.96450639,75.69482941,1279.799657
3.2350,58.64973275,75.78158408,1280.042117
3.2400,58.33236117,75.86377573,1280.284694
3.2450,58.01326661,75.94164537,1280.527008
3.2500,57.69111289,76.01441997,1280.769466
3.2550,57.36467306,76.08184298,1281.01255
3.2600,57.03316204,76.14417724,1281.256897
3.2650,56.69867077,76.2033758,1281.502179
3.2700,56.36111691,76.25709098,1281.747387
3.2750,56.02009738,76.30523201,1281.992637
3.2800,55.67544077,76.34884864,1282.238502
3.2850,55.32749121,76.38703164,1282.484316
3.2900,54.97722281,76.42183077,1282.730475
3.2950,54.62452537,76.4547,1282.977715
3.3000,54.26933437,76.48572359,1283.226153
3.3050,53.9124267,76.51519724,1283.475443
3.3100,53.55321417,76.54345408,1283.725968
3.3150,53.19311187,76.5702703,1283.976756
3.3200,52.83041656,76.59588165,1284.228905
3.3250,52.46597449,76.62192396,1284.482719
3.3300,52.1007238,76.64967935,1284.73827
3.3350,51.73546712,76.68053981,1284.995739
3.3400,51.37203961,76.71539725,1285.254527
3.3450,51.01075863,76.75399159,1285.514288
3.3500,50.65177581,76.79752768,1285.775445
3.3550,50.29633703,76.84624713,1286.037423
3.3600,49.94666954,76.90221415,1286.299935
3.3650,49.60321823,76.9657624,1286.562799
3.3700,49.2664079,77.03774475,1286.826214
3.3750,48.93744247,77.11791052,1287.089347
3.3800,48.61668298,77.20569354,1287.351616
3.3850,48.30562566,77.30187504,1287.612541
3.3900,48.00414694,77.40561098,1287.871668
3.3950,47.71092085,77.51567446,1288.129139
3.4000,47.42703871,77.63246548,1288.384531
3.4050,47.15220489,77.75564599,1288.63777
3.4100,46.88738507,77.88442786,1288.887922
3.4150,46.6332796,78.0181812,1289.134255
3.4200,46.38866757,78.15641842,1289.377247
3.4250,46.15356974,78.2983621,1289.616446
3.4300,45.92810771,78.44316571,1289.851323
3.4350,45.71140463,78.58892894,1290.081456
3.4400,45.50405714,78.7364421,1290.306776
3.4450,45.30394015,78.88401828,1290.527811
3.4500,45.11213941,79.03156901,1290.743789
3.4550,44.92752006,79.17901065,1290.955442
3.4600,44.74934395,79.32453193,1291.162214
3.4650,44.57703751,79.46865216,1291.364675
3.4700,44.41147784,79.6095834,1291.561454
3.4750,44.25179273,79.74711994,1291.752999
3.4800,44.09805841,79.88152239,1291.939417
3.4850,43.94984483,80.01303032,1292.121089
3.4900,43.80677147,80.14145309,1292.29819
3.4950,43.66821232,80.26590517,1292.470648
3.5000,43.53331392,80.38524926,1292.638346
3.5050,43.40198556,80.50060255,1292.801925
3.5100,43.27394328,80.61122689,1292.961203
3.5150,43.14944608,80.71775325,1293.116375
3.5200,43.02783356,80.81931724,1293.26738
3.5250,42.90807708,80.91443142,1293.41412
3.5300,42.78951162,81.00440835,1293.55768
3.5350,42.67191225,81.0881088,1293.697599
3.5400,42.55396637,81.16411192,1293.833937
3.5450,42.43524303,81.23248908,1293.967058
3.5500,42.31448355,81.29379719,1294.097931
3.5550,42.19175593,81.3472742,1294.226207
3.5600,42.06598063,81.39415444,1294.353193
3.5650,41.9364786,81.43394359,1294.479077
3.5700,41.80227489,81.46765779,1294.604911
3.5750,41.66390547,81.49637896,1294.730946
3.5800,41.52115258,81.52003727,1294.857329
3.5850,41.37192044,81.53818169,1294.985129
3.5900,41.21617042,81.55173234,1295.114841
3.5950,41.05227077,81.56023914,1295.247286
3.6000,40.87943515,81.56398493,1295.383076
3.6050,40.69762707,81.56377633,1295.522777
3.6100,40.50638501,81.56095494,1295.667409
3.6150,40.30474744,81.55567983,1295.817694
3.6200,40.09448941,81.54854276,1295.972805
3.6250,39.87408881,81.53833738,1296.133046
3.6300,39.64253157,81.5254893,1296.299394
3.6350,39.39982623,81.50953158,1296.471627
3.6400,39.14553617,81.49072695,1296.650295
3.6450,38.88022437,81.46941831,1296.835224
3.6500,38.60522324,81.44538427,1297.025544
3.6550,38.31964123,81.41803505,1297.221505
3.6600,38.02404353,81.38566221,1297.421981
3.6650,37.71863293,81.34749854,1297.626506
3.6700,37.40454633,81.30295894,1297.834077
3.6750,37.08150382,81.25099465,1298.044405
3.6800,36.75055589,81.19168523,1298.256894
3.6850,36.4109644,81.12400791,1298.471553
3.6900,36.06323443,81.04721104,1298.687739
3.6950,35.7095008,80.9616868,1298.904313
3.7000,35.34994947,80.86700718,1299.120893
3.7050,34.98550915,80.76268193,1299.336656
3.7100,34.61544323,80.64933309,1299.552361
3.7150,34.240943,80.52642869,1299.766924
3.7200,33.86349458,80.39403573,1299.979404
3.7250,33.48377832,80.25262002,1300.189628
3.7300,33.10210052,80.10293303,1300.397679
3.7350,32.71900627,79.94541307,1300.603451
3.7400,32.33384685,79.77918808,1300.806944
3.7450,31.9489759,79.60561803,1301.007179
3.7500,31.56411062,79.42452744,1301.204297
3.7550,31.17978526,79.23621373,1301.397966
3.7600,30.79639106,79.04224479,1301.588688
3.7650,30.41537155,78.84299253,1301.775707
3.7700,30.03665965,78.6410204,1301.960264
3.7750,29.66115802,78.43741784,1302.142224
3.7800,29.28929614,78.23274342,1302.321446
3.7850,28.92198284,78.02720263,1302.497292
3.7900,28.56010625,77.82340944,1302.670474
3.7950,28.20393848,77.6210738,1302.840515
3.8000,27.8536675,77.42132962,1303.007764
3.8050,27.51036538,77.22520226,1303.171978
3.8100,27.17467206,77.03290663,1303.33271
3.8150,26.84564384,76.84441583,1303.490415
3.8200,26.52524988,76.66141715,1303.644622
3.8250,26.21316771,76.48317012,1303.795029
3.8300,25.90935488,76.30996454,1303.941718
3.8350,25.61476401,76.14257953,1304.084336
3.8400,25.32896784,75.9827908,1304.224043
3.8450,25.05283161,75.830688,1304.360141
3.8500,24.78647121,75.68646429,1304.49264
3.8550,24.53042306,75.55084071,1304.621407
3.8600,24.28514049,75.42401976,1304.746024
3.8650,24.05065025,75.30571233,1304.86633
3.8700,23.82668089,75.1964861,1304.982742
3.8750,23.61245577,75.09598717,1305.095605
3.8800,23.4072646,75.0043538,1305.205392
3.8850,23.21255741,74.92268405,1305.311647
3.8900,23.02765452,74.8509193,1305.414814
3.8950,22.85400106,74.78940842,1305.513969
3.9000,22.69128895,74.73797582,1305.609284
3.9050,22.53963931,74.69738314,1305.700981
3.9100,22.39944705,74.66621263,1305.788039
3.9150,22.26980207,74.64360984,1305.870707
3.9200,22.14999484,74.62973471,1305.949487
3.9250,22.04085852,74.62491066,1306.024085
3.9300,21.94188131,74.62809098,1306.094298
3.9350,21.85241528,74.63752762,1306.159647
3.9400,21.77275394,74.65281755,1306.219737
3.9450,21.70261431,74.67261513,1306.274129
3.9500,21.64110532,74.69660496,1306.323327
3.9550,21.58822994,74.72359229,1306.366825
3.9600,21.54266291,74.75354293,1306.405491
3.9650,21.50519951,74.78515946,1306.438199
3.9700,21.47530747,74.81836315,1306.465262
3.9750,21.45324395,74.85278054,1306.486374
3.9800,21.43849266,74.88725348,1306.501364
3.9850,21.43163888,74.92148513,1306.509634
3.9900,21.4333104,74.95506791,1306.510571
3.9950,21.44394507,74.98731578,1306.503505
4.0000,21.4626843,75.01772226,1306.488874
4.0050,21.48995993,75.04543014,1306.465979
4.0100,21.52614984,75.07079888,1306.43471
4.0150,21.57071037,75.09288783,1306.395045
4.0200,21.6237728,75.11139324,1306.346746
4.0250,21.68572562,75.12611754,1306.289359
4.0300,21.75598996,75.13662945,1306.223318
4.0350,21.83438348,75.14197749,1306.148179
4.0400,21.92099277,75.14261135,1306.064149
4.0450,22.01598361,75.13855403,1305.971173
4.0500,22.11857057,75.12926827,1305.869564
4.0550,22.22736135,75.1136272,1305.759734
4.0600,22.34370239,75.09193228,1305.640886
4.0650,22.4672124,75.06524926,1305.513875
4.0700,22.59807638,75.032311,1305.377986
4.0750,22.73513282,74.99238403,1305.233717
4.0800,22.87737422,74.94614325,1305.082099
4.0850,23.02553531,74.89408288,1304.922948
4.0900,23.17857213,74.83527749,1304.756424
4.0950,23.33609592,74.77175132,1304.583936
4.1000,23.4992853,74.70417704,1304.405032
4.1050,23.66812034,74.6322767,1304.219553
4.1100,23.84267604,74.55758724,1304.028298
4.1150,24.02287341,74.47974445,1303.831154
4.1200,24.20821053,74.39910048,1303.628659
4.1250,24.39937574,74.31755259,1303.421319
4.1300,24.59627802,74.23521771,1303.209341
4.1350,24.79888888,74.15277957,1302.993143
4.1400,25.0078935,74.07034002,1302.772289
4.1450,25.22262577,73.98848306,1302.547612
4.1500,25.44360258,73.90611084,1302.318157
4.1550,25.66951808,73.82473759,1302.085634
4.1600,25.89940818,73.7431523,1301.850218
4.1650,26.13261677,73.66186912,1301.612598
4.1700,26.36994295,73.58063271,1301.372189
4.1750,26.60896045,73.49873989,1301.13033
4.1800,26.84989889,73.41634253,1300.886982
4.1850,27.09171152,73.33324076,1300.642856
4.1900,27.33461277,73.24929771,1300.397709
4.1950,27.57718665,73.16467361,1300.152661
4.2000,27.81964241,73.07994029,1299.907782
4.2050,28.06136828,72.99534198,1299.663598
4.2100,28.30255693,72.91149676,1299.420348
4.2150,28.54345419,72.82929704,1299.17823
4.2200,28.78354547,72.748947,1298.937768
4.2250,29.02279889,72.67040417,1298.698922
4.2300,29.2620386,72.59415308,1298.4614
4.2350,29.50141577,72.52051735,1298.225329
4.2400,29.74215136,72.44943669,1297.989825
4.2450,29.98401207,72.38020721,1297.754723
4.2500,30.22715627,72.31168443,1297.519462
4.2550,30.47138333,72.24415364,1297.284278
4.2600,30.71738716,72.17790246,1297.048871
4.2650,30.96459178,72.11246947,1296.81344
4.2700,31.2135923,72.04662173,1296.576956
4.2750,31.46408244,71.98022392,1296.339608
4.2800,31.71569386,71.91306349,1296.101541
4.2850,31.96831355,71.84476336,1295.862689
4.2900,32.22246145,71.77469481,1295.62244
4.2950,32.47695267,71.70245084,1295.381392
4.3000,32.73201786,71.62806389,1295.139404
4.3050,32.9872487,71.55116775,1294.896559
4.3100,33.24109923,71.46896897,1294.652599
4.3150,33.49468511,71.38391822,1294.408028
4.3200,33.74771277,71.29551789,1294.162795
4.3250,34.00079168,71.20318095,1293.916339
4.3300,34.25439852,71.10712289,1293.668305
4.3350,34.50926442,71.00886535,1293.419058
4.3400,34.76601575,70.90803652,1293.168006
4.3450,35.02460103,70.80466109,1292.915205
4.3500,35.28623742,70.70017331,1292.660502
4.3550,35.55183399,70.59410703,1292.40317
4.3600,35.82137713,70.48695037,1292.143478
4.3650,36.09528206,70.37812631,1291.880954
4.3700,36.37296489,70.26710808,1291.615719
4.3750,36.65507828,70.15336833,1291.347102
4.3800,36.94244159,70.03721512,1291.07484
4.3850,37.23430459,69.91791205,1290.799061
4.3900,37.53086524,69.79628577,1290.52017
4.3950,37.83290251,69.67151454,1290.237222
4.4000,38.14006062,69.5430961,1289.950295
4.4050,38.45099224,69.41199278,1289.660674
4.4100,38.7651485,69.27753287,1289.368382
4.4150,39.08369139,69.13996578,1289.072866
4.4200,39.40678417,68.99850293,1288.773622
4.4250,39.7345692,68.85294011,1288.470541
4.4300,40.06634043,68.70353404,1288.164119
4.4350,40.40098754,68.54900372,1287.854519
4.4400,40.73820704,68.3904498,1287.542446
4.4450,41.07797681,68.22671208,1287.227416
4.4500,41.4197006,68.05921512,1286.910549
4.4550,41.76379361,67.88762125,1286.59147
4.4600,42.11010584,67.71243986,1286.270518
4.4650,42.45870024,67.53318459,1285.947474
4.4700,42.80834153,67.34969465,1285.623037
4.4750,43.16037311,67.16271311,1285.296655
4.4800,43.51401954,66.97178051,1284.968663
4.4850,43.87000697,66.77698407,1284.638605
4.4900,44.22760344,66.57824829,1284.306955
4.4950,44.58778108,66.37622529,1283.973454
4.5000,44.94913709,66.16979031,1283.638457
4.5050,45.31185052,65.95873535,1283.30179
4.5100,45.67474881,65.74336201,1282.964286
4.5150,46.03842946,65.52389299,1282.62574
4.5200,46.40221602,65.30044487,1282.286655
4.5250,46.76614637,65.07325128,1281.947112
4.5300,47.13031402,64.84271086,1281.607233
4.5350,47.49574238,64.6097949,1281.266858
4.5400,47.86027694,64.37300348,1280.926561
4.5450,48.22418958,64.13453217,1280.587116
4.5500,48.58776733,63.89395342,1280.248177
4.5550,48.95153412,63.65271921,1279.910042
4.5600,49.31523618,63.40921631,1279.572214
4.5650,49.67952669,63.16494985,1279.234899
4.5700,50.04470064,62.92115238,1278.89853
4.5750,50.41074814,62.67699924,1278.562689
4.5800,50.77862612,62.4333834,1278.227265
4.5850,51.14697919,62.1891716,1277.892487
4.5900,51.51528598,61.94527616,1277.559077
4.5950,51.8840942,61.70178825,1277.226752
4.6000,52.2537237,61.45903823,1276.895483
4.6050,52.62392481,61.21705403,1276.565368
4.6100,52.99618828,60.97796336,1276.236539
4.6150,53.36979636,60.73930447,1275.908253
4.6200,53.74505574,60.5015697,1275.580487
4.6250,54.12113278,60.2652054,1275.253902
4.6300,54.49758424,60.0296079,1274.92855
4.6350,54.87369093,59.79424205,1274.604607
4.6400,55.2489656,59.55890282,1274.282299
4.6450,55.62371588,59.32444975,1273.961819
4.6500,55.99770605,59.08948326,1273.642747
4.6550,56.37175862,58.85555967,1273.325258
4.6600,56.74426934,58.62202289,1273.010069
4.6650,57.11538472,58.3885032,1272.696923
4.6700,57.48476013,58.15552036,1272.386191
4.6750,57.85268777,57.92439686,1272.078209
4.6800,58.21956916,57.69405288,1271.772257
4.6850,58.58500157,57.46654823,1271.46938
4.6900,58.94975424,57.24037324,1271.168523
4.6950,59.31344941,57.01554388,1270.869945
4.7000,59.67533641,56.79162897,1270.573876
4.7050,60.03582708,56.56827465,1270.279984
4.7100,60.39559439,56.34474947,1269.987609
4.7150,60.75398333,56.12073246,1269.697113
4.7200,61.1095131,55.89580567,1269.409171
4.7250,61.46225573,55.67052465,1269.124027
4.7300,61.81322536,55.4429299,1268.84043
4.7350,62.16140432,55.21428011,1268.559373
4.7400,62.50893107,54.98358395,1268.279435
4.7450,62.85451175,54.75141678,1268.001569
4.7500,63.19849903,54.51681492,1267.725176
4.7550,63.54091664,54.27822508,1267.449737
4.7600,63.88194066,54.03495213,1267.17483
4.7650,64.2214269,53.78631042,1266.900331
4.7700,64.55944474,53.53193291,1266.626036
4.7750,64.89609146,53.27224396,1266.352211
4.7800,65.23206759,53.00624591,1266.078168
4.7850,65.56724152,52.73514002,1265.804429
4.7900,65.90218586,52.45882101,1265.530714
4.7950,66.23683199,52.17642644,1265.256663
4.8000,66.57177103,51.88889633,1264.982383
4.8050,66.90814931,51.59652298,1264.707402
4.8100,67.24749275,51.30025133,1264.431202
4.8150,67.59010492,51.00053476,1264.153717
4.8200,67.93757825,50.6976727,1263.874193
4.8250,68.28900003,50.39257086,1263.593359
4.8300,68.64404362,50.08581344,1263.311526
4.8350,69.00249233,49.7771052,1263.028646
4.8400,69.36595521,49.46925103,1262.744944
4.8450,69.73506415,49.16218203,1262.460041
4.8500,70.10995,48.85755096,1262.174447
4.8550,70.49176642,48.55486617,1261.887426
4.8600,70.87983784,48.2543778,1261.599336
4.8650,71.27381148,47.95667625,1261.310595
4.8700,71.67389353,47.66194295,1261.021161
4.8750,72.0807442,47.37137726,1260.731153
4.8800,72.4937886,47.0843149,1260.440603
4.8850,72.9149286,46.80281512,1260.149312
4.8900,73.34405971,46.52759108,1259.857567
4.8950,73.78149218,46.25841248,1259.565144
4.9000,74.2272182,45.9949624,1259.271916
4.9050,74.68106878,45.73730929,1258.978024
4.9100,75.14236908,45.4848884,1258.683547
4.9150,75.61013566,45.23800892,1258.38908
4.9200,76.08452319,44.99655881,1258.094642
4.9250,76.56498193,44.75996234,1257.800197
4.9300,77.05182363,44.52899545,1257.505872
4.9350,77.54651616,44.30333538,1257.210855
4.9400,78.04717067,44.08327838,1256.916122
4.9450,78.55396353,43.86727837,1256.621122
4.9500,79.06611424,43.65588576,1256.326432
4.9550,79.58261011,43.44828368,1256.032288
4.9600,80.10394462,43.24434758,1255.738334
4.9650,80.62969167,43.04342744,1255.444606
4.9700,81.16022494,42.84466466,1255.150658
4.9750,81.6951374,42.64718792,1254.856482
4.9800,82.23302045,42.4507764,1254.562717
4.9850,82.77401827,42.2525725,1254.268439
4.9900,83.31621255,42.05270123,1253.97463
4.9950,83.85924535,41.85142245,1253.681621
5.0000,84.40275942,41.64830754,1253.389517
5.0050,84.94810323,41.44326346,1253.097821
5.0100,85.49418065,41.2368352,1252.807289
5.0150,86.04086925,41.02914243,1252.517917
5.0200,86.58988089,40.82050126,1252.229079
5.0250,87.14020574,40.60898601,1251.940614
5.0300,87.69191587,40.39655981,1251.653075
5.0350,88.2455946,40.18198731,1251.365913
5.0400,88.79962369,39.96420819,1251.079442
5.0450,89.35461618,39.74356727,1250.793558
5.0500,89.91074303,39.51976898,1250.508124
5.0550,90.46742982,39.29271234,1250.223373
5.0600,91.02537302,39.06354551,1249.939486
5.0650,91.58406832,38.83265998,1249.656827
5.0700,92.14458305,38.59972667,1249.374791
5.0750,92.70696224,38.36470082,1249.093375
5.0800,93.27092332,38.12770207,1248.812626
5.0850,93.83618771,37.88843816,1248.532682
5.0900,94.40370943,37.64663687,1248.253022
5.0950,94.97342082,37.40263737,1247.973767
5.1000,95.54542721,37.15594297,1247.694731
5.1050,96.1195365,36.90587047,1247.415772
5.1100,96.69477786,36.65095128,1247.136944
5.1150,97.27060973,36.39172767,1246.858686
5.1200,97.84745106,36.12896767,1246.581099
5.1250,98.42579965,35.86203956,1246.30378
5.1300,99.00771895,35.59163354,1246.026175
5.1350,99.592283,35.31844001,1245.748937
5.1400,100.179679,35.04206855,1245.471861
5.1450,100.7708895,34.76307923,1245.194734
5.1500,101.3664842,34.48013036,1244.91695
5.1550,101.9664594,34.19337977,1244.638581
5.1600,102.5713707,33.90445,1244.359979
5.1650,103.1817399,33.61039325,1244.080004
5.1700,103.7976512,33.31041214,1243.798463
5.1750,104.4187543,33.00377348,1243.515329
5.1800,105.0447382,32.69046879,1243.230752
5.1850,105.6750606,32.36796403,1242.944346
5.1900,106.3094496,32.03422034,1242.655627
5.1950,106.9471877,31.68882706,1242.364798
5.2000,107.5879788,31.33107296,1242.071705
5.2050,108.2313325,30.95907171,1241.776053
5.2100,108.8772943,30.57246441,1241.477712
5.2150,109.5261758,30.17189235,1241.176783
5.2200,110.1759257,29.75595507,1240.873661
5.2250,110.8274462,29.32542272,1240.568315
5.2300,111.4803306,28.87925779,1240.26054
5.2350,112.1321859,28.41873852,1239.951604
5.2400,112.7834667,27.94338722,1239.641306
5.2450,113.4322498,27.45478499,1239.330731
5.2500,114.0792761,26.95406485,1239.019983
5.2550,114.7238467,26.44216103,1238.709585
5.2600,115.3658421,25.92099649,1238.400195
5.2650,116.0055062,25.39252807,1238.092163
5.2700,116.6414587,24.85931105,1237.786724
5.2750,117.2744951,24.32345251,1237.484129
5.2800,117.9058436,23.78713024,1237.184489
5.2850,118.5361796,23.25338109,1236.88835
5.2900,119.1663312,22.72420271,1236.595862
5.2950,119.7962906,22.19976783,1236.30701
5.3000,120.4267539,21.68222873,1236.021995
5.3050,121.0568064,21.17233531,1235.741203
5.3100,121.6885187,20.67164549,1235.464268
5.3150,122.3217356,20.18094766,1235.191535
5.3200,122.9552297,19.70020133,1234.923456
5.3250,123.5892602,19.23020366,1234.660115
5.3300,124.2231749,18.7710726,1234.401848
5.3350,124.8574312,18.32276375,1234.148414
5.3400,125.4922366,17.88645334,1233.900063
5.3450,126.128303,17.46229648,1233.656514
5.3500,126.7639996,17.04947915,1233.418078
5.3550,127.4005779,16.64846843,1233.184363
5.3600,128.0365359,16.25810644,1232.955526
5.3650,128.6710502,15.87865041,1232.731733
5.3700,129.3036913,15.5103511,1232.513211
5.3750,129.9345868,15.15391516,1232.299992
5.3800,130.56401,14.80951145,1232.09208
5.3850,131.1915932,14.47555668,1231.889127
5.3900,131.8166811,14.15242446,1231.691455
5.3950,132.4387166,13.83834083,1231.498873
5.4000,133.0579031,13.53237652,1231.311011
5.4050,133.6732778,13.23481358,1231.128285
5.4100,134.2860126,12.94585963,1230.950434
5.4150,134.8955205,12.66301255,1230.776998
5.4200,135.5016377,12.38488214,1230.607693
5.4250,136.1039971,12.11148779,1230.442644
5.4300,136.7009989,11.84091035,1230.281817
5.4350,137.2941948,11.57275367,1230.124598
5.4400,137.882548,11.30664309,1229.971168
5.4450,138.4647228,11.04152393,1229.82154
5.4500,139.0395735,10.77758652,1229.676117
5.4550,139.6075599,10.51357136,1229.534412
5.4600,140.1684997,10.2480793,1229.396272
5.4650,140.7213675,9.982266822,1229.262305
5.4700,141.2649436,9.71475556,1229.132573
5.4750,141.7998946,9.446696554,1229.007138
5.4800,142.3269494,9.176846382,1228.88555
5.4850,142.8456771,8.904295789,1228.767619
5.4900,143.3563596,8.629472341,1228.653394
5.4950,143.8594142,8.352778207,1228.542704
5.5000,144.3548809,8.073484134,1228.435416
5.5050,144.8434348,7.79319413,1228.331606
5.5100,145.3247074,7.511523266,1228.23115
5.5150,145.7993206,7.228921932,1228.133909
5.5200,146.2691971,6.9458178,1228.039339
5.5250,146.734776,6.662846388,1227.947452
5.5300,147.1961279,6.379912487,1227.85811
5.5350,147.6547369,6.096567094,1227.770882
5.5400,148.1113327,5.813371163,1227.685546
5.5450,148.5664567,5.529710084,1227.60178
5.5500,149.0187123,5.24476576,1227.519761
5.5550,149.4684035,4.95852079,1227.439308
5.5600,149.9151734,4.671576186,1227.360519
5.5650,150.3584559,4.383906696,1227.283472
5.5700,150.7990694,4.094945406,1227.207683
5.5750,151.2361424,3.805761031,1227.133459
5.5800,151.6695824,3.517113739,1227.060858
5.5850,152.0970743,3.228283967,1226.990257
5.5900,152.5181724,2.939849327,1226.921795
5.5950,152.9344341,2.653231349,1226.855274
5.6000,153.3453948,2.369415025,1226.791035
5.6050,153.750649,2.088364253,1226.729147
5.6100,154.1488218,1.809257227,1226.670004
5.6150,154.5386645,1.531457326,1226.613727
5.6200,154.920963,1.256313868,1226.56032
5.6250,155.2954571,0.9844970468,1226.509974
5.6300,155.6621086,0.7148086785,1226.462417
5.6350,156.0203735,0.4480168717,1226.418011
5.6400,156.3707569,0.1842457481,1226.376659
5.6450,156.7133413,-0.07633344819,1226.338243
5.6500,157.0487593,-0.3319703582,1226.302858
5.6550,157.3759683,-0.5817024632,1226.270798
5.6600,157.6958147,-0.8247828819,1226.241933
5.6650,158.0088572,-1.061116081,1226.216146
5.6700,158.3154572,-1.289649854,1226.19356
5.6750,158.6146865,-1.511692303,1226.174156
5.6800,158.9071163,-1.726371029,1226.158071
5.6850,159.1929786,-1.933326484,1226.145418
5.6900,159.4717407,-2.13291237,1226.136231
5.6950,159.7434537,-2.324345566,1226.130685
5.7000,160.0078067,-2.506927841,1226.129113
5.7050,160.2644497,-2.681061554,1226.131589
5.7100,160.5122669,-2.846753465,1226.138328
5.7150,160.7519979,-3.003716063,1226.149339
5.7200,160.9835137,-3.150897508,1226.164722
5.7250,161.2073516,-3.290269659,1226.184076
5.7300,161.4231895,-3.421025864,1226.207573
5.7350,161.6297335,-3.544245443,1226.235352
5.7400,161.8277064,-3.660722633,1226.267128
5.7450,162.0173898,-3.770965938,1226.302819
5.7500,162.199625,-3.875489222,1226.342051
5.7550,162.3743333,-3.974528716,1226.38482
5.7600,162.5419553,-4.068267115,1226.430871
5.7650,162.7033097,-4.157823612,1226.479814
5.7700,162.8587257,-4.242338843,1226.531616
5.7750,163.0078217,-4.324018028,1226.585964
5.7800,163.1505759,-4.40445322,1226.642533
5.7850,163.2871935,-4.481483514,1226.701613
5.7900,163.4180156,-4.555886897,1226.762857
5.7950,163.5436956,-4.628924892,1226.825974
5.8000,163.6653244,-4.701084433,1226.890473
5.8050,163.7827132,-4.773110474,1226.956248
5.8100,163.8979161,-4.844965871,1227.022986
5.8150,164.0106246,-4.918002593,1227.090502
5.8200,164.1223278,-4.992261823,1227.158442
5.8250,164.2324456,-5.069217152,1227.22666
5.8300,164.3418558,-5.148057661,1227.29514
5.8350,164.4505515,-5.228547832,1227.363784
5.8400,164.5605213,-5.311706544,1227.431895
5.8450,164.6722214,-5.396215301,1227.499613
5.8500,164.7882736,-5.4812822,1227.566287
5.8550,164.9083387,-5.567029682,1227.631989
5.8600,165.0327617,-5.653397875,1227.696569
5.8650,165.1627193,-5.740537484,1227.759736
5.8700,165.2982036,-5.827184649,1227.821597
5.8750,165.4395677,-5.915069608,1227.881854
5.8800,165.5857409,-6.004021258,1227.940732
5.8850,165.7392745,-6.092757174,1227.997926
5.8900,165.9009025,-6.182960256,1228.053075
5.8950,166.0690166,-6.27366178,1228.106688
5.9000,166.2429693,-6.36637758,1228.158726
5.9050,166.4220736,-6.461195899,1228.209448
5.9100,166.60607,-6.557642531,1228.258848
5.9150,166.7962256,-6.654115869,1228.306812
5.9200,166.9919629,-6.752319537,1228.353244
5.9250,167.1929975,-6.851874422,1228.398179
5.9300,167.3996794,-6.952266913,1228.441748
5.9350,167.6118801,-7.052326252,1228.484025
5.9400,167.8280704,-7.151533437,1228.525333
5.9450,168.047777,-7.250664141,1228.565879
5.9500,168.2705222,-7.348800373,1228.606068
5.9550,168.4957965,-7.447007975,1228.646111
5.9600,168.7232604,-7.544093156,1228.686313
5.9650,168.9522655,-7.639981144,1228.726892
5.9700,169.1810062,-7.734798082,1228.768318
5.9750,169.4090041,-7.827454263,1228.810896
5.9800,169.6351106,-7.918585744,1228.854698
5.9850,169.8583907,-8.007850436,1228.899958
5.9900,170.0781126,-8.094068065,1228.94698
5.9950,170.2944709,-8.17750107,1228.995678
6.0000,170.5063083,-8.257258481,1229.046355
6.0050,170.7129895,-8.333392479,1229.098982
6.0100,170.9150399,-8.405901395,1229.153445
6.0150,171.1112744,-8.47303589,1229.210113
6.0200,171.3004766,-8.536152607,1229.269184
6.0250,171.4810442,-8.594517024,1229.331032
6.0300,171.6533374,-8.648678776,1229.395512
6.0350,171.8175038,-8.698617485,1229.462522
6.0400,171.972692,-8.743970266,1229.532408
6.0450,172.1186839,-8.785384187,1229.605082
6.0500,172.2556383,-8.824383815,1229.680321
6.0550,172.3831449,-8.859607074,1229.758375
6.0600,172.5017604,-8.893626974,1229.838774
6.0650,172.6123976,-8.925961119,1229.921238
6.0700,172.7160509,-8.958140862,1230.005404
6.0750,172.8129585,-8.98984878,1230.09122
6.0800,172.9049653,-9.019459274,1230.178449
6.0850,172.9929172,-9.048532315,1230.266753
6.0900,173.07726,-9.076094593,1230.356185
6.0950,173.1580071,-9.101669162,1230.446816
6.1000,173.2350728,-9.124854475,1230.538874
6.1050,173.3101564,-9.145834567,1230.632006
6.1100,173.3828975,-9.165484364,1230.726151
6.1150,173.4538931,-9.183091466,1230.821494
6.1200,173.521806,-9.198643755,1230.918263
6.1250,173.587348,-9.21288525,1231.016306
6.1300,173.6505237,-9.226159863,1231.115665
6.1350,173.7112774,-9.238387353,1231.216493
6.1400,173.7680472,-9.249252693,1231.319108
6.1450,173.8213906,-9.259751576,1231.42324
6.1500,173.8701989,-9.270682199,1231.529007
6.1550,173.9154569,-9.281685623,1231.636093
6.1600,173.9576166,-9.292935644,1231.744272
6.1650,173.9952391,-9.305087526,1231.853634
6.1700,174.0300447,-9.319396594,1231.963647
6.1750,174.0625909,-9.334766229,1232.074154
6.1800,174.0935186,-9.352681247,1232.184762
6.1850,174.1229335,-9.373231004,1232.295266
6.1900,174.1518271,-9.396805289,1232.405301
6.1950,174.1801549,-9.423979517,1232.514814
6.2000,174.2082076,-9.455736083,1232.623526
6.2050,174.2356337,-9.493142378,1232.731351
6.2100,174.2624447,-9.537154082,1232.838131
6.2150,174.2881286,-9.589160323,1232.943835
6.2200,174.3104066,-9.648807934,1233.048946
6.2250,174.3286252,-9.716887926,1233.153572
6.2300,174.34108,-9.794241819,1233.257913
6.2350,174.3456524,-9.880766964,1233.362505
6.2400,174.3416965,-9.977560447,1233.467422
6.2450,174.3269978,-10.08333172,1233.573354
6.2500,174.2997766,-10.19911572,1233.680343
6.2550,174.2601041,-10.32313802,1233.788617
6.2600,174.2056483,-10.45587878,1233.898685
6.2650,174.1362755,-10.59685555,1234.010697
6.2700,174.0519327,-10.74408095,1234.124884
6.2750,173.9528211,-10.89903076,1234.240967
6.2800,173.8392299,-11.06007907,1234.359148
6.2850,173.7119124,-11.22618795,1234.479323
6.2900,173.5726922,-11.3981243,1234.600936
6.2950,173.4211094,-11.57454264,1234.724271
6.3000,173.2592772,-11.75637788,1234.848634
6.3050,173.0898306,-11.94254397,1234.973465
6.3100,172.9136164,-12.13278101,1235.09859
6.3150,172.7327493,-12.32772716,1235.223365
6.3200,172.5501278,-12.52696978,1235.34715
6.3250,172.36861,-12.7296327,1235.46926
6.3300,172.18965,-12.93609377,1235.589318
6.3350,172.0156307,-13.1450872,1235.706842
6.3400,171.8482331,-13.35653385,1235.821435
6.3450,171.688798,-13.57077946,1235.932746
6.3500,171.538236,-13.78581424,1236.040799
6.3550,171.3968733,-14.00365968,1236.145317
6.3600,171.2650316,-14.22228258,1236.246447
6.3650,171.1433118,-14.44169721,1236.344105
6.3700,171.0312659,-14.66143336,1236.438498
6.3750,170.9293258,-14.88135426,1236.529447
6.3800,170.8368569,-15.1009733,1236.61718
6.3850,170.7533278,-15.31979685,1236.701846
6.3900,170.6797569,-15.53815123,1236.783154
6.3950,170.6150189,-15.75612275,1236.861383
6.4000,170.559867,-15.97309658,1236.936494
6.4050,170.5132048,-16.18867413,1237.008758
6.4100,170.4747634,-16.40185637,1237.078281
6.4150,170.4450036,-16.61311268,1237.144974
6.4200,170.4245453,-16.82232237,1237.208697
6.4250,170.414425,-17.028337,1237.269273
6.4300,170.4145832,-17.23169405,1237.326729
6.4350,170.425103,-17.43280453,1237.380971
6.4400,170.4470841,-17.63097522,1237.431825
6.4450,170.480477,-17.82601207,1237.479211
6.4500,170.5254543,-18.01774234,1237.523164
6.4550,170.5820671,-18.20644632,1237.563787
6.4600,170.6506579,-18.39282996,1237.600817
6.4650,170.7315571,-18.57503843,1237.634535
6.4700,170.8243739,-18.75328456,1237.665022
6.4750,170.9272205,-18.92742299,1237.692756
6.4800,171.0410859,-19.09603399,1237.717599
6.4850,171.1638924,-19.25955654,1237.740148
6.4900,171.2948661,-19.41692925,1237.760744
6.4950,171.4332592,-19.56912647,1237.77951
6.5000,171.5791545,-19.71561343,1237.796454
6.5050,171.7309663,-19.85606916,1237.812021
6.5100,171.8878755,-19.99121237,1237.826305
6.5150,172.0478881,-20.12042261,1237.839829
6.5200,172.2112153,-20.24493471,1237.852451
6.5250,172.375833,-20.36524731,1237.864584
6.5300,172.5419466,-20.48069985,1237.87618
6.5350,172.7099635,-20.59208448,1237.887072
6.5400,172.8787971,-20.69992308,1237.897366
6.5450,173.0491571,-20.80500624,1237.906724
6.5500,173.2218227,-20.90715363,1237.9151
6.5550,173.3952098,-21.00686193,1237.922714
6.5600,173.5708326,-21.10530762,1237.929177
6.5650,173.7478827,-21.20089044,1237.934741
6.5700,173.9266675,-21.29582903,1237.939136
6.5750,174.1071846,-21.38833371,1237.942606
6.5800,174.2898259,-21.4780481,1237.945018
6.5850,174.4742607,-21.56611548,1237.946473
6.5900,174.65945,-21.65226723,1237.947213
6.5950,174.8462229,-21.73651816,1237.947138
6.6000,175.034182,-21.81789219,1237.946409
6.6050,175.2229473,-21.89736728,1237.945069
6.6100,175.4138223,-21.97527186,1237.942755
6.6150,175.6058974,-22.05160257,1237.939795
6.6200,175.7985163,-22.12576181,1237.936421
6.6250,175.9918856,-22.19715505,1237.932733
6.6300,176.1856442,-22.26609908,1237.928836
6.6350,176.3790162,-22.33356623,1237.924915
6.6400,176.5715892,-22.39934462,1237.921039
6.6450,176.7642839,-22.46315958,1237.917071
6.6500,176.9559414,-22.52538018,1237.913278
6.6550,177.1475643,-22.58617559,1237.90945
6.6600,177.3381993,-22.6453751,1237.905813
6.6650,177.5279469,-22.70307533,1237.902385
6.6700,177.7170044,-22.7594441,1237.899096
6.6750,177.9059057,-22.81458088,1237.895829
6.6800,178.0947363,-22.86765478,1237.892671
6.6850,178.2845916,-22.91973611,1237.889243
6.6900,178.4743351,-22.9695749,1237.885958
6.6950,178.6650159,-23.01783561,1237.88255
6.7000,178.8555523,-23.06388737,1237.879245
6.7050,179.0467636,-23.10754981,1237.875923
6.7100,179.2390845,-23.14881084,1237.872594
6.7150,179.4331521,-23.18811477,1237.868947
6.7200,179.6280579,-23.22533534,1237.865252
6.7250,179.8228499,-23.26046652,1237.86181
6.7300,180.0177191,-23.29387691,1237.858399
6.7350,180.2131313,-23.32620865,1237.854852
6.7400,180.4085704,-23.35812386,1237.851248
6.7450,180.6034855,-23.39041796,1237.847653
6.7500,180.7973759,-23.42386428,1237.844095
6.7550,180.9914263,-23.4585705,1237.840105
6.7600,181.1853374,-23.49429213,1237.835792
6.7650,181.3796073,-23.53310097,1237.830638
6.7700,181.5752169,-23.57504906,1237.824396
6.7750,181.7731151,-23.62061373,1237.816807
6.7800,181.9738067,-23.66974724,1237.8077
6.7850,182.1785844,-23.72381334,1237.796578
6.7900,182.3878283,-23.78357836,1237.783147
6.7950,182.6027592,-23.84820302,1237.767163
6.8000,182.8237858,-23.91835585,1237.748528
6.8050,183.051939,-23.99351993,1237.72695
6.8100,183.2873185,-24.07415498,1237.702342
6.8150,183.5298569,-24.16113382,1237.674733
6.8200,183.7792854,-24.25261594,1237.64423
6.8250,184.0362026,-24.34824559,1237.6108
6.8300,184.2995884,-24.44754168,1237.574794
6.8350,184.5671444,-24.55109653,1237.53659
6.8400,184.8386843,-24.65730294,1237.496486
6.8450,185.1121413,-24.76503164,1237.455077
6.8500,185.3862153,-24.87417498,1237.412712
6.8550,185.659823,-24.98452456,1237.36969
6.8600,185.9307813,-25.09349026,1237.326681
6.8650,186.198371,-25.20287552,1237.283791
6.8700,186.4603903,-25.31118859,1237.241707
6.8750,186.7156038,-25.41885031,1237.200619
6.8800,186.961397,-25.52653046,1237.161072
6.8850,187.1972987,-25.63333025,1237.123188
6.8900,187.4224683,-25.73841808,1237.087245
6.8950,187.6356725,-25.84265425,1237.053349
6.9000,187.8370326,-25.94539283,1237.021467
6.9050,188.0254653,-26.04619657,1236.991889
6.9100,188.1996379,-26.1450952,1236.964767
6.9150,188.3595018,-26.24221027,1236.940099
6.9200,188.5060041,-26.33753555,1236.917553
6.9250,188.6375777,-26.43281828,1236.897316
6.9300,188.7540399,-26.52672051,1236.879455
6.9350,188.8547205,-26.61940661,1236.864038
6.9400,188.9400355,-26.71108464,1236.850952
6.9450,189.0073825,-26.80158559,1236.840677
6.9500,189.0584997,-26.89139713,1236.832795
6.9550,189.0922291,-26.98021528,1236.827463
6.9600,189.1082907,-27.06810618,1236.824834
6.9650,189.1060299,-27.15573154,1236.824908
6.9700,189.0854612,-27.24216331,1236.827699
6.9750,189.046714,-27.32740591,1236.833215
6.9800,188.989875,-27.41302242,1236.841313
6.9850,188.9152644,-27.49699885,1236.8521
6.9900,188.8232397,-27.58142477,1236.865344
6.9950,188.7141544,-27.66541775,1236.881139
7.0000,188.5899758,-27.7499537,1236.89891
7.0050,188.4511483,-27.83524778,1236.918575
7.0100,188.2976852,-27.92202842,1236.940121
7.0150,188.1308667,-28.00960396,1236.963293
7.0200,187.9520505,-28.09865142,1236.987763
7.0250,187.7651835,-28.18879581,1237.012728
7.0300,187.5703428,-28.28147954,1237.038106
7.0350,187.3701832,-28.37638558,1237.063294
7.0400,187.1662234,-28.47237212,1237.088033
7.0450,186.9611758,-28.57219147,1237.111486
7.0500,186.7575589,-28.67416981,1237.133158
7.0550,186.5570034,-28.78013029,1237.152537
7.0600,186.3621351,-28.8898364,1237.169053
7.0650,186.1759835,-29.00351557,1237.182084
7.0700,185.9985728,-29.12056535,1237.191546
7.0750,185.8326775,-29.24164223,1237.196696
7.0800,185.6790597,-29.36808008,1237.197248
7.0850,185.5390296,-29.4981482,1237.192988
7.0900,185.4132524,-29.6321923,1237.183795
7.0950,185.303177,-29.77094033,1237.169212
7.1000,185.2083194,-29.91422569,1237.149269
7.1050,185.1306417,-30.06318885,1237.123458
7.1100,185.06884,-30.21606418,1237.092164
7.1150,185.0244186,-30.37280778,1237.054954
7.1200,184.9963662,-30.53448886,1237.01199
7.1250,184.9854761,-30.70036036,1236.963137
7.1300,184.9900649,-30.87028375,1236.90871
7.1350,185.0094256,-31.04288118,1236.849008
7.1400,185.0421026,-31.21912029,1236.784325
7.1450,185.0863713,-31.39849508,1236.715036
7.1500,185.1399285,-31.57984395,1236.641774
7.1550,185.2012292,-31.76293053,1236.564947
7.1600,185.2690663,-31.94692001,1236.484843
7.1650,185.3409391,-32.13059267,1236.402083
7.1700,185.4153007,-32.31464975,1236.316884
7.1750,185.4910963,-32.49686378,1236.229763
7.1800,185.5660995,-32.67612162,1236.141281
7.1850,185.6386362,-32.85235843,1236.051797
7.1900,185.7073905,-33.02456065,1235.961771
7.1950,185.7709391,-33.19126029,1235.87162
7.2000,185.8276779,-33.35316406,1235.781694
7.2050,185.8767503,-33.50944363,1235.692179
7.2100,185.9184394,-33.6593882,1235.603054
7.2150,185.9525619,-33.80185531,1235.514371
7.2200,185.9773504,-33.93793273,1235.426472
7.2250,185.9942162,-34.06606362,1235.339081
7.2300,186.0029764,-34.18743099,1235.25205
7.2350,186.0051794,-34.30113903,1235.165154
7.2400,186.0009647,-34.40796564,1235.078182
7.2450,185.9912341,-34.508124,1234.990859
7.2500,185.9759712,-34.60249496,1234.90311
7.2550,185.9551592,-34.69090094,1234.814935
7.2600,185.9300642,-34.77361405,1234.725992
7.2650,185.9008311,-34.85045575,1234.636185
7.2700,185.8680255,-34.9216968,1234.545426
7.2750,185.8310523,-34.98714626,1234.453896
7.2800,185.7890451,-35.04657129,1234.361745
7.2850,185.7418253,-35.10119621,1234.269066
7.2900,185.6892403,-35.15008046,1234.176047
7.2950,185.6311385,-35.19274512,1234.082722
7.3000,185.5666957,-35.22820531,1233.989385
7.3050,185.4942004,-35.25699759,1233.896546
7.3100,185.4145013,-35.27785112,1233.804115
7.3150,185.3273195,-35.29159237,1233.712258
7.3200,185.2324555,-35.29694879,1233.621165
7.3250,185.1268993,-35.29532422,1233.531471
7.3300,185.0133985,-35.28472367,1233.442729
7.3350,184.8896194,-35.26611044,1233.355436
7.3400,184.7567652,-35.24123139,1233.269314
7.3450,184.6147545,-35.2079542,1233.184624
7.3500,184.4639791,-35.16817495,1233.101239
7.3550,184.3051478,-35.12127986,1233.01908
7.3600,184.1387489,-35.06775715,1232.938131
7.3650,183.9642352,-35.00818759,1232.858522
7.3700,183.7831668,-34.94356578,1232.779959
7.3750,183.5959602,-34.87405328,1232.702348
7.3800,183.4033169,-34.79975029,1232.625612
7.3850,183.2072647,-34.72165561,1232.549264
7.3900,183.0085928,-34.63943069,1232.473124
7.3950,182.8072789,-34.55386553,1232.397254
7.4000,182.6045475,-34.46460589,1232.321454
7.4050,182.4011136,-34.3713517,1232.245662
7.4100,182.1981512,-34.27635291,1232.169556
7.4150,181.9950695,-34.17898849,1232.093342
7.4200,181.7927572,-34.07905763,1232.016912
7.4250,181.5899214,-33.97759619,1231.940482
7.4300,181.387247,-33.87500014,1231.863932
7.4350,181.185466,-33.77168487,1231.787082
7.4400,180.9863795,-33.66754179,1231.709536
7.4450,180.790295,-33.56310447,1231.631179
7.4500,180.5988128,-33.45834693,1231.551578
7.4550,180.4122075,-33.35338896,1231.470669
7.4600,180.2308441,-33.25041322,1231.388232
7.4650,180.0561726,-33.1494645,1231.303861
7.4700,179.8896175,-33.05006151,1231.217285
7.4750,179.7307685,-32.95390057,1231.128435
7.4800,179.5820826,-32.86132772,1231.03675
7.4850,179.4446573,-32.77166248,1230.941946
7.4900,179.3183995,-32.6872844,1230.843855
7.4950,179.2040955,-32.60786272,1230.742308
7.5000,179.1029842,-32.53330692,1230.637037
7.5050,179.0153273,-32.46251237,1230.528167
7.5100,178.9412677,-32.3957125,1230.415763
7.5150,178.8813794,-32.33342316,1230.299673
7.5200,178.8355815,-32.2746621,1230.180164
7.5250,178.8035522,-32.21879802,1230.057301
7.5300,178.7843243,-32.16523227,1229.931487
7.5350,178.7768481,-32.11379318,1229.802921
7.5400,178.7803888,-32.0638107,1229.672009
7.5450,178.793892,-32.0141239,1229.539093
7.5500,178.8163565,-31.96357429,1229.40451
7.5550,178.8468354,-31.91208691,1229.268425
7.5600,178.8835361,-31.85915285,1229.131284
7.5650,178.9253997,-31.80429473,1228.99345
7.5700,178.9706298,-31.7471264,1228.855305
7.5750,179.0189347,-31.68617781,1228.717095
7.5800,179.0688569,-31.62219672,1228.579148
7.5850,179.1191415,-31.55443638,1228.441727
7.5900,179.1677071,-31.48084751,1228.305428
7.5950,179.2151455,-31.40211997,1228.170127
7.6000,179.2597095,-31.31881411,1228.036298
7.6050,179.3018405,-31.2306703,1227.903817
7.6100,179.3398831,-31.13777558,1227.773062
7.6150,179.3721918,-31.04070449,1227.644316
7.6200,179.3977425,-30.93954589,1227.517953
7.6250,179.4171705,-30.83417362,1227.393734
7.6300,179.4289902,-30.7247554,1227.271981
7.6350,179.4333077,-30.61028436,1227.152796
7.6400,179.4301848,-30.48976976,1227.036336
7.6450,179.4197958,-30.36430371,1226.922431
7.6500,179.4018239,-30.23296906,1226.811177
7.6550,179.3760196,-30.0954758,1226.702761
7.6600,179.3425171,-29.95239111,1226.597001
7.6650,179.3014775,-29.80276048,1226.493861
7.6700,179.2527377,-29.64663553,1226.393347
7.6750,179.1966307,-29.48446935,1226.295358
7.6800,179.133361,-29.31518954,1226.199996
7.6850,179.0623667,-29.13941429,1226.107413
7.6900,178.9839249,-28.95648282,1226.017611
7.6950,178.8991776,-28.76714986,1225.930308
7.7000,178.8077055,-28.57238466,1225.845758
7.7050,178.7085592,-28.371176,1225.764223
7.7100,178.6013181,-28.1629938,1225.685988
7.7150,178.4877013,-27.94853127,1225.610622
7.7200,178.3676866,-27.72772315,1225.538199
7.7250,178.244079,-27.50022043,1225.468234
7.7300,178.1165242,-27.2661379,1225.400755
7.7350,177.9867414,-27.0258893,1225.335544
7.7400,177.8539479,-26.78031149,1225.272713
7.7450,177.7193153,-26.52898574,1225.211975
7.7500,177.5826409,-26.2737976,1225.153257
7.7550,177.444811,-26.01498303,1225.09631
7.7600,177.3060234,-25.75238442,1225.041089
7.7650,177.1684816,-25.48655913,1224.987141
7.7700,177.0322568,-25.21686715,1224.934254
7.7750,176.8986364,-24.94408962,1224.881994
7.7800,176.7681045,-24.66864053,1224.83015
7.7850,176.6411659,-24.39100695,1224.778502
7.7900,176.5179786,-24.11072566,1224.726884
7.7950,176.3990801,-23.82881042,1224.675021
7.8000,176.284088,-23.54596458,1224.622924
7.8050,176.1730076,-23.26381082,1224.570342
7.8100,176.0648812,-22.98253841,1224.517302
7.8150,175.9585391,-22.70242197,1224.464037
7.8200,175.8542484,-22.42332202,1224.410365
7.8250,175.7514316,-22.1467709,1224.356349
7.8300,175.6508838,-21.87244362,1224.301753
7.8350,175.5510364,-21.60091045,1224.246844
7.8400,175.4510403,-21.3319631,1224.191795
7.8450,175.3518687,-21.06607346,1224.136387
7.8500,175.251102,-20.80260157,1224.081144
7.8550,175.150657,-20.54267196,1224.025607
7.8600,175.0491894,-20.28587954,1223.970043
7.8650,174.9456867,-20.03217545,1223.914647
7.8700,174.8399638,-19.78234197,1223.859401
7.8750,174.7313344,-19.53663351,1223.804296
7.8800,174.6188684,-19.29424791,1223.749604
7.8850,174.5023397,-19.05419452,1223.695414
7.8900,174.3822649,-18.81832426,1223.641436
7.8950,174.257437,-18.5856596,1223.587974
7.9000,174.1275852,-18.35448644,1223.535285
7.9050,173.9934605,-18.1228599,1223.483377
7.9100,173.8547775,-17.89159039,1223.432226
7.9150,173.7117402,-17.65786298,1223.38225
7.9200,173.5653812,-17.42227047,1223.333136
7.9250,173.4145821,-17.18288392,1223.285437
7.9300,173.2592235,-16.94074831,1223.239106
7.9350,173.0997271,-16.69534174,1223.194136
7.9400,172.9344836,-16.44768049,1223.150739
7.9450,172.7634006,-16.19605793,1223.10919
7.9500,172.5858926,-15.94151575,1223.069464
7.9550,172.4026111,-15.68392468,1223.03143
7.9600,172.2126963,-15.42300818,1222.99534
7.9650,172.016856,-15.15830896,1222.961125
7.9700,171.8152696,-14.89003881,1222.928753
7.9750,171.6079313,-14.61745514,1222.89832
7.9800,171.3961171,-14.34168032,1222.869404
7.9850,171.1801216,-14.06199596,1222.841985
7.9900,170.9593773,-13.78004171,1222.816027
7.9950,170.7325378,-13.49492857,1222.791908
8.0000,170.4998093,-13.2064855,1222.769523
8.0050,170.2621947,-12.91593001,1222.748549
8.0100,170.019587,-12.62253013,1222.729172
8.0150,169.7718856,-12.32658079,1222.711517
8.0200,169.5185899,-12.02835661,1222.69567
8.0250,169.2581061,-11.72880283,1222.681989
8.0300,168.9921738,-11.42710304,1222.670236
8.0350,168.7189104,-11.12412529,1222.660676
8.0400,168.4382082,-10.81885427,1222.653557
8.0450,168.1502982,-10.51228288,1222.648799
8.0500,167.8565594,-10.20312347,1222.64638
8.0550,167.557413,-9.891212269,1222.64623
8.0600,167.2534072,-9.575460027,1222.64849
8.0650,166.9434213,-9.254968094,1222.653415
8.0700,166.6285167,-8.931093231,1222.660733
8.0750,166.3089551,-8.603715418,1222.67043
8.0800,165.9840164,-8.27237413,1222.682684
8.0850,165.6542124,-7.937886733,1222.697315
8.0900,165.3206036,-7.598859356,1222.714291
8.0950,164.983647,-7.257147016,1222.733303
8.1000,164.6439187,-6.910928277,1222.75461
8.1050,164.3023548,-6.560792011,1222.777751
8.1100,163.9585149,-6.206239451,1222.803039
8.1150,163.61346,-5.847394602,1222.830242
8.1200,163.2677385,-5.484033596,1222.859317
8.1250,162.9211258,-5.115158667,1222.890495
8.1300,162.5725914,-4.740458116,1222.924177
8.1350,162.2222003,-4.359838618,1222.960491
8.1400,161.8706799,-3.973148443,1222.999301
8.1450,161.515399,-3.581421361,1223.041065
8.1500,161.1577659,-3.185383782,1223.085353
8.1550,160.7954348,-2.784491342,1223.13284
8.1600,160.4288292,-2.380139446,1223.183213
8.1650,160.0583954,-1.972147564,1223.236418
8.1700,159.6843199,-1.560907682,1223.29235
8.1750,159.3053956,-1.145442094,1223.351484
8.1800,158.9231979,-0.7258061885,1223.413505
8.1850,158.5366491,-0.3014111026,1223.478923
8.1900,158.1454109,0.1284933396,1223.547992
8.1950,157.7492039,0.5636158185,1223.620865
8.2000,157.3495643,1.00309789,1223.697046
8.2050,156.9448545,1.447906535,1223.777163
8.2100,156.5363955,1.898563616,1223.861092
8.2150,156.1226274,2.353369765,1223.948983
8.2200,155.7025732,2.811912862,1224.040964
8.2250,155.2766469,3.273898225,1224.136896
8.2300,154.8443288,3.739693051,1224.237157
8.2350,154.4051359,4.208304022,1224.341655
8.2400,153.9588927,4.680230456,1224.450478
8.2450,153.5043052,5.154753774,1224.563681
8.2500,153.0423736,5.632428182,1224.681298
8.2550,152.5700826,6.11252399,1224.803908
8.2600,152.0879732,6.594358565,1224.931272
8.2650,151.5955113,7.075513058,1225.062953
8.2700,151.091065,7.556249161,1225.199405
8.2750,150.5749463,8.034967888,1225.340333
8.2800,150.0473913,8.51162141,1225.485598
8.2850,149.5074387,8.985714911,1225.63546
8.2900,148.9566083,9.456714434,1225.789556
8.2950,148.3956139,9.923446353,1225.947528
8.3000,147.8259261,10.38594227,1226.109029
8.3050,147.24834,10.84311751,1226.273704
8.3100,146.6652987,11.29434128,1226.440867
8.3150,146.0771386,11.73966109,1226.610523
8.3200,145.4865299,12.17807673,1226.781887
8.3250,144.8951522,12.60995159,1226.954755
8.3300,144.3043028,13.03455568,1227.12875
8.3350,143.7163799,13.45137852,1227.303214
8.3400,143.1331337,13.86028917,1227.47773
8.3450,142.5575304,14.26248703,1227.651871
8.3500,141.9902924,14.65724238,1227.825188
8.3550,141.4327599,15.04343287,1227.997076
8.3600,140.8866756,15.42173969,1228.167129
8.3650,140.3540683,15.79089677,1228.334432
8.3700,139.8342888,16.15130642,1228.499103
8.3750,139.3278342,16.50255258,1228.660792
8.3800,138.8356474,16.84402272,1228.818865
8.3850,138.3576923,17.17697087,1228.973492
8.3900,137.8936531,17.50117762,1229.124506
8.3950,137.4441296,17.81864812,1229.27198
8.4000,137.0081537,18.12913244,1229.415889
8.4050,136.585548,18.43347599,1229.556354
8.4100,136.1757044,18.7319759,1229.693349
8.4150,135.7781732,19.0270283,1229.827478
8.4200,135.3925799,19.31884468,1229.958746
8.4250,135.0188604,19.60730149,1230.0871
8.4300,134.6569389,19.89159893,1230.212267
8.4350,134.3055308,20.17216491,1230.334554
8.4400,133.9630822,20.44837764,1230.454244
8.4450,133.6304582,20.72087762,1230.571197
8.4500,133.3059228,20.98928448,1230.685825
8.4550,132.9888095,21.25398296,1230.798408
8.4600,132.6777102,21.51457161,1230.909259
8.4650,132.3709045,21.77179816,1231.019102
8.4700,132.0679286,22.02664308,1231.128304
8.4750,131.7679877,22.27760751,1231.236771
8.4800,131.471076,22.52757258,1231.345152
8.4850,131.1766526,22.77490761,1231.453211
8.4900,130.8831854,23.02079175,1231.561644
8.4950,130.5897631,23.2657952,1231.670822
8.5000,130.2936623,23.51012499,1231.781567
8.5050,129.9950194,23.7525254,1231.893594
8.5100,129.6910713,23.9949703,1232.008137
8.5150,129.3817215,24.23902621,1232.125569
8.5200,129.067001,24.48559252,1232.24607
8.5250,128.7449694,24.73497227,1232.370324
8.5300,128.414491,24.98815104,1232.498823
8.5350,128.0742153,25.24629397,1232.632308
8.5400,127.7233942,25.51057198,1232.771417
8.5450,127.3624513,25.78219027,1232.916458
8.5500,126.9901799,26.06106949,1233.067841
8.5550,126.607018,26.34854912,1233.225855
8.5600,126.2121086,26.64412219,1233.390641
8.5650,125.8061577,26.94917704,1233.562596
8.5700,125.3894436,27.26292196,1233.741512
8.5750,124.9616556,27.58673762,1233.927957
8.5800,124.5209946,27.91862476,1234.122071
8.5850,124.0685243,28.25660962,1234.32299
8.5900,123.6033259,28.60081437,1234.531097
8.5950,123.1263565,28.95051556,1234.746033
8.6000,122.637237,29.30421612,1234.967574
8.6050,122.1357745,29.66159952,1235.195768
8.6100,121.6220505,30.02181091,1235.43048
8.6150,121.0964489,30.38362002,1235.671335
8.6200,120.5598765,30.74642507,1235.91792
8.6250,120.0129411,31.10941202,1236.16986
8.6300,119.4548507,31.47172925,1236.427277
8.6350,118.8866886,31.83487008,1236.690305
8.6400,118.309417,32.19782636,1236.958382
8.6450,117.7212891,32.5591489,1237.231653
8.6500,117.1233195,32.91819904,1237.509714
8.6550,116.5157677,33.27618713,1237.792835
8.6600,115.8987719,33.63150534,1238.080499
8.6650,115.2732873,33.98498016,1238.372667
8.6700,114.6410159,34.33747021,1238.669065
8.6750,114.0032044,34.69066689,1238.969808
8.6800,113.3612079,35.04572026,1239.274812
8.6850,112.7149372,35.40205704,1239.583969
8.6900,112.0671112,35.759566,1239.896448
8.6950,111.4165965,36.11953202,1240.213089
8.7000,110.7663392,36.48191554,1240.532934
8.7050,110.1155946,36.84680371,1240.856326
8.7100,109.4664243,37.2145482,1241.182708
8.7150,108.8189569,37.58337013,1241.511462
8.7200,108.1731227,37.95301482,1241.842623
8.7250,107.5300807,38.32381087,1242.175817
8.7300,106.889888,38.69626206,1242.511146
8.7350,106.2548238,39.06989632,1242.847605
8.7400,105.6239693,39.44290965,1243.184914
8.7450,104.9985538,39.81653869,1243.522969
8.7500,104.379271,40.19186074,1243.861802
8.7550,103.7656328,40.56747414,1244.201119
8.7600,103.1585733,40.94399446,1244.540735
8.7650,102.5580162,41.32072511,1244.880434
8.7700,101.9642135,41.69704295,1245.219992
8.7750,101.3774986,42.07388399,1245.559525
8.7800,100.7965109,42.44989129,1245.899109
8.7850,100.2219353,42.82501582,1246.238329
8.7900,99.65508273,43.1984804,1246.576423
8.7950,99.09537475,43.57109781,1246.913833
8.8000,98.5433725,43.94298297,1247.250334
8.8050,97.99851113,44.31376468,1247.585854
8.8100,97.46202025,44.68249573,1247.919598
8.8150,96.9340022,45.04946255,1248.251498
8.8200,96.41312561,45.41578204,1248.582438
8.8250,95.90043832,45.78119586,1248.911891
8.8300,95.39713588,46.14731606,1249.239858
8.8350,94.90277448,46.51269624,1249.566044
8.8400,94.41724168,46.87717036,1249.890285
8.8450,93.94023682,47.24012039,1250.212517
8.8500,93.47218281,47.60130591,1250.532331
8.8550,93.01331575,47.95967122,1250.849292
8.8600,92.56281459,48.31551103,1251.163766
8.8650,92.12094791,48.66900556,1251.475553
8.8700,91.68750848,49.02020558,1251.78467
8.8750,91.26325242,49.36747025,1252.090191
8.8800,90.84789688,49.711942,1252.392544
8.8850,90.43992083,50.05352595,1252.692259
8.8900,90.04028841,50.39263175,1252.98905
8.8950,89.64773538,50.72941932,1253.283349
8.9000,89.26227044,51.06326087,1253.574947
8.9050,88.88370201,51.39463753,1253.864016
8.9100,88.50986741,51.72213509,1254.150743
8.9150,88.1413102,52.04661763,1254.435264
8.9200,87.77669409,52.36910577,1254.718508
8.9250,87.41459854,52.6893338,1255.000907
8.9300,87.05595691,53.00862155,1255.28249
8.9350,86.7012753,53.32486078,1255.562236
8.9400,86.35027972,53.63980604,1255.840846
8.9450,86.00450703,53.95433872,1256.118042
8.9500,85.66305293,54.2687741,1256.394324
8.9550,85.32591799,54.58272681,1256.669494
8.9600,84.99313318,54.89577672,1256.943444
8.9650,84.66320002,55.20835526,1257.216955
8.9700,84.33577133,55.51887805,1257.489613
8.9750,84.01147794,55.82811669,1257.761428
8.9800,83.68936848,56.13517785,1258.032481
8.9850,83.36928617,56.43909825,1258.302494
8.9900,83.05060509,56.74035886,1258.571871
8.9950,82.73399398,57.03832539,1258.839988
9.0000,82.41866345,57.3326934,1259.10707
9.0050,82.10519965,57.62278539,1259.372542
9.0100,81.79317302,57.90837152,1259.636511
9.0150,81.48263787,58.1904441,1259.899283
9.0200,81.17253804,58.46772302,1260.160813
9.0250,80.86164361,58.74104856,1260.421991
9.0300,80.54914925,59.01025757,1260.683171
9.0350,80.23378337,59.27434013,1260.944531
9.0400,79.91619436,59.53451683,1261.206262
9.0450,79.59568922,59.78935165,1261.468101
9.0500,79.27120579,60.0386177,1261.730449
9.0550,78.9431046,60.28272497,1261.993261
9.0600,78.61085906,60.52319458,1262.257397
9.0650,78.27435865,60.75995945,1262.522885
9.0700,77.93228916,60.99416155,1262.790681
9.0750,77.58600571,61.22641094,1263.060367
9.0800,77.23575629,61.45668513,1263.331855
9.0850,76.88114886,61.68681829,1263.60605
9.0900,76.52222838,61.91726746,1263.883139
9.0950,76.15885781,62.14739532,1264.162815
9.1000,75.79222638,62.37797064,1264.444921
9.1050,75.42184895,62.61101489,1264.730514
9.1100,75.04943468,62.84711099,1265.019075
9.1150,74.67538435,63.08720463,1265.310866
9.1200,74.30032097,63.3306391,1265.605341
9.1250,73.92644617,63.57926213,1265.902242
9.1300,73.55339917,63.83192331,1266.201334
9.1350,73.18383555,64.09031595,1266.501991
9.1400,72.81816821,64.35354597,1266.803748
9.1450,72.45634732,64.62226337,1267.106831
9.1500,72.09978493,64.8969584,1267.41085
9.1550,71.74851456,65.17727256,1267.715658
9.1600,71.40386959,65.46352068,1268.020777
9.1650,71.06606346,65.75521112,1268.325942
9.1700,70.73627591,66.05238722,1268.630627
9.1750,70.41487089,66.35382359,1268.934136
9.1800,70.10159601,66.65830576,1269.236024
9.1850,69.79814195,66.96559545,1269.5354
9.1900,69.50299473,67.27376305,1269.832112
9.1950,69.21520142,67.5811411,1270.125967
9.2000,68.93478184,67.88693627,1270.416543
9.2050,68.66113243,68.18937751,1270.703383
9.2100,68.3951923,68.48969416,1270.986592
9.2150,68.13595237,68.78489305,1271.265258
9.2200,67.88362722,69.07428938,1271.538881
9.2250,67.63901525,69.35681395,1271.806584
9.2300,67.40052146,69.63002581,1272.068017
9.2350,67.1671517,69.89467254,1272.323932
9.2400,66.93761625,70.14875487,1272.574058
9.2450,66.71078772,70.38981569,1272.817776
9.2500,66.48640751,70.61836469,1273.055347
9.2550,66.26489033,70.83476866,1273.286766
9.2600,66.04595856,71.03803106,1273.511611
9.2650,65.83049789,71.22852413,1273.729592
9.2700,65.61917508,71.40635424,1273.940345
9.2750,65.41055332,71.5717064,1274.144591
9.2800,65.20541339,71.72423848,1274.34185
9.2850,65.00402325,71.86553054,1274.532594
9.2900,64.80481903,71.99583208,1274.717763
9.2950,64.60929633,72.11640731,1274.897189
9.3000,64.41637235,72.22749191,1275.071438
9.3050,64.22608275,72.33086867,1275.241362
9.3100,64.03871324,72.426873,1275.406886
9.3150,63.85330968,72.51479006,1275.568193
9.3200,63.67039052,72.59771568,1275.726345
9.3250,63.48899633,72.67376051,1275.880955
9.3300,63.30980827,72.7440651,1276.032098
9.3350,63.13191051,72.80961192,1276.180632
9.3400,62.95601168,72.87193714,1276.326884
9.3450,62.78020125,72.93257042,1276.472467
9.3500,62.6046295,72.99142321,1276.617201
9.3550,62.42891587,73.04999276,1276.762023
9.3600,62.25261543,73.1083395,1276.907139
9.3650,62.0758757,73.16671994,1277.052558
9.3700,61.89898455,73.22484756,1277.197938
9.3750,61.71945879,73.28227701,1277.344431
9.3800,61.53756712,73.33896715,1277.491858
9.3850,61.35294513,73.39620717,1277.641032
9.3900,61.1648958,73.45455339,1277.792602
9.3950,60.97500952,73.51461834,1277.946077
9.4000,60.78252131,73.57888903,1278.102926
9.4050,60.58944934,73.64715908,1278.262005
9.4100,60.39353243,73.71986428,1278.424656
9.4150,60.19538094,73.79759443,1278.590863
9.4200,59.99630907,73.88151859,1278.76042
9.4250,59.79437245,73.97123029,1278.934141
9.4300,59.58894983,74.067454,1279.112693
9.4350,59.38009433,74.17046462,1279.296235
9.4400,59.16853163,74.28112731,1279.48472
9.4450,58.95462086,74.39893153,1279.677836
9.4500,58.73823046,74.52497684,1279.876158
9.4550,58.5212905,74.65927934,1280.078675
9.4600,58.30401036,74.80082855,1280.284897
9.4650,58.08711158,74.94989167,1280.494503
9.4700,57.8701445,75.10494087,1280.707062
9.4750,57.6521303,75.26715041,1280.923641
9.4800,57.43462583,75.43425323,1281.142374
9.4850,57.21701933,75.60534147,1281.363204
9.4900,56.99958566,75.77954923,1281.585547
9.4950,56.78432185,75.95604829,1281.807926
9.5000,56.57165012,76.13455974,1282.029976
9.5050,56.36195968,76.31315036,1282.250535
9.5100,56.15513211,76.48991943,1282.468788
9.5150,55.95056222,76.66452186,1282.684842
9.5200,55.74936183,76.83607194,1282.897698
9.5250,55.55069591,77.00348911,1283.107339
9.5300,55.35713645,77.16751698,1283.312732
9.5350,55.16768666,77.32579804,1283.513284
9.5400,54.98367457,77.47778793,1283.707935
9.5450,54.80546427,77.62393103,1283.896679
9.5500,54.63400245,77.76314909,1284.078457
9.5550,54.46901916,77.8940493,1284.252706
9.5600,54.3107603,78.01718805,1284.419575
9.5650,54.15980259,78.13244443,1284.578705
9.5700,54.01629473,78.24024316,1284.730229
9.5750,53.87985637,78.33811483,1284.873169
9.5800,53.75173849,78.42756336,1285.007497
9.5850,53.63209003,78.50847919,1285.133044
9.5900,53.52164715,78.58114801,1285.249502
9.5950,53.41961754,78.64460269,1285.356852
9.6000,53.32528136,78.69913752,1285.455629
9.6050,53.23897302,78.74487691,1285.545685
9.6100,53.15941042,78.7822355,1285.627875
9.6150,53.0865929,78.81193728,1285.702536
9.6200,53.01833957,78.8321479,1285.769895
9.6250,52.954909,78.84445479,1285.830501
9.6300,52.89383009,78.8478618,1285.885266
9.6350,52.83472686,78.84309356,1285.934658
9.6400,52.77536436,78.83038161,1285.980012
9.6450,52.71582875,78.80871142,1286.020768
9.6500,52.65483201,78.77972665,1286.058454
9.6550,52.59097596,78.74371596,1286.093922
9.6600,52.52487742,78.70191337,1286.127429
9.6650,52.45670278,78.65584022,1286.159602
9.6700,52.38594796,78.60709554,1286.191577
9.6750,52.31339356,78.55759019,1286.223776
9.6800,52.23775786,78.50914075,1286.257714
9.6850,52.15987962,78.46222199,1286.293212
9.6900,52.07998998,78.41794021,1286.330649
9.6950,51.99755565,78.37803091,1286.371195
9.7000,51.91372711,78.34238867,1286.414163
9.7050,51.82698691,78.31127148,1286.460623
9.7100,51.73941649,78.28725432,1286.510627
9.7150,51.65194447,78.27027213,1286.563601
9.7200,51.56321373,78.26121132,1286.620792
9.7250,51.47427554,78.25961095,1286.681473
9.7300,51.38605909,78.26699022,1286.745801
9.7350,51.29906046,78.28328534,1286.813513
9.7400,51.21250196,78.30758296,1286.884655
9.7450,51.12808969,78.34083831,1286.958707
9.7500,51.04462629,78.38130191,1287.035477
9.7550,50.96226763,78.42919809,1287.114979
9.7600,50.8813123,78.48264507,1287.196125
9.7650,50.80046205,78.54083878,1287.279377
9.7700,50.72097323,78.60250717,1287.36334
9.7750,50.64211846,78.66569752,1287.447489
9.7800,50.56393301,78.72955358,1287.531413
9.7850,50.48528253,78.79174938,1287.614591
9.7900,50.40684911,78.85173207,1287.696432
9.7950,50.32809115,78.9076173,1287.776354
9.8000,50.24843914,78.95810104,1287.854036
9.8050,50.16694551,79.00278585,1287.929812
9.8100,50.08472206,79.03988647,1288.002206
9.8150,50.00116799,79.06839219,1288.071108
9.8200,49.91599861,79.08788113,1288.136501
9.8250,49.82952273,79.09758211,1288.197709
9.8300,49.74045219,79.096654,1288.25508
9.8350,49.65003759,79.0854812,1288.308093
9.8400,49.55695018,79.06364275,1288.357283
9.8450,49.46174557,79.03090936,1288.402183
9.8500,49.36434247,78.9882817,1288.443349
9.8550,49.2658283,78.93590827,1288.480177
9.8600,49.1675429,78.87534161,1288.512643
9.8650,49.06757833,78.80584955,1288.541418
9.8700,48.96720648,78.72831264,1288.566163
9.8750,48.86780609,78.64527922,1288.587329
9.8800,48.76801266,78.55618524,1288.605346
9.8850,48.66954912,78.46240634,1288.619928
9.8900,48.57333126,78.36462518,1288.630885
9.8950,48.47864686,78.26329432,1288.638766
9.9000,48.38660376,78.15942042,1288.64338
9.9050,48.29695654,78.05339393,1288.645018
9.9100,48.21030926,77.94598115,1288.643714
9.9150,48.12758574,77.83827496,1288.639363
9.9200,48.04927373,77.73098659,1288.632095
9.9250,47.97558265,77.62569718,1288.622525
9.9300,47.90660444,77.52178219,1288.61023
9.9350,47.8423414,77.42056913,1288.595942
9.9400,47.78267384,77.32147702,1288.579355
9.9450,47.72713411,77.2252004,1288.561139
9.9500,47.67662386,77.13202798,1288.54088
9.9550,47.63100543,77.04215542,1288.518747
9.9600,47.58948953,76.95493648,1288.494806
9.9650,47.55153313,76.87007662,1288.469281
9.9700,47.51692809,76.78772434,1288.442354
9.9750,47.48500733,76.70673171,1288.413896
9.9800,47.45699917,76.62706063,1288.383259
9.9850,47.43189176,76.54885478,1288.351078
9.9900,47.40970355,76.47074453,1288.316705
9.9950,47.3904428,76.39280351,1288.280249
10.0000,47.37332707,76.31402062,1288.241738
10.0050,47.35881628,76.23432424,1288.200841
10.0100,47.34618554,76.15233574,1288.157414
10.0150,47.33479697,76.06649899,1288.111145
10.0200,47.32548724,75.97664939,1288.061487
10.0250,47.31841293,75.88361525,1288.008703
10.0300,47.31309571,75.78585746,1287.952498
10.0350,47.30906251,75.6823,1287.892638
10.0400,47.30735101,75.57437387,1287.82926
10.0450,47.30663294,75.45944277,1287.761894
10.0500,47.30763122,75.33745965,1287.690151
10.0550,47.30860523,75.20781796,1287.614807
10.0600,47.30977743,75.07085207,1287.535929
10.0650,47.31114953,74.92570538,1287.45308
10.0700,47.31218482,74.77277644,1287.366901
10.0750,47.31320626,74.6111572,1287.276749
10.0800,47.31297944,74.44141878,1287.183677
10.0850,47.3128394,74.26512307,1287.087676
10.0900,47.3124419,74.08099255,1286.988346
10.0950,47.3116811,73.89021979,1286.886286
10.1000,47.31036363,73.69305981,1286.781827
10.1050,47.30990131,73.49022704,1286.674533
10.1100,47.3099776,73.28281287,1286.565085
10.1150,47.31171174,73.07177742,1286.453249
10.1200,47.31405605,72.85630506,1286.339252
10.1250,47.31744161,72.63818325,1286.223752
10.1300,47.32193518,72.41656325,1286.106244
10.1350,47.32743394,72.19255057,1285.987278
10.1400,47.33432321,71.96668014,1285.866936
10.1450,47.34217694,71.73940304,1285.745649
10.1500,47.35114446,71.51067572,1285.623309
10.1550,47.36077556,71.28195357,1285.500812
10.1600,47.37062946,71.05319679,1285.378368
10.1650,47.38226512,70.82448301,1285.255136
10.1700,47.39513999,70.59731597,1285.132056
10.1750,47.41020073,70.37163388,1285.008532
10.1800,47.42699057,70.14832972,1284.885315
10.1850,47.44535405,69.92701655,1284.762267
10.1900,47.46499483,69.70683476,1284.639083
10.1950,47.48601987,69.4887321,1284.516173
10.2000,47.50879876,69.2728189,1284.393374
10.2050,47.53348606,69.059692,1284.270813
10.2100,47.55986089,68.84906809,1284.148518
10.2150,47.58767352,68.64105942,1284.026647
10.2200,47.61797831,68.43668287,1283.90499
10.2250,47.64966368,68.23504039,1283.783822
10.2300,47.6831808,68.03898385,1283.664135
10.2350,47.71924208,67.84706145,1283.544816
10.2400,47.75811504,67.66118054,1283.42657
10.2450,47.79969696,67.48157394,1283.309532
10.2500,47.84454665,67.30863432,1283.193538
10.2550,47.89260469,67.1422185,1283.078566
10.2600,47.94337954,66.98224672,1282.964902
10.2650,47.99738221,66.82915072,1282.852422
10.2700,48.05509117,66.6825733,1282.740703
10.2750,48.1170355,66.54285183,1282.629607
10.2800,48.18194695,66.4107341,1282.52014
10.2850,48.25104877,66.28501319,1282.411121
10.2900,48.32410504,66.16649954,1282.303025
10.2950,48.40185456,66.05461569,1282.195141
10.3000,48.48463974,65.95035323,1282.087718
10.3050,48.57242689,65.85279887,1281.980393
10.3100,48.6651535,65.76069075,1281.872618
10.3150,48.76332569,65.6750071,1281.764512
10.3200,48.8679078,65.59445066,1281.654984
10.3250,48.97817071,65.517596,1281.543861
10.3300,49.095024,65.44480236,1281.430789
10.3350,49.21790814,65.37472555,1281.315515
10.3400,49.34617534,65.3050015,1281.197423
10.3450,49.48080911,65.23674644,1281.076443
10.3500,49.62153198,65.16881304,1280.952267
10.3550,49.76892373,65.10029066,1280.824178
10.3600,49.92233091,65.03137564,1280.692602
10.3650,50.08088074,64.96067687,1280.557468
10.3700,50.24398325,64.88823226,1280.419157
10.3750,50.41246723,64.81441202,1280.277349
10.3800,50.58697088,64.73917532,1280.131664
10.3850,50.76678935,64.66072505,1279.981791
10.3900,50.95135752,64.58048812,1279.82866
10.3950,51.14091062,64.49833247,1279.672121
10.4000,51.33560409,64.41413713,1279.51202
10.4050,51.53449594,64.32874613,1279.349297
10.4100,51.73738276,64.2415353,1279.183775
10.4150,51.94416668,64.15227147,1279.015438
10.4200,52.15468392,64.06195222,1278.844799
10.4250,52.3687849,63.96955878,1278.671477
10.4300,52.5864059,63.87639839,1278.496124
10.4350,52.80722412,63.78274298,1278.31899
10.4400,53.03296681,63.68916006,1278.139334
10.4450,53.26295635,63.5953348,1277.957411
10.4500,53.49753229,63.50122536,1277.772978
10.4550,53.73659191,63.40744075,1277.586368
10.4600,53.97995347,63.31285625,1277.397237
10.4650,54.22770417,63.2181833,1277.205791
10.4700,54.48058534,63.12290499,1277.011432
10.4750,54.73760914,63.02682681,1276.81459
10.4800,54.99864195,62.92933145,1276.615056
10.4850,55.26397861,62.83061628,1276.412774
10.4900,55.53210308,62.73016792,1276.208425
10.4950,55.80385959,62.62749179,1276.001317
10.5000,56.07835985,62.52312401,1275.792212
10.5050,56.3560762,62.41653602,1275.580692
10.5100,56.63578453,62.30811557,1275.367556
10.5150,56.91762654,62.19777433,1275.152833
10.5200,57.20051239,62.08534439,1274.936939
10.5250,57.48452686,61.97068078,1274.719822
10.5300,57.77001684,61.85296831,1274.500911
10.5350,58.05588938,61.73281166,1274.281085
10.5400,58.34267057,61.60905828,1274.059579
10.5450,58.6307244,61.48324127,1273.83671
10.5500,58.91939343,61.35432907,1273.612435
10.5550,59.20929441,61.22332424,1273.386819
10.5600,59.50160444,61.09144007,1273.159722
10.5650,59.79611507,60.95984874,1272.931712
10.5700,60.09292832,60.82866877,1272.702774
10.5750,60.39369679,60.69939823,1272.472617
10.5800,60.69924407,60.57058737,1272.240242
10.5850,61.00871165,60.44269188,1272.006282
10.5900,61.32395518,60.31547754,1271.769725
10.5950,61.6443382,60.18854121,1271.530807
10.6000,61.96977965,60.06080532,1271.28912
10.6050,62.30097787,59.93328893,1271.044782
10.6100,62.63788291,59.8054871,1270.797743
10.6150,62.98019225,59.67810692,1270.548473
10.6200,63.32785175,59.55148018,1270.297164
10.6250,63.68125569,59.42548059,1270.04361
10.6300,64.04003501,59.2991561,1269.787689
10.6350,64.40491291,59.17438026,1269.529776
10.6400,64.77658114,59.05118066,1269.269586
10.6450,65.1541528,58.92895925,1269.007411
10.6500,65.5375383,58.80811291,1268.743485
10.6550,65.92793273,58.68957862,1268.47756
10.6600,66.32512672,58.57285289,1268.209612
10.6650,66.7299097,58.45752479,1267.939131
10.6700,67.14248282,58.34388571,1267.666129
10.6750,67.56277093,58.23167289,1267.390684
10.6800,67.99028454,58.12018688,1267.112836
10.6850,68.42503295,58.01006281,1266.832862
10.6900,68.86767455,57.90018217,1266.55016
10.6950,69.31793651,57.79003839,1266.26477
10.7000,69.77497253,57.6789149,1265.976929
10.7050,70.23937773,57.56592055,1265.686061
10.7100,70.71026778,57.45019794,1265.392384
10.7150,71.18728373,57.33120818,1265.095965
10.7200,71.6700137,57.20889577,1264.79704
10.7250,72.15677688,57.08202795,1264.496007
10.7300,72.64719646,56.94907492,1264.192542
10.7350,73.14124243,56.80989126,1263.886641
10.7400,73.63680272,56.66348064,1263.578941
10.7450,74.1338233,56.510139,1263.26967
10.7500,74.63148842,56.3496532,1262.959199
10.7550,75.12925334,56.1808823,1262.647424
10.7600,75.62730902,56.00458199,1262.334532
10.7650,76.12385659,55.81998881,1262.021201
10.7700,76.61825283,55.62592353,1261.707278
10.7750,77.11009815,55.42160347,1261.392673
10.7800,77.59976279,55.20740027,1261.077444
10.7850,78.08500486,54.98310457,1260.76247
10.7900,78.56694794,54.74900993,1260.447331
10.7950,79.04497194,54.50564391,1260.132581
10.8000,79.51988732,54.25398324,1259.818172
10.8050,79.99062247,53.99341455,1259.504274
10.8100,80.4582048,53.72478593,1259.190745
10.8150,80.92111533,53.44839685,1258.878331
10.8200,81.38028107,53.16453368,1258.566701
10.8250,81.83638036,52.87479724,1258.256072
10.8300,82.29062284,52.58058921,1257.946425
10.8350,82.74253868,52.28362306,1257.638579
10.8400,83.19206593,51.98418633,1257.332619
10.8450,83.63992756,51.68329609,1257.028606
10.8500,84.08648068,51.38089157,1256.726355
10.8550,84.5325018,51.07955815,1256.426414
10.8600,84.97723686,50.77801848,1256.128709
10.8650,85.42161723,50.47668557,1255.833
10.8700,85.86572402,50.1770254,1255.539701
10.8750,86.30924094,49.87819227,1255.24862
10.8800,86.75266295,49.58213423,1254.960155
10.8850,87.19671293,49.28846059,1254.673825
10.8900,87.64080153,48.99901455,1254.390452
10.8950,88.08572932,48.7147294,1254.10994
10.9000,88.53265561,48.43530682,1253.831643
10.9050,88.98193683,48.16183979,1253.555752
10.9100,89.43516899,47.8949267,1253.281711
10.9150,89.89221086,47.6332246,1253.009142
10.9200,90.35269083,47.37619154,1252.738073
10.9250,90.81708815,47.12450546,1252.468509
10.9300,91.28483137,46.87715917,1252.200343
10.9350,91.75639023,46.63271961,1251.932928
10.9400,92.2316113,46.39201065,1251.666673
10.9450,92.71087872,46.15427213,1251.401125
10.9500,93.19464264,45.91935183,1251.136155
10.9550,93.68141045,45.68552061,1250.871871
10.9600,94.1719659,45.45342639,1250.608103
10.9650,94.66605199,45.22288287,1250.344988
10.9700,95.16291114,44.99306734,1250.08255
10.9750,95.6620533,44.76383009,1249.82098
10.9800,96.16332742,44.53447156,1249.56011
10.9850,96.66718119,44.30492549,1249.299774
10.9900,97.17375462,44.07513072,1249.039874
10.9950,97.68195182,43.84424923,1248.780631
11.0000,98.19194114,43.61219747,1248.521984
11.0050,98.70138629,43.37713522,1248.264215
11.0100,99.21053426,43.13956924,1248.007444
11.0150,99.71826977,42.89796502,1247.751695
11.0200,100.2236759,42.6508013,1247.496837
11.0250,100.7273711,42.39856915,1247.242892
11.0300,101.2276127,42.14113769,1246.990441
11.0350,101.7255563,41.87801371,1246.738986
11.0400,102.2207736,41.60983602,1246.488931
11.0450,102.7134418,41.33690189,1246.240276
11.0500,103.2026523,41.05839684,1245.993056
11.0550,103.688245,40.77412961,1245.747244
11.0600,104.1702711,40.48395213,1245.50279
11.0650,104.6493982,40.18883153,1245.259651
11.0700,105.1250239,39.88998397,1245.018424
11.0750,105.5976311,39.58831021,1244.779303
11.0800,106.0675167,39.28422305,1244.542181
11.0850,106.5363559,38.97793041,1244.306618
11.0900,107.0036866,38.67057323,1244.073125
11.0950,107.4697155,38.3616809,1243.841479
11.1000,107.9345941,38.05068839,1243.611502
11.1050,108.3982325,37.73902841,1243.383716
11.1100,108.8603541,37.42642201,1243.158175
11.1150,109.3224136,37.11358638,1242.934608
11.1200,109.7839277,36.80074582,1242.713286
11.1250,110.2443531,36.48660147,1242.494016
11.1300,110.702266,36.17151729,1242.277467
11.1350,111.1583973,35.8548379,1242.063094
11.1400,111.612111,35.53695865,1241.851266
11.1450,112.0636335,35.21716492,1241.641661
11.1500,112.5123831,34.89669837,1241.434786
11.1550,112.9595501,34.57532703,1241.23014
11.1600,113.4064922,34.25442327,1241.027445
11.1650,113.8533652,33.93427042,1240.826657
11.1700,114.3010716,33.61444522,1240.627398
11.1750,114.7485206,33.2951007,1240.430008
11.1800,115.1965558,32.97630588,1240.234268
11.1850,115.6459473,32.65999781,1240.040387
11.1900,116.0975306,32.34535806,1239.847862
11.1950,116.5520565,32.03257975,1239.65643
11.2000,117.0084489,31.72106117,1239.466263
11.2050,117.4671426,31.40967864,1239.276904
11.2100,117.9268657,31.09913006,1239.088949
11.2150,118.3883943,30.78879863,1238.901869
11.2200,118.8514684,30.47895229,1238.715694
11.2250,119.3165152,30.16856441,1238.530018
11.2300,119.7841313,29.85732332,1238.344531
11.2350,120.2521733,29.5443495,1238.159613
11.2400,120.7211393,29.23032385,1237.975196
11.2450,121.1888043,28.9138142,1237.791657
11.2500,121.6545887,28.5942445,1237.608898
11.2550,122.1181634,28.27165684,1237.426994
11.2600,122.5783842,27.94545477,1237.246184
11.2650,123.034673,27.61484208,1237.066249
11.2700,123.4870785,27.27957273,1236.887188
11.2750,123.9353882,26.93934533,1236.708923
11.2800,124.3804714,26.59466266,1236.53136
11.2850,124.8220998,26.24549273,1236.354514
11.2900,125.2600321,25.89056213,1236.178142
11.2950,125.6934701,25.53017553,1236.00251
11.3000,126.123767,25.16393018,1235.827147
11.3050,126.551595,24.79225117,1235.651997
11.3100,126.9765637,24.41597593,1235.47737
11.3150,127.3988285,24.03514757,1235.30308
11.3200,127.8190733,23.65070878,1235.129215
11.3250,128.2382153,23.26270494,1234.95554
11.3300,128.6557839,22.87094763,1234.782243
11.3350,129.0711662,22.47585011,1234.60975
11.3400,129.4840282,22.07537902,1234.437757
11.3450,129.8947086,21.66970786,1234.266252
11.3500,130.3045418,21.2603748,1234.09524
11.3550,130.7131345,20.84809303,1233.925043
11.3600,131.1205401,20.43234121,1233.755514
11.3650,131.5264549,20.01288402,1233.586792
11.3700,131.9304399,19.5894882,1233.419081
11.3750,132.332097,19.16394328,1233.252966
11.3800,132.7314596,18.73577777,1233.088417
11.3850,133.1278142,18.30568445,1232.925846
11.3900,133.5220613,17.87472059,1232.765353
11.3950,133.9140759,17.44331668,1232.607163
11.4000,134.3034085,17.01223466,1232.451608
11.4050,134.6901201,16.58081099,1232.298589
11.4100,135.0746949,16.14996282,1232.148317
11.4150,135.4565746,15.71986686,1232.00093
11.4200,135.8364853,15.29192331,1231.856684
11.4250,136.2142105,14.86726491,1231.715836
11.4300,136.5902691,14.44569599,1231.578107
11.4350,136.9652077,14.02742121,1231.443376
11.4400,137.3406735,13.61382854,1231.311396
11.4450,137.71582,13.20511012,1231.182386
11.4500,138.0907067,12.80071727,1231.056212
11.4550,138.4646158,12.39937092,1230.932741
11.4600,138.8367446,12.00175732,1230.812347
11.4650,139.206178,11.60739635,1230.695112
11.4700,139.5732191,11.21623931,1230.580861
11.4750,139.9390693,10.82922754,1230.469394
11.4800,140.3030807,10.4466891,1230.360892
11.4850,140.6657045,10.06806465,1230.25498
11.4900,141.0269093,9.69279468,1230.151475
11.4950,141.3857345,9.320233281,1230.050445
11.5000,141.7427504,8.9519962,1229.952077
11.5050,142.0979162,8.588185423,1229.856268
11.5100,142.4525417,8.228504646,1229.762617
11.5150,142.8058682,7.873442777,1229.671466
11.5200,143.1574886,7.523418691,1229.583068
11.5250,143.5071366,7.177510766,1229.497276
11.5300,143.8541504,6.835725797,1229.414154
11.5350,144.1995359,6.499304355,1229.333766
11.5400,144.5421384,6.167277019,1229.25598
11.5450,144.8842636,5.840585256,1229.18036
11.5500,145.2263226,5.520092586,1229.106867
11.5550,145.5693425,5.20606223,1229.035185
11.5600,145.9136347,4.897746387,1228.964952
11.5650,146.2585717,4.596084969,1228.896637
11.5700,146.605374,4.300938368,1228.829709
11.5750,146.9547742,4.011601648,1228.763694
11.5800,147.3050148,3.728777074,1228.699159
11.5850,147.6570006,3.451592399,1228.635539
11.5900,148.009861,3.180250304,1228.57309
11.5950,148.3645901,2.914091739,1228.511615
11.6000,148.7192343,2.653008991,1228.45154
11.6050,149.0757702,2.396987962,1228.392398
11.6100,149.4333901,2.144327413,1228.334196
11.6150,149.7919291,1.896009578,1228.277294
11.6200,150.1521273,1.650621622,1228.221348
11.6250,150.5121196,1.407881217,1228.166775
11.6300,150.8725664,1.167396428,1228.113382
11.6350,151.2324615,0.9286008424,1228.061281
11.6400,151.5916193,0.6926946432,1228.010622
11.6450,151.9499854,0.4584443041,1227.961151
11.6500,152.3066595,0.2259485349,1227.913113
11.6550,152.6617458,-0.00589953283,1227.866268
11.6600,153.0135646,-0.2370929642,1227.821158
11.6650,153.3618316,-0.4670887358,1227.777895
11.6700,153.7075011,-0.6957547183,1227.736283
11.6750,154.0507089,-0.9249734666,1227.69588
11.6800,154.392294,-1.152921359,1227.656815
11.6850,154.7310951,-1.381162442,1227.619176
11.6900,155.0673502,-1.608797989,1227.582901
11.6950,155.4013625,-1.835545279,1227.547856
11.7000,155.7329436,-2.061056099,1227.514114
11.7050,156.0625189,-2.285456883,1227.481484
11.7100,156.3900168,-2.508230366,1227.449887
11.7150,156.7153227,-2.729492516,1227.4193
11.7200,157.0392109,-2.949163495,1227.389457
11.7250,157.3618111,-3.166168063,1227.360471
11.7300,157.6840785,-3.380474935,1227.332136
11.7350,158.0055876,-3.591745897,1227.304661
11.7400,158.3243239,-3.799933475,1227.27858
11.7450,158.6421289,-4.004947834,1227.253589
11.7500,158.9578032,-4.205684099,1227.230187
11.7550,159.2726144,-4.402299663,1227.208093
11.7600,159.5863014,-4.595268482,1227.187426
11.7650,159.900315,-4.78471243,1227.167711
11.7700,160.2138442,-4.969802374,1227.149105
11.7750,160.5258935,-5.151827604,1227.13168
11.7800,160.8366957,-5.331467379,1227.115226
11.7850,161.1455942,-5.509663572,1227.099736
11.7900,161.4514492,-5.685915838,1227.085563
11.7950,161.7557516,-5.860862601,1227.072214
11.8000,162.0574596,-6.03462058,1227.059903
11.8050,162.3562587,-6.208770669,1227.048541
11.8100,162.6509158,-6.383938884,1227.038324
11.8150,162.9424245,-6.559936477,1227.029051
11.8200,163.2320927,-6.738963204,1227.020072
11.8250,163.519545,-6.919472238,1227.011716
11.8300,163.805638,-7.101752529,1227.003955
11.8350,164.0892039,-7.28683547,1226.996825
11.8400,164.3706392,-7.475000965,1226.990314
11.8450,164.6486839,-7.666114169,1226.98467
11.8500,164.9239577,-7.859811465,1226.979893
11.8550,165.195301,-8.057327254,1226.975976
11.8600,165.4624652,-8.258221636,1226.973093
11.8650,165.7272494,-8.462673401,1226.970818
11.8700,165.9885398,-8.670857241,1226.969418
11.8750,166.2453541,-8.882483293,1226.969307
11.8800,166.4992321,-9.097237847,1226.970267
11.8850,166.7489464,-9.31538908,1226.972701
11.8900,166.995172,-9.536375486,1226.976613
11.8950,167.2377754,-9.760780065,1226.981794
11.9000,167.4779739,-9.989045728,1226.987922
11.9050,167.7132369,-10.22129075,1226.995574
11.9100,167.9441932,-10.45758823,1227.004557
11.9150,168.1708582,-10.69864265,1227.014734
11.9200,168.3919764,-10.94478899,1227.026176
11.9250,168.607202,-11.19625364,1227.038864
11.9300,168.8179338,-11.4528578,1227.052495
11.9350,169.023935,-11.71517675,1227.066957
11.9400,169.2250814,-11.98319713,1227.082343
11.9450,169.4205631,-12.25542639,1227.099103
11.9500,169.6111241,-12.5340685,1227.116676
11.9550,169.7964524,-12.81738203,1227.135372
11.9600,169.9779177,-13.10526554,1227.154657
11.9650,170.1565152,-13.39672695,1227.17436
11.9700,170.3313146,-13.69154503,1227.194581
11.9750,170.5031994,-13.98820027,1227.215175
11.9800,170.6711246,-14.28651979,1227.236283
11.9850,170.837693,-14.58419661,1227.25746
11.9900,171.0028975,-14.88244529,1227.278478
11.9950,171.1677998,-15.17926922,1227.299253
12.0000,171.3332477,-15.47477828,1227.319503
12.0050,171.4987122,-15.76721838,1227.339447
12.0100,171.6644789,-16.05730509,1227.358972
12.0150,171.8305075,-16.34422691,1227.378255
12.0200,171.9947525,-16.62798127,1227.397771
12.0250,172.1580622,-16.90863336,1227.417473
12.0300,172.3192483,-17.18554132,1227.437718
12.0350,172.4784933,-17.45775492,1227.458604
12.0400,172.6365625,-17.72534996,1227.479932
12.0450,172.7915891,-17.98925306,1227.501896
12.0500,172.9450305,-18.249854,1227.524028
12.0550,173.0947485,-18.50612204,1227.546894
12.0600,173.23966,-18.7583324,1227.570508
12.0650,173.3787814,-19.00632848,1227.595215
12.0700,173.5114053,-19.25035238,1227.621266
12.0750,173.6374614,-19.48954498,1227.648755
12.0800,173.7577884,-19.72339984,1227.677612
12.0850,173.8718421,-19.9516466,1227.708119
12.0900,173.9803873,-20.17436608,1227.740102
12.0950,174.0819803,-20.39046515,1227.774063
12.1000,174.1787463,-20.60091136,1227.809444
12.1050,174.2695313,-20.80464879,1227.846521
12.1100,174.3554671,-21.00143908,1227.885155
12.1150,174.4362218,-21.191833,1227.925297
12.1200,174.5118299,-21.3755595,1227.967048
12.1250,174.5819101,-21.5534726,1228.010447
12.1300,174.6473382,-21.72541969,1228.055249
12.1350,174.7093414,-21.89183759,1228.101227
12.1400,174.7684293,-22.05447196,1228.148235
12.1450,174.8256522,-22.21398739,1228.195902
12.1500,174.8799398,-22.37251366,1228.244206
12.1550,174.9320714,-22.52999602,1228.293197
12.1600,174.9828703,-22.68683792,1228.342514
12.1650,175.0314069,-22.84326431,1228.392287
12.1700,175.078793,-23.00071808,1228.442248
12.1750,175.1255758,-23.15963282,1228.492155
12.1800,175.1710941,-23.32168596,1228.541982
12.1850,175.2165055,-23.48716928,1228.591379
12.1900,175.2622206,-23.65694866,1228.640027
12.1950,175.3093077,-23.83166609,1228.687598
12.2000,175.3569117,-24.01215761,1228.734154
12.2050,175.4058955,-24.19943117,1228.779371
12.2100,175.4566995,-24.39391338,1228.823153
12.2150,175.5099073,-24.59588012,1228.865274
12.2200,175.5650255,-24.80571825,1228.905947
12.2250,175.6237357,-25.02276271,1228.944834
12.2300,175.6845004,-25.24777046,1228.982149
12.2350,175.7478359,-25.48003915,1229.017976
12.2400,175.8146005,-25.7191075,1229.052077
12.2450,175.8839727,-25.96572573,1229.08458
12.2500,175.9558751,-26.21736358,1229.115978
12.2550,176.0293527,-26.47357332,1229.146503
12.2600,176.1050004,-26.73355736,1229.176266
12.2650,176.1826414,-26.99603613,1229.205577
12.2700,176.2623471,-27.26116379,1229.234523
12.2750,176.3428053,-27.52773794,1229.263591
12.2800,176.4244589,-27.79580988,1229.292772
12.2850,176.5048744,-28.06432285,1229.322722
12.2900,176.5829374,-28.3324857,1229.353841
12.2950,176.6568891,-28.60120126,1229.38655
12.3000,176.7263988,-28.86909871,1229.421097
12.3050,176.7907332,-29.13595786,1229.457684
12.3100,176.8492538,-29.40061676,1229.496468
12.3150,176.9021186,-29.66286035,1229.53742
12.3200,176.9477116,-29.92239272,1229.58095
12.3250,176.9860179,-30.17826176,1229.627097
12.3300,177.0158949,-30.43074826,1229.676166
12.3350,177.0358943,-30.68037196,1229.728558
12.3400,177.0452035,-30.92701467,1229.784537
12.3450,177.0438591,-31.16896793,1229.844394
12.3500,177.0308079,-31.40474443,1229.908646
12.3550,177.0057702,-31.63522912,1229.977363
12.3600,176.96942,-31.85966786,1230.050562
12.3650,176.9210928,-32.07751088,1230.128381
12.3700,176.8609909,-32.28860242,1230.210657
12.3750,176.7900478,-32.49427175,1230.297157
12.3800,176.7081714,-32.69347699,1230.38779
12.3850,176.6159349,-32.88614615,1230.482295
12.3900,176.5144397,-33.07168129,1230.580491
12.3950,176.4053309,-33.24995834,1230.681935
12.4000,176.2879533,-33.42132761,1230.786735
12.4050,176.1645308,-33.58577124,1230.894538
12.4100,176.037054,-33.74386672,1231.004666
12.4150,175.9069244,-33.89538413,1231.116811
12.4200,175.775166,-34.04014392,1231.23065
12.4250,175.6436125,-34.17903737,1231.345722
12.4300,175.5135288,-34.31342824,1231.461492
12.4350,175.3857367,-34.44330123,1231.577692
12.4400,175.2613463,-34.56802277,1231.694054
12.4450,175.1417105,-34.68842841,1231.810098
12.4500,175.0272857,-34.80537144,1231.925573
12.4550,174.9197469,-34.91897077,1232.039841
12.4600,174.8195835,-35.02998381,1232.152775
12.4650,174.7274021,-35.13907904,1232.263959
12.4700,174.6441629,-35.2463214,1232.372929
12.4750,174.5701935,-35.35137737,1232.479604
12.4800,174.5077095,-35.45511514,1232.583188
12.4850,174.4562615,-35.55785209,1232.683748
12.4900,174.4167978,-35.65970043,1232.78086
12.4950,174.3887644,-35.76065055,1232.874619
12.5000,174.3748592,-35.86070686,1232.964158
12.5050,174.3754317,-35.96030196,1233.049267
12.5100,174.391697,-36.05979242,1233.129399
12.5150,174.4242166,-36.1596365,1233.204274
12.5200,174.4745243,-36.26012133,1233.273326
12.5250,174.5440863,-36.36254883,1233.33608
12.5300,174.6345853,-36.46507661,1233.392117
12.5350,174.745821,-36.56862545,1233.441327
12.5400,174.8788315,-36.67338943,1233.483452
12.5450,175.0347742,-36.7789294,1233.51825
12.5500,175.2131601,-36.88601092,1233.545752
12.5550,175.41527,-36.99500617,1233.565679
12.5600,175.6404344,-37.10506998,1233.578374
12.5650,175.887428,-37.21682063,1233.584033
12.5700,176.1569606,-37.32953614,1233.582746
12.5750,176.4484712,-37.44359624,1233.574713
12.5800,176.7597925,-37.55954424,1233.560539
12.5850,177.0906225,-37.67708806,1233.540631
12.5900,177.4400902,-37.79544184,1233.515372
12.5950,177.8061692,-37.91438124,1233.485369
12.6000,178.1863422,-38.03421287,1233.451444
12.6050,178.5786262,-38.15355693,1233.41427
12.6100,178.9802549,-38.27312982,1233.374724
12.6150,179.3880935,-38.39162185,1233.33373
12.6200,179.8020385,-38.50878225,1233.291573
12.6250,180.2182567,-38.62482993,1233.249256
12.6300,180.6340534,-38.73835977,1233.207695
12.6350,181.0481915,-38.84919987,1233.167133
12.6400,181.4580775,-38.95695506,1233.128342
12.6450,181.8609361,-39.06123765,1233.091932
12.6500,182.2549331,-39.16259568,1233.058386
12.6550,182.6379806,-39.26014445,1233.028219
12.6600,183.0096102,-39.35383408,1233.001675
12.6650,183.3685768,-39.44329534,1232.979157
12.6700,183.7136219,-39.52774695,1232.961137
12.6750,184.0435449,-39.6059959,1232.947906
12.6800,184.35705,-39.67848736,1232.939783
12.6850,184.6532704,-39.74473909,1232.937008
12.6900,184.9310141,-39.80451084,1232.939694
12.6950,185.1900928,-39.85856205,1232.947789
12.7000,185.4313659,-39.90614287,1232.961025
12.7050,185.6545278,-39.94732434,1232.979172
12.7100,185.8593452,-39.98277372,1233.00217
12.7150,186.0458713,-40.01317589,1233.029633
12.7200,186.216424,-40.03955327,1233.060948
12.7250,186.3708965,-40.0620863,1233.095687
12.7300,186.5101019,-40.08098521,1233.133555
12.7350,186.6355574,-40.09622411,1233.173967
12.7400,186.7476727,-40.10991631,1233.216473
12.7450,186.8465513,-40.12207506,1233.260837
12.7500,186.934207,-40.1324219,1233.306561
12.7550,187.0099141,-40.14028404,1233.353609
12.7600,187.074677,-40.14623621,1233.401604
12.7650,187.1301926,-40.15053439,1233.450026
12.7700,187.1771344,-40.15250946,1233.498659
12.7750,187.2158157,-40.1524365,1233.54716
12.7800,187.2466781,-40.14997983,1233.595355
12.7850,187.2698287,-40.14475836,1233.643018
12.7900,187.2865155,-40.13776675,1233.689821
12.7950,187.2982983,-40.12728134,1233.735301
12.8000,187.3042906,-40.11396266,1233.779686
12.8050,187.3061107,-40.09756291,1233.822435
12.8100,187.3045808,-40.07800545,1233.86349
12.8150,187.2993789,-40.05487164,1233.902828
12.8200,187.2918405,-40.02808606,1233.940285
12.8250,187.2818984,-39.99671231,1233.975757
12.8300,187.2695731,-39.96197184,1234.009289
12.8350,187.2560595,-39.92346166,1234.04062
12.8400,187.2416183,-39.88143041,1234.069714
12.8450,187.2275588,-39.83566322,1234.096235
12.8500,187.2153432,-39.78649738,1234.119902
12.8550,187.2059039,-39.7345068,1234.140466
12.8600,187.2001413,-39.68025764,1234.157662
12.8650,187.1994639,-39.62490102,1234.171207
12.8700,187.2038495,-39.56776658,1234.180976
12.8750,187.2133417,-39.51030962,1234.186996
12.8800,187.2295089,-39.45282429,1234.188951
12.8850,187.252828,-39.39686668,1234.186615
12.8900,187.2828901,-39.34310707,1234.180115
12.8950,187.3201822,-39.29169492,1234.169373
12.9000,187.363503,-39.24300022,1234.154589
12.9050,187.4130747,-39.1993253,1234.135673
12.9100,187.4684807,-39.15956458,1234.112776
12.9150,187.5306249,-39.12547922,1234.085788
12.9200,187.5983668,-39.09706824,1234.054854
12.9250,187.6721091,-39.07560284,1234.019993
12.9300,187.7522381,-39.06179354,1233.980957
12.9350,187.8368403,-39.05506762,1233.938322
12.9400,187.9269875,-39.0569351,1233.891842
12.9450,188.0229636,-39.06787336,1233.841532
12.9500,188.1237284,-39.08888548,1233.787628
12.9550,188.230554,-39.11906548,1233.729936
12.9600,188.3419031,-39.15922444,1233.668798
12.9650,188.4575008,-39.20787423,1233.60438
12.9700,188.5779168,-39.26584356,1233.536456
12.9750,188.7023917,-39.3324955,1233.465325
12.9800,188.8314151,-39.40749115,1233.390835
12.9850,188.964845,-39.49151522,1233.313029
12.9900,189.1027119,-39.58416246,1233.231934
12.9950,189.2442233,-39.68405785,1233.147721
13.0000,189.3893334,-39.7921934,1233.060253
13.0050,189.5391769,-39.90687479,1232.969534
13.0100,189.691866,-40.02761629,1232.875813
13.0150,189.8480403,-40.15466964,1232.779121
13.0200,190.0052697,-40.28703913,1232.679943
13.0250,190.1634241,-40.42393251,1232.578428
13.0300,190.3213684,-40.56412059,1232.474837
13.0350,190.4786281,-40.70721814,1232.369352
13.0400,190.6349803,-40.8518387,1232.262103
13.0450,190.7889216,-40.9972573,1232.153343
13.0500,190.9403485,-41.14249954,1232.043155
13.0550,191.0893919,-41.28825151,1231.931557
13.0600,191.2355191,-41.43323067,1231.818579
13.0650,191.3773237,-41.57587071,1231.704501
13.0700,191.5141719,-41.71616741,1231.589391
13.0750,191.6462341,-41.85455047,1231.473246
13.0800,191.7723027,-41.98978734,1231.356328
13.0850,191.8936556,-42.12094265,1231.238435
13.0900,192.0095889,-42.24787963,1231.119714
13.0950,192.1190911,-42.37067642,1231.000339
13.1000,192.2229252,-42.4877958,1230.88026
13.1050,192.320173,-42.59910786,1230.759654
13.1100,192.4108121,-42.70442594,1230.638419
13.1150,192.4948829,-42.80414161,1230.516637
13.1200,192.5723814,-42.89774333,1230.394239
13.1250,192.6429732,-42.98588275,1230.271349
13.1300,192.7069581,-43.06863674,1230.147868
13.1350,192.7650365,-43.14704945,1230.023591
13.1400,192.8175986,-43.22027769,1229.898467
13.1450,192.8644484,-43.28898533,1229.772636
13.1500,192.9048492,-43.35386384,1229.646155
13.1550,192.9408391,-43.41528728,1229.51879
13.1600,192.9716139,-43.47333475,1229.390691
13.1650,192.9971101,-43.52800004,1229.262012
13.1700,193.0188178,-43.58105474,1229.132599
13.1750,193.0369327,-43.6313107,1229.002504
13.1800,193.0516918,-43.67908363,1228.871716
13.1850,193.0624652,-43.7241153,1228.740453
13.1900,193.0694729,-43.76708388,1228.608691
13.1950,193.0724538,-43.80754927,1228.476503
13.2000,193.0721579,-43.84633892,1228.34384
13.2050,193.0694215,-43.88067571,1228.21079
13.2100,193.0643609,-43.91219342,1228.077287
13.2150,193.0573754,-43.93999012,1227.943391
13.2200,193.0484612,-43.96362018,1227.809199
13.2250,193.0368186,-43.98269446,1227.674879
13.2300,193.0228338,-43.99765368,1227.540468
13.2350,193.0072608,-44.00839871,1227.40572
13.2400,192.9899187,-44.01343351,1227.270825
13.2450,192.9703778,-44.01180125,1227.13591
13.2500,192.9493928,-44.00356657,1227.000843
13.2550,192.9259805,-43.98846655,1226.866003
13.2600,192.9009265,-43.96621665,1226.731174
13.2650,192.8746098,-43.93812142,1226.596323
13.2700,192.8472282,-43.90307845,1226.461645
13.2750,192.8186006,-43.86167745,1226.327027
13.2800,192.7887114,-43.81456204,1226.192562
13.2850,192.758656,-43.76025503,1226.058205
13.2900,192.7282715,-43.69958656,1225.924035
13.2950,192.6974447,-43.63246226,1225.790105
13.3000,192.6662576,-43.55874355,1225.656554
13.3050,192.6337829,-43.48100962,1225.52346
13.3100,192.6016965,-43.39854634,1225.390674
13.3150,192.5697988,-43.31073563,1225.258242
13.3200,192.5371544,-43.21809385,1225.126324
13.3250,192.5044557,-43.12245609,1224.994807
13.3300,192.4710381,-43.02365533,1224.863822
13.3350,192.4362439,-42.92211818,1224.733444
13.3400,192.399582,-42.81757883,1224.60373
13.3450,192.3619471,-42.7106365,1224.474684
13.3500,192.3209862,-42.6007855,1224.346515
13.3550,192.2771867,-42.48807011,1224.219136
13.3600,192.2300546,-42.37266298,1224.09264
13.3650,192.1789508,-42.254667,1223.967119
13.3700,192.1221707,-42.13376124,1223.842943
13.3750,192.0594714,-42.0094123,1223.720163
13.3800,191.990487,-41.88203066,1223.598835
13.3850,191.9144191,-41.75161384,1223.479075
13.3900,191.8302792,-41.61710821,1223.361075
13.3950,191.7378652,-41.47941018,1223.244897
13.4000,191.6353725,-41.33910933,1223.130757
13.4050,191.5228657,-41.19601091,1223.018753
13.4100,191.3989013,-41.04962899,1222.909237
13.4150,191.264167,-40.90074149,1222.802135
13.4200,191.1170063,-40.74840964,1222.69781
13.4250,190.9578788,-40.59347587,1222.596263
13.4300,190.7862018,-40.43587881,1222.497651
13.4350,190.6010471,-40.27521756,1222.402235
13.4400,190.4030762,-40.11183319,1222.309961
13.4450,190.1918424,-39.94633618,1222.22089
13.4500,189.9681626,-39.77807661,1222.134906
13.4550,189.7314788,-39.60661654,1222.052051
13.4600,189.4822836,-39.43199884,1221.972339
13.4650,189.2212224,-39.25411931,1221.895614
13.4700,188.9481826,-39.07198332,1221.821854
13.4750,188.6641441,-38.88642834,1221.750885
13.4800,188.3696993,-38.69678116,1221.68261
13.4850,188.0666965,-38.50216314,1221.616706
13.4900,187.7557403,-38.30132876,1221.553051
13.4950,187.4380336,-38.09499127,1221.491501
13.5000,187.1151582,-37.88275337,1221.431646
13.5050,186.7869875,-37.66594871,1221.373587
13.5100,186.4555759,-37.44305422,1221.317013
13.5150,186.1200806,-37.21439945,1221.262122
13.5200,185.7825248,-36.98039157,1221.208614
13.5250,185.4436404,-36.74070244,1221.156444
13.5300,185.1050081,-36.49330569,1221.105388
13.5350,184.7684965,-36.24025828,1221.055222
13.5400,184.4338495,-35.98033592,1221.006031
13.5450,184.1022066,-35.71416391,1220.957641
13.5500,183.7746763,-35.44030304,1220.90996
13.5550,183.4523131,-35.15994335,1220.862601
13.5600,183.136629,-34.87212997,1220.815477
13.5650,182.8285984,-34.57659886,1220.768422
13.5700,182.5283066,-34.27265174,1220.721323
13.5750,182.2374865,-33.95945947,1220.674012
13.5800,181.9569648,-33.63735862,1220.626329
13.5850,181.6872377,-33.30686488,1220.578075
13.5900,181.4300494,-32.96784273,1220.528926
13.5950,181.1872279,-32.62076285,1220.478499
13.6000,180.9592029,-32.26586989,1220.426694
13.6050,180.7473,-31.90231001,1220.373197
13.6100,180.5514696,-31.53215006,1220.318023
13.6150,180.3716934,-31.15657406,1220.261086
13.6200,180.2099943,-30.77649839,1220.202053
13.6250,180.0658224,-30.39223481,1220.141005
13.6300,179.9405862,-30.00494502,1220.077649
13.6350,179.8330168,-29.61567787,1220.012199
13.6400,179.7430936,-29.22537672,1219.944713
13.6450,179.6706206,-28.8344033,1219.875251
13.6500,179.617096,-28.44434482,1219.80358
13.6550,179.5806441,-28.05516727,1219.730118
13.6600,179.5599538,-27.66815376,1219.65499
13.6650,179.5551523,-27.28382077,1219.578266
13.6700,179.5660431,-26.90353113,1219.499811
13.6750,179.590586,-26.52627683,1219.420128
13.6800,179.6284332,-26.15170406,1219.33924
13.6850,179.6790616,-25.7804315,1219.257272
13.6900,179.7408001,-25.41213785,1219.174483
13.6950,179.812117,-25.04699951,1219.091083
13.7000,179.8921475,-24.68449855,1219.00724
13.7050,179.9796168,-24.32412926,1218.923243
13.7100,180.0728135,-23.96703104,1218.839282
13.7150,180.1694901,-23.61239633,1218.755723
13.7200,180.2690119,-23.26124007,1218.672532
13.7250,180.3691016,-22.91279275,1218.590124
13.7300,180.468124,-22.56772687,1218.508557
13.7350,180.5644976,-22.2256432,1218.428109
13.7400,180.6559174,-21.88836486,1218.348865
13.7450,180.7419125,-21.55527875,1218.270934
13.7500,180.8207379,-21.22596387,1218.194674
13.7550,180.8911453,-20.90129998,1218.120221
13.7600,180.9528015,-20.58037931,1218.047725
13.7650,181.0053133,-20.26277075,1217.977308
13.7700,181.0469796,-19.94866633,1217.909158
13.7750,181.0781299,-19.63731049,1217.843282
13.7800,181.0975907,-19.32759393,1217.779996
13.7850,181.1050378,-19.01930392,1217.71931
