type,name,time_units,begin_time,frequency,count,units
signal_3d,"Noraxon MyoMotion-Trajectories-Elbow RT","s",0.0000,200,4916,"mm"

time,x,y,z
0.0000,166.4796211,-28.94591268,1238.402126
0.0050,166.4762718,-28.95506677,1238.401933
0.0100,166.4729244,-28.96422152,1238.401739
0.0150,166.4695788,-28.97337692,1238.401545
0.0200,166.4659741,-28.98351191,1238.401309
0.0250,166.4621446,-28.99458665,1238.401026
0.0300,166.4581296,-29.00653928,1238.400697
0.0350,166.4539697,-29.01929084,1238.400319
0.0400,166.4497044,-29.03275071,1238.399894
0.0450,166.4453719,-29.04682476,1238.399425
0.0500,166.4410108,-29.06142292,1238.398911
0.0550,166.4366606,-29.07645976,1238.398353
0.0600,166.4323572,-29.0918528,1238.397753
0.0650,166.4281249,-29.10752663,1238.397111
0.0700,166.4239714,-29.12341761,1238.396433
0.0750,166.419886,-29.13947136,1238.395723
0.0800,166.4158389,-29.15563429,1238.394992
0.0850,166.4117822,-29.17184826,1238.394253
0.0900,166.4076535,-29.18805338,1238.393522
0.0950,166.4033838,-29.20419474,1238.392817
0.1000,166.3989021,-29.22022593,1238.392154
0.1050,166.3941372,-29.23610744,1238.391549
0.1100,166.3890201,-29.25180398,1238.391018
0.1150,166.3834884,-29.26728283,1238.390576
0.1200,166.3774927,-29.28250999,1238.390233
0.1250,166.3710019,-29.29744447,1238.39
0.1300,166.3640049,-29.31203533,1238.389882
0.1350,166.3565116,-29.3262224,1238.389884
0.1400,166.348551,-29.33993947,1238.390006
0.1450,166.3401664,-29.35312009,1238.390247
0.1500,166.3314147,-29.36570206,1238.390601
0.1550,166.3144018,-29.39517264,1238.390965
0.1600,166.2978054,-29.42487965,1238.391221
0.1650,166.2810913,-29.45382285,1238.391573
0.1700,166.2638482,-29.48245864,1238.392046
0.1750,166.2466653,-29.51024063,1238.392595
0.1800,166.2302873,-29.53754121,1238.393044
0.1850,166.2136515,-29.56394148,1238.393634
0.1900,166.1979706,-29.58986992,1238.394095
0.1950,166.1823814,-29.61437825,1238.394693
0.2000,166.1669162,-29.63841274,1238.395331
0.2050,166.1518445,-29.66249171,1238.395901
0.2100,166.1375658,-29.68510615,1238.396486
0.2150,166.1243197,-29.70719513,1238.396939
0.2200,166.1120996,-29.72782423,1238.397371
0.2250,166.1010687,-29.74799519,1238.397644
0.2300,166.0913506,-29.76822086,1238.397675
0.2350,166.0829266,-29.78758066,1238.397566
0.2400,166.0753428,-29.80625295,1238.397381
0.2450,166.0684897,-29.82427102,1238.397145
0.2500,166.0628795,-29.84272458,1238.396656
0.2550,166.0574611,-29.86130638,1238.396139
0.2600,166.0530283,-29.87907081,1238.395533
0.2650,166.0485746,-29.89720897,1238.394918
0.2700,166.0439661,-29.91533444,1238.394344
0.2750,166.0400357,-29.93397423,1238.393617
0.2800,166.0360832,-29.95275698,1238.392892
0.2850,166.0321175,-29.9717937,1238.392158
0.2900,166.0289585,-29.99109089,1238.391255
0.2950,166.0258747,-30.0108178,1238.390298
0.3000,166.0227982,-30.03153006,1238.38925
0.3050,166.019056,-30.05333911,1238.388218
0.3100,166.0150579,-30.07524752,1238.387221
0.3150,166.0106521,-30.09783865,1238.386234
0.3200,166.0053437,-30.12117625,1238.385345
0.3250,165.9995145,-30.14515486,1238.384489
0.3300,165.992549,-30.17029135,1238.383734
0.3350,165.9850305,-30.19656793,1238.382972
0.3400,165.9766056,-30.22288087,1238.382373
0.3450,165.9674001,-30.24970457,1238.381864
0.3500,165.957953,-30.27694756,1238.381349
0.3550,165.9477085,-30.30459389,1238.380924
0.3600,165.9370714,-30.33202614,1238.380581
0.3650,165.9261814,-30.35973341,1238.38024
0.3700,165.9141275,-30.38772468,1238.38008
0.3750,165.9020559,-30.41584149,1238.379891
0.3800,165.8887364,-30.44419702,1238.379899
0.3850,165.8751766,-30.47260947,1238.379933
0.3900,165.8608459,-30.50106418,1238.380093
0.3950,165.8452968,-30.53002057,1238.38042
0.4000,165.8290795,-30.55893932,1238.380861
0.4050,165.8123619,-30.58735138,1238.381438
0.4100,165.7946635,-30.61622206,1238.382145
0.4150,165.7765913,-30.64557913,1238.382869
0.4200,165.7582336,-30.67495215,1238.383633
0.4250,165.7393378,-30.70490509,1238.384446
0.4300,165.7197627,-30.734491,1238.385425
0.4350,165.7001761,-30.7641915,1238.38639
0.4400,165.679732,-30.79317817,1238.387587
0.4450,165.6599594,-30.82278452,1238.388608
0.4500,165.6401276,-30.85207797,1238.38967
0.4550,165.620577,-30.88161676,1238.390658
0.4600,165.6005719,-30.90993856,1238.391847
0.4650,165.5813889,-30.93840055,1238.39287
0.4700,165.5629966,-30.9665059,1238.393777
0.4750,165.5448495,-30.99425315,1238.394668
0.4800,165.5268429,-31.02116879,1238.395618
0.4850,165.5095625,-31.04764855,1238.396474
0.4900,165.4933652,-31.07360574,1238.39718
0.4950,165.4771738,-31.09914426,1238.39792
0.5000,165.4619319,-31.12368743,1238.398579
0.5050,165.4473082,-31.14763425,1238.399178
0.5100,165.4329185,-31.17050246,1238.399833
0.5150,165.4186605,-31.19223043,1238.400582
0.5200,165.4043009,-31.21324261,1238.401411
0.5250,165.3893427,-31.2335026,1238.402423
0.5300,165.3736327,-31.25192895,1238.403759
0.5350,165.3581214,-31.26930744,1238.405143
0.5400,165.3433609,-31.28543852,1238.406497
0.5450,165.3292618,-31.3002436,1238.407831
0.5500,165.3158047,-31.31307479,1238.409215
0.5550,165.3044412,-31.32410948,1238.410355
0.5600,165.2948379,-31.33376342,1238.411276
0.5650,165.28759,-31.34138394,1238.411921
0.5700,165.2836239,-31.34727628,1238.412085
0.5750,165.2817182,-31.35099685,1238.41204
0.5800,165.2835876,-31.35235927,1238.411486
0.5850,165.2888983,-31.35281842,1238.410341
0.5900,165.2964569,-31.35054175,1238.409009
0.5950,165.3061828,-31.34702952,1238.407367
0.6000,165.3189037,-31.34131831,1238.405344
0.6050,165.3346304,-31.33401433,1238.402882
0.6100,165.3531773,-31.32526252,1238.399995
0.6150,165.3739478,-31.31475698,1238.396832
0.6200,165.3978519,-31.30349929,1238.393119
0.6250,165.4247323,-31.29073208,1238.388948
0.6300,165.4545453,-31.27612398,1238.384366
0.6350,165.4870758,-31.26127766,1238.379257
0.6400,165.5226924,-31.24592042,1238.373577
0.6450,165.5618039,-31.23011781,1238.367247
0.6500,165.604039,-31.21364614,1238.360354
0.6550,165.649712,-31.19715014,1238.352792
0.6600,165.6989596,-31.18035913,1238.344552
0.6650,165.752008,-31.16496372,1238.335435
0.6700,165.810335,-31.15006254,1238.325243
0.6750,165.8719619,-31.13552749,1238.314371
0.6800,165.9390092,-31.12130316,1238.30242
0.6850,166.0098876,-31.10914881,1238.289524
0.6900,166.0838286,-31.09770573,1238.275959
0.6950,166.1614208,-31.08751125,1238.261563
0.7000,166.2410881,-31.07870295,1238.246613
0.7050,166.3213662,-31.07143852,1238.231362
0.7100,166.4021111,-31.06668439,1238.215753
0.7150,166.4818955,-31.06306097,1238.200174
0.7200,166.559452,-31.06158712,1238.184767
0.7250,166.6337247,-31.06179174,1238.169768
0.7300,166.7035498,-31.06367302,1238.15539
0.7350,166.7666576,-31.06827485,1238.141957
0.7400,166.8230179,-31.07590626,1238.129423
0.7450,166.8706478,-31.08515643,1238.118285
0.7500,166.9091887,-31.09738483,1238.10848
0.7550,166.9394608,-31.11180362,1238.099923
0.7600,166.9601061,-31.12896627,1238.092805
0.7650,166.9709854,-31.14723818,1238.087312
0.7700,166.9724208,-31.16699565,1238.083344
0.7750,166.9649241,-31.18810937,1238.08082
0.7800,166.9502648,-31.21130866,1238.079338
0.7850,166.9282108,-31.23563534,1238.079034
0.7900,166.8993016,-31.26002799,1238.079913
0.7950,166.8650594,-31.28532975,1238.081619
0.8000,166.8266482,-31.31194498,1238.0839
0.8050,166.7856054,-31.33884322,1238.086571
0.8100,166.7431679,-31.36742657,1238.089277
0.8150,166.700136,-31.39721639,1238.091896
0.8200,166.6572682,-31.42771122,1238.094351
0.8250,166.6153319,-31.45991615,1238.096406
0.8300,166.5756577,-31.49330014,1238.097864
0.8350,166.5377688,-31.52750424,1238.098863
0.8400,166.5017749,-31.56267371,1238.099354
0.8450,166.4681283,-31.59834347,1238.099321
0.8500,166.4367034,-31.63557943,1238.098675
0.8550,166.4071999,-31.67352568,1238.097562
0.8600,166.3792878,-31.71215623,1238.096039
0.8650,166.3534354,-31.75099379,1238.094066
0.8700,166.3291381,-31.79048646,1238.091703
0.8750,166.3063143,-31.83054843,1238.088961
0.8800,166.2843726,-31.87116177,1238.085955
0.8850,166.2624588,-31.91129132,1238.082948
0.8900,166.241914,-31.952175,1238.079564
0.8950,166.2222824,-31.99174089,1238.076081
0.9000,166.2033941,-32.03183327,1238.072371
0.9050,166.1856743,-32.0713679,1238.068441
0.9100,166.1691733,-32.11021872,1238.064297
0.9150,166.1545541,-32.14870992,1238.059789
0.9200,166.1414267,-32.18592911,1238.055077
0.9250,166.1294154,-32.22226955,1238.050201
0.9300,166.1187996,-32.258665,1238.045011
0.9350,166.1100496,-32.29357758,1238.039572
0.9400,166.1026238,-32.32849477,1238.033848
0.9450,166.0955252,-32.36254817,1238.028095
0.9500,166.0885719,-32.39669269,1238.022258
0.9550,166.0818854,-32.42994608,1238.01641
0.9600,166.0747437,-32.4627694,1238.010634
0.9650,166.0673738,-32.49462321,1238.004936
0.9700,166.0584974,-32.52551847,1237.999554
0.9750,166.0480278,-32.55597825,1237.994449
0.9800,166.0353024,-32.58595895,1237.989756
0.9850,166.0203641,-32.61345208,1237.985644
0.9900,166.0030144,-32.6404588,1237.981976
0.9950,165.9823324,-32.66606497,1237.979012
1.0000,165.9582439,-32.69028604,1237.976771
1.0050,165.9317116,-32.71352811,1237.975025
1.0100,165.9011751,-32.73508763,1237.974135
1.0150,165.8676525,-32.75588521,1237.973836
1.0200,165.8305064,-32.77555493,1237.974268
1.0250,165.7893318,-32.79471961,1237.975439
1.0300,165.7450846,-32.81331103,1237.977175
1.0350,165.6991567,-32.83077561,1237.979261
1.0400,165.6504211,-32.84725375,1237.981908
1.0450,165.5990937,-32.86322154,1237.985027
1.0500,165.5458494,-32.87865361,1237.988489
1.0550,165.4898398,-32.89311773,1237.99249
1.0600,165.4319699,-32.90699193,1237.996835
1.0650,165.3726582,-32.92167202,1238.001306
1.0700,165.3123339,-32.9365375,1238.005895
1.0750,165.2508061,-32.9505375,1238.010717
1.0800,165.188569,-32.96403735,1238.015645
1.0850,165.1250755,-32.97693131,1238.020808
1.0900,165.0607553,-32.98955496,1238.026079
1.0950,164.9962303,-33.00174051,1238.031357
1.1000,164.9306637,-33.0129855,1238.036842
1.1050,164.8640107,-33.02419997,1238.042463
1.1100,164.7963405,-33.03432793,1238.048304
1.1150,164.7283142,-33.04427863,1238.054158
1.1200,164.660211,-33.05408363,1238.059967
1.1250,164.5927518,-33.06324514,1238.065629
1.1300,164.5264642,-33.07287369,1238.070949
1.1350,164.4611383,-33.08226924,1238.076024
1.1400,164.397947,-33.09155715,1238.080617
1.1450,164.3386963,-33.10080067,1238.084359
1.1500,164.2837045,-33.10932075,1238.087253
1.1550,164.233371,-33.11890141,1238.089043
1.1600,164.1893331,-33.12924159,1238.089438
1.1650,164.1518582,-33.1410976,1238.088311
1.1700,164.1214459,-33.155229,1238.085494
1.1750,164.0993411,-33.17078818,1238.08081
1.1800,164.0856595,-33.188907,1238.074133
1.1850,164.0816768,-33.20820524,1238.065334
1.1900,164.0872092,-33.22982474,1238.054341
1.1950,164.1028357,-33.25389424,1238.041026
1.2000,164.1279132,-33.28007706,1238.025528
1.2050,164.1612846,-33.30803515,1238.008111
1.2100,164.2042112,-33.33915702,1237.988409
1.2150,164.2535689,-33.3728685,1237.967075
1.2200,164.3106695,-33.40891696,1237.943876
1.2250,164.3738984,-33.44750639,1237.919102
1.2300,164.4425427,-33.48709065,1237.89303
1.2350,164.5149612,-33.5288199,1237.865865
1.2400,164.5909859,-33.57206435,1237.837702
1.2450,164.6688137,-33.61738499,1237.808846
1.2500,164.7486389,-33.66407757,1237.779316
1.2550,164.8297143,-33.71289549,1237.749183
1.2600,164.9114136,-33.76264328,1237.71868
1.2650,164.9926951,-33.81358025,1237.687986
1.2700,165.0745404,-33.86474991,1237.656998
1.2750,165.1562239,-33.91627092,1237.625853
1.2800,165.2365536,-33.96795921,1237.594783
1.2850,165.3160598,-34.02043624,1237.563642
1.2900,165.3947175,-34.07341418,1237.532456
1.2950,165.4729793,-34.12712481,1237.501103
1.3000,165.5499581,-34.18003976,1237.469895
1.3050,165.6252789,-34.23253665,1237.43887
1.3100,165.7008137,-34.2832938,1237.407774
1.3150,165.77468,-34.33295527,1237.376896
1.3200,165.8476404,-34.38088801,1237.346149
1.3250,165.9196638,-34.42648662,1237.315584
1.3300,165.9898575,-34.4698966,1237.285351
1.3350,166.0577974,-34.51062916,1237.255565
1.3400,166.123245,-34.54873789,1237.226258
1.3450,166.1867423,-34.58420083,1237.197309
1.3500,166.2468144,-34.61723807,1237.168978
1.3550,166.304011,-34.64885014,1237.141069
1.3600,166.3580434,-34.67821481,1237.113696
1.3650,166.4081509,-34.70507989,1237.087017
1.3700,166.4545461,-34.72961056,1237.060962
1.3750,166.4974662,-34.75252,1237.03543
1.3800,166.5355189,-34.7732284,1237.010732
1.3850,166.5697681,-34.79190157,1236.986639
1.3900,166.6000559,-34.80984136,1236.963077
1.3950,166.6263048,-34.82581158,1236.940163
1.4000,166.6489773,-34.84048225,1236.917756
1.4050,166.6678583,-34.85313619,1236.895942
1.4100,166.6833653,-34.86390375,1236.874636
1.4150,166.694543,-34.87157152,1236.854121
1.4200,166.7017928,-34.87717801,1236.834243
1.4250,166.7045574,-34.88034344,1236.815132
1.4300,166.7025381,-34.88010582,1236.796913
1.4350,166.6964543,-34.87781359,1236.779337
1.4400,166.6852239,-34.87252808,1236.762706
1.4450,166.667509,-34.86485897,1236.747203
1.4500,166.6438468,-34.85463046,1236.732746
1.4550,166.6146087,-34.84019281,1236.71941
1.4600,166.5787545,-34.82261781,1236.707301
1.4650,166.5358043,-34.80185546,1236.696517
1.4700,166.4852638,-34.77642672,1236.687273
1.4750,166.4265451,-34.74686016,1236.679639
1.4800,166.3602372,-34.71204162,1236.673619
1.4850,166.2854402,-34.6729731,1236.669303
1.4900,166.2029941,-34.62891068,1236.666595
1.4950,166.112692,-34.58014365,1236.665535
1.5000,166.014358,-34.52543632,1236.666277
1.5050,165.9094825,-34.46576755,1236.668464
1.5100,165.7966756,-34.39942901,1236.67254
1.5150,165.6778911,-34.32669583,1236.678102
1.5200,165.5523991,-34.2471812,1236.685338
1.5250,165.4206479,-34.16085774,1236.694217
1.5300,165.2833989,-34.06862681,1236.70452
1.5350,165.1413487,-33.96890094,1236.716285
1.5400,164.9945886,-33.86170232,1236.7295
1.5450,164.8453364,-33.74578627,1236.743855
1.5500,164.6925761,-33.62084766,1236.759613
1.5550,164.5371125,-33.48600925,1236.776719
1.5600,164.3794496,-33.34193835,1236.795031
1.5650,164.219666,-33.18739528,1236.814671
1.5700,164.0575163,-33.02380315,1236.83558
1.5750,163.893555,-32.85002275,1236.857785
1.5800,163.7279367,-32.6655893,1236.881321
1.5850,163.5615532,-32.47092634,1236.906007
1.5900,163.3951591,-32.26459071,1236.931842
1.5950,163.2275715,-32.04701987,1236.959056
1.6000,163.0610163,-31.81964474,1236.987088
1.6050,162.8943174,-31.58258136,1237.016183
1.6100,162.7268107,-31.33688271,1237.046406
1.6150,162.5595591,-31.08295013,1237.07753
1.6200,162.3924003,-30.822822,1237.109394
1.6250,162.2248945,-30.55680895,1237.142114
1.6300,162.0576889,-30.28491801,1237.175545
1.6350,161.889642,-30.00959222,1237.209711
1.6400,161.7214131,-29.73135158,1237.244459
1.6450,161.5532674,-29.45039051,1237.27972
1.6500,161.3858829,-29.1667691,1237.315348
1.6550,161.2189006,-28.88014916,1237.351477
1.6600,161.0522362,-28.59248422,1237.387918
1.6650,160.8862797,-28.30320817,1237.424665
1.6700,160.7207941,-28.01254562,1237.461753
1.6750,160.5568991,-27.72151591,1237.498856
1.6800,160.3928773,-27.42997097,1237.536356
1.6850,160.229726,-27.13865647,1237.573971
1.6900,160.0663537,-26.84765577,1237.611944
1.6950,159.9031449,-26.55676467,1237.650226
1.7000,159.7393586,-26.26588999,1237.688982
1.7050,159.5758519,-25.97513811,1237.728054
1.7100,159.4120801,-25.68490116,1237.767504
1.7150,159.2482677,-25.39485789,1237.807341
1.7200,159.0842547,-25.10478386,1237.847617
1.7250,158.9204656,-24.81438412,1237.888287
1.7300,158.7573096,-24.52492851,1237.929119
1.7350,158.5942904,-24.23526978,1237.970357
1.7400,158.4308677,-23.94638113,1238.011977
1.7450,158.2677405,-23.65847877,1238.053859
1.7500,158.1042783,-23.37108272,1238.096165
1.7550,157.940035,-23.08620643,1238.138769
1.7600,157.7752325,-22.80265529,1238.181767
1.7650,157.6101252,-22.52033763,1238.225111
1.7700,157.4450221,-22.23954738,1238.268708
1.7750,157.2804641,-21.95954805,1238.312539
1.7800,157.1158843,-21.68076389,1238.356675
1.7850,156.9525675,-21.40335035,1238.400803
1.7900,156.7899862,-21.12630011,1238.445192
1.7950,156.6287455,-20.85038971,1238.489602
1.8000,156.4688492,-20.57511943,1238.534093
1.8050,156.3104594,-20.3003828,1238.578654
1.8100,156.1543764,-20.02661106,1238.623037
1.8150,156.0000826,-19.75243124,1238.667572
1.8200,155.8481566,-19.47985309,1238.711857
1.8250,155.6992671,-19.20733705,1238.755908
1.8300,155.5526656,-18.93615685,1238.79975
1.8350,155.4088122,-18.6648243,1238.843444
1.8400,155.267193,-18.3940456,1238.887013
1.8450,155.1270021,-18.1244969,1238.930555
1.8500,154.988635,-17.85664137,1238.973886
1.8550,154.8517662,-17.59159894,1239.016916
1.8600,154.7166335,-17.32881508,1239.05968
1.8650,154.5827739,-17.06792789,1239.102317
1.8700,154.4501048,-16.80891711,1239.144851
1.8750,154.3180168,-16.55233025,1239.187326
1.8800,154.186745,-16.29858607,1239.229625
1.8850,154.054976,-16.04677954,1239.272139
1.8900,153.9235306,-15.79714084,1239.314651
1.8950,153.7917522,-15.55015307,1239.357245
1.9000,153.6589948,-15.30524842,1239.400126
1.9050,153.5266099,-15.06155953,1239.443122
1.9100,153.3941268,-14.81954811,1239.486247
1.9150,153.2605888,-14.57887198,1239.52977
1.9200,153.1257745,-14.33918499,1239.5738
1.9250,152.9898263,-14.09996548,1239.618337
1.9300,152.8528225,-13.86242467,1239.663197
1.9350,152.7146175,-13.62523671,1239.70859
1.9400,152.5759273,-13.39013236,1239.754053
1.9450,152.4346029,-13.15727183,1239.800082
1.9500,152.2907191,-12.92746274,1239.846513
1.9550,152.1444521,-12.70055972,1239.89331
1.9600,151.9952565,-12.47651911,1239.940582
1.9650,151.8446479,-12.25537142,1239.98795
1.9700,151.6921236,-12.03806158,1240.035362
1.9750,151.5373286,-11.824228,1240.082959
1.9800,151.3822592,-11.61432632,1240.130156
1.9850,151.225258,-11.4087654,1240.177269
1.9900,151.0674491,-11.20681392,1240.224136
1.9950,150.9083491,-11.00897162,1240.270792
2.0000,150.7487284,-10.81448331,1240.317182
2.0050,150.5886586,-10.62306439,1240.363306
2.0100,150.4282104,-10.43387241,1240.409285
2.0150,150.268299,-10.24692666,1240.454911
2.0200,150.1098042,-10.06119644,1240.500119
2.0250,149.9526028,-9.875312727,1240.54516
2.0300,149.7964294,-9.689033939,1240.590142
2.0350,149.6418411,-9.50238793,1240.634917
2.0400,149.489718,-9.31433116,1240.679459
2.0450,149.3395298,-9.123828394,1240.724036
2.0500,149.1915,-8.930998082,1240.768628
2.0550,149.0451792,-8.73412575,1240.81363
2.0600,148.8997195,-8.53423782,1240.859113
2.0650,148.7558358,-8.331496376,1240.904889
2.0700,148.6128411,-8.125374554,1240.951234
2.0750,148.4695045,-7.91659107,1240.99834
2.0800,148.3255326,-7.704607281,1241.046369
2.0850,148.1809148,-7.489909443,1241.095271
2.0900,148.0333686,-7.272781339,1241.145585
2.0950,147.8828587,-7.052792474,1241.197388
2.1000,147.7284946,-6.830083583,1241.250897
2.1050,147.570002,-6.604661396,1241.306203
2.1100,147.4062498,-6.37685417,1241.363518
2.1150,147.2376123,-6.147060357,1241.422697
2.1200,147.0623784,-5.91413085,1241.484399
2.1250,146.8797577,-5.678634558,1241.548753
2.1300,146.6901123,-5.439398032,1241.615888
2.1350,146.4927467,-5.198420761,1241.685658
2.1400,146.2863466,-4.954279058,1241.758672
2.1450,146.0713823,-4.706753249,1241.834899
2.1500,145.8478621,-4.455868411,1241.914338
2.1550,145.615005,-4.200539437,1241.99742
2.1600,145.3729333,-3.940292116,1242.084189
2.1650,145.1220007,-3.675965715,1242.174427
2.1700,144.8615666,-3.406730306,1242.268497
2.1750,144.593455,-3.1318435,1242.366046
2.1800,144.3169635,-2.851834783,1242.46722
2.1850,144.0331721,-2.567134301,1242.571708
2.1900,143.7407259,-2.277101399,1242.680014
2.1950,143.4413204,-1.982469377,1242.791564
2.2000,143.1345056,-1.683548922,1242.906467
2.2050,142.8195248,-1.381637797,1243.024706
2.2100,142.4962679,-1.075907099,1243.146525
2.2150,142.1649711,-0.7659170676,1243.271959
2.2200,141.8255367,-0.4521696464,1243.401003
2.2250,141.4779886,-0.13581899,1243.533499
2.2300,141.1228193,0.1836209495,1243.669448
2.2350,140.7606717,0.5041564013,1243.808329
2.2400,140.3905298,0.8285172043,1243.950969
2.2450,140.0138154,1.155880792,1244.096863
2.2500,139.6291474,1.486406594,1244.246474
2.2550,139.237184,1.819268563,1244.399513
2.2600,138.8378399,2.153412901,1244.555865
2.2650,138.4303259,2.48918397,1244.715878
2.2700,138.0158161,2.827792143,1244.87949
2.2750,137.5938474,3.16898406,1245.046814
2.2800,137.1653515,3.513633375,1245.217823
2.2850,136.7317989,3.862500269,1245.392298
2.2900,136.293919,4.215172515,1245.569985
2.2950,135.8520901,4.572268231,1245.750932
2.3000,135.4062477,4.932731361,1245.934991
2.3050,134.9559733,5.296514825,1246.122333
2.3100,134.5021607,5.662280722,1246.312459
2.3150,134.0433112,6.030122052,1246.505854
2.3200,133.5803027,6.399255289,1246.702156
2.3250,133.1127484,6.768367823,1246.901228
2.3300,132.6404673,7.139344642,1247.103537
2.3350,132.1640466,7.512014882,1247.308926
2.3400,131.6836251,7.885776568,1247.51726
2.3450,131.1990745,8.259478972,1247.728344
2.3500,130.7096985,8.633871694,1247.942572
2.3550,130.2169061,9.008511818,1248.159416
2.3600,129.7200656,9.384704411,1248.379376
2.3650,129.2183179,9.760804344,1248.602395
2.3700,128.7120584,10.13684641,1248.828367
2.3750,128.2009072,10.5113587,1249.057137
2.3800,127.6840833,10.88466257,1249.289048
2.3850,127.1614636,11.25751337,1249.52433
2.3900,126.6344117,11.62875786,1249.76232
2.3950,126.1032594,12.00006832,1250.003293
2.4000,125.5680327,12.37055288,1250.247077
2.4050,125.029209,12.74120152,1250.493725
2.4100,124.4871364,13.11274399,1250.743328
2.4150,123.9419394,13.48405015,1250.995603
2.4200,123.3939625,13.85559825,1251.250537
2.4250,122.8440459,14.2278837,1251.507978
2.4300,122.2913711,14.60184725,1251.768374
2.4350,121.7374406,14.97716106,1252.031193
2.4400,121.1833604,15.35287907,1252.295847
2.4450,120.6292298,15.72785788,1252.561996
2.4500,120.0748718,16.10170654,1252.829626
2.4550,119.5201048,16.47324777,1253.098513
2.4600,118.9642122,16.8425883,1253.368941
2.4650,118.4079101,17.20846146,1253.640372
2.4700,117.8507374,17.57028191,1253.912823
2.4750,117.2909496,17.92748592,1254.186815
2.4800,116.7292115,18.28039439,1254.46218
2.4850,116.1650459,18.63059892,1254.739519
2.4900,115.599453,18.97846797,1255.018553
2.4950,115.0324731,19.32641527,1255.299881
2.5000,114.4656528,19.67533033,1255.583172
2.5050,113.8993287,20.02689536,1255.868742
2.5100,113.3350513,20.38037315,1256.155825
2.5150,112.7739957,20.73564226,1256.443997
2.5200,112.2171859,21.09273619,1256.732829
2.5250,111.664498,21.45175473,1257.022352
2.5300,111.1145101,21.8115484,1257.312792
2.5350,110.5680673,22.17311558,1257.60405
2.5400,110.0253936,22.5346958,1257.89559
2.5450,109.4865144,22.89528835,1258.187097
2.5500,108.9532205,23.25573848,1258.478087
2.5550,108.4246576,23.61420941,1258.768377
2.5600,107.9024308,23.97173637,1259.057588
2.5650,107.386015,24.32732827,1259.345589
2.5700,106.8751703,24.67944095,1259.632051
2.5750,106.3698557,25.0286243,1259.917108
2.5800,105.8693161,25.37375823,1260.200709
2.5850,105.3728783,25.71465267,1260.483029
2.5900,104.8800964,26.05101419,1260.764171
2.5950,104.3924581,26.38305982,1261.04357
2.6000,103.9087737,26.71163584,1261.321888
2.6050,103.4305328,27.03722876,1261.59863
2.6100,102.9573068,27.36169635,1261.874448
2.6150,102.4908174,27.68458106,1262.14848
2.6200,102.029648,28.00711362,1262.42162
2.6250,101.57471,28.33058696,1262.693808
2.6300,101.1265977,28.65480693,1262.964739
2.6350,100.6851271,28.98010127,1263.234531
2.6400,100.250378,29.30608922,1263.50301
2.6450,99.82334508,29.63373468,1263.769982
2.6500,99.40391624,29.9611969,1264.034923
2.6550,98.99147659,30.28776519,1264.297862
2.6600,98.58649412,30.61144594,1264.557971
2.6650,98.18896716,30.93282329,1264.815361
2.6700,97.79713459,31.24994751,1265.070191
2.6750,97.41142165,31.56292577,1265.322253
2.6800,97.03088495,31.87120455,1265.571773
2.6850,96.65488017,32.17476914,1265.818973
2.6900,96.28224356,32.47466328,1266.064614
2.6950,95.91277888,32.77013415,1266.308532
2.7000,95.54756666,33.06162619,1266.550348
2.7050,95.18604153,33.34974929,1266.790481
2.7100,94.82958251,33.63386905,1267.028106
2.7150,94.47676606,33.91587371,1267.264377
2.7200,94.12779834,34.1963321,1267.499379
2.7250,93.78339819,34.47443369,1267.732504
2.7300,93.44421624,34.75023782,1267.963485
2.7350,93.10807474,35.02374172,1268.193255
2.7400,92.77548886,35.29589578,1268.421884
2.7450,92.4458811,35.56799101,1268.650042
2.7500,92.11925577,35.84049697,1268.877851
2.7550,91.79558344,36.11294852,1269.105223
2.7600,91.4748474,36.38564663,1269.33225
2.7650,91.15638485,36.66016623,1269.559706
2.7700,90.8412113,36.93722661,1269.787331
2.7750,90.53025478,37.21630349,1270.014519
2.7800,90.22422023,37.49783465,1270.241059
2.7850,89.92308783,37.78022709,1270.466402
2.7900,89.62617448,38.06130016,1270.690172
2.7950,89.33252794,38.33932878,1270.912223
2.8000,89.040276,38.61336375,1271.13311
2.8050,88.74919243,38.88270346,1271.352658
2.8100,88.45903616,39.14691167,1271.570822
2.8150,88.16966558,39.40627874,1271.787704
2.8200,87.88033552,39.66075045,1272.003597
2.8250,87.59296919,39.91116632,1272.217855
2.8300,87.30882911,40.15809386,1272.430012
2.8350,87.02794313,40.4030454,1272.640554
2.8400,86.75222269,40.64555763,1272.848369
2.8450,86.48153691,40.88587185,1273.053583
2.8500,86.21531552,41.12266093,1273.255995
2.8550,85.95388623,41.35725015,1273.455827
2.8600,85.6969365,41.58809682,1273.652691
2.8650,85.44474673,41.81528057,1273.846501
2.8700,85.19692959,42.03799914,1274.037158
2.8750,84.95286335,42.25480026,1274.224449
2.8800,84.71200924,42.46575732,1274.408668
2.8850,84.47527126,42.67018424,1274.589153
2.8900,84.24222359,42.86899893,1274.766355
2.8950,84.01150925,43.06005513,1274.940231
2.9000,83.78416149,43.24430643,1275.11057
2.9050,83.55739659,43.41956065,1275.277965
2.9100,83.33200908,43.58677589,1275.44236
2.9150,83.10654853,43.74507737,1275.604131
2.9200,82.88058248,43.89401462,1275.763348
2.9250,82.65452601,44.03429026,1275.920066
2.9300,82.42644154,44.16572993,1276.075155
2.9350,82.19617401,44.28746738,1276.228401
2.9400,81.96364939,44.40042588,1276.380147
2.9450,81.7273096,44.50427144,1276.531081
2.9500,81.4886568,44.60042721,1276.680938
2.9550,81.24774947,44.68983306,1276.830001
2.9600,81.00516548,44.77267051,1276.978047
2.9650,80.75894842,44.8491404,1277.126144
2.9700,80.50987697,44.92182127,1277.274808
2.9750,80.25857278,44.99134259,1277.423966
2.9800,80.00579016,45.05800597,1277.573335
2.9850,79.75122274,45.12291231,1277.72348
2.9900,79.49508923,45.18490129,1277.873928
2.9950,79.23721796,45.24457117,1278.024976
3.0000,78.97828685,45.30332175,1278.176764
3.0050,78.71767779,45.36089293,1278.32953
3.0100,78.45491131,45.41899302,1278.48407
3.0150,78.19172337,45.47825603,1278.639719
3.0200,77.92906686,45.53926023,1278.796148
3.0250,77.66666819,45.60272225,1278.953758
3.0300,77.40541685,45.66749416,1279.111693
3.0350,77.1462036,45.73522225,1279.270063
3.0400,76.88831259,45.8051822,1279.428973
3.0450,76.63190328,45.87761431,1279.588411
3.0500,76.37749535,45.95246364,1279.748104
3.0550,76.12549226,46.03125513,1279.908327
3.0600,75.87613522,46.1125358,1280.06844
3.0650,75.62934599,46.19652279,1280.228558
3.0700,75.38451239,46.28193294,1280.388537
3.0750,75.14154933,46.36930428,1280.548626
3.0800,74.89931244,46.45850498,1280.709376
3.0850,74.65785757,46.54925507,1280.870674
3.0900,74.41673401,46.64261353,1281.033121
3.0950,74.17717127,46.73945072,1281.19639
3.1000,73.93949243,46.83897905,1281.360038
3.1050,73.70364085,46.9414119,1281.524168
3.1100,73.46957688,47.04728137,1281.689006
3.1150,73.23535452,47.15557199,1281.855215
3.1200,73.00203156,47.26771975,1282.02279
3.1250,72.76746865,47.38257825,1282.192451
3.1300,72.53158243,47.50032103,1282.364301
3.1350,72.29504036,47.62080294,1282.537917
3.1400,72.05702113,47.7439488,1282.713697
3.1450,71.81874457,47.87021436,1282.891147
3.1500,71.57945421,47.99914985,1283.070478
3.1550,71.3407604,48.13055953,1283.250774
3.1600,71.10230087,48.26427526,1283.432095
3.1650,70.86315982,48.39817848,1283.61418
3.1700,70.6229692,48.53331073,1283.797595
3.1750,70.38247934,48.66902543,1283.981689
3.1800,70.14091725,48.80349968,1284.166225
3.1850,69.89670567,48.93588588,1284.351762
3.1900,69.64947705,49.06417938,1284.5378
3.1950,69.39858298,49.18916195,1284.724952
3.2000,69.14363448,49.3097747,1284.913047
3.2050,68.88514336,49.42571524,1285.101733
3.2100,68.62166293,49.53587699,1285.291409
3.2150,68.35332929,49.64083727,1285.482222
3.2200,68.08037751,49.74095945,1285.674155
3.2250,67.80292187,49.83637339,1285.867195
3.2300,67.52256316,49.92602808,1286.060068
3.2350,67.23929657,50.01135568,1286.25331
3.2400,66.95308827,50.09219128,1286.446894
3.2450,66.664835,50.16877903,1286.64043
3.2500,66.37326369,50.24037011,1286.83435
3.2550,66.07734661,50.30679314,1287.029221
3.2600,65.77640551,50.36831228,1287.225539
3.2650,65.47227272,50.42679452,1287.422987
3.2700,65.16504086,50.47997398,1287.620663
3.2750,64.85443261,50.52781697,1287.818751
3.2800,64.54016414,50.57132576,1288.017793
3.2850,64.22277033,50.60967477,1288.217212
3.2900,63.90285289,50.6447747,1288.417365
3.2950,63.58030652,50.67805542,1288.618884
3.3000,63.25502314,50.70957743,1288.821856
3.3050,62.92780308,50.73964684,1289.025956
3.3100,62.59823008,50.76867023,1289.231639
3.3150,62.26758902,50.79640693,1289.438078
3.3200,61.93426463,50.82310743,1289.646309
3.3250,61.5990062,50.85034584,1289.856517
3.3300,61.26247498,50.87929714,1290.068742
3.3350,60.92547024,50.91132708,1290.283056
3.3400,60.58951297,50.94720607,1290.49883
3.3450,60.25508029,50.98672978,1290.715724
3.3500,59.92221816,51.03106209,1290.934161
3.3550,59.59217846,51.08042621,1291.153478
3.3600,59.26680111,51.13671951,1291.373261
3.3650,58.94661997,51.20030717,1291.593342
3.3700,58.63200297,51.27199362,1291.813789
3.3750,58.32405844,51.35149606,1292.033792
3.3800,58.02325907,51.43830467,1292.252861
3.3850,57.73087723,51.53310412,1292.47045
3.3900,57.44705742,51.63516569,1292.686209
3.3950,57.17060435,51.74332909,1292.900387
3.4000,56.90245602,51.85792539,1293.112507
3.4050,56.64229909,51.97862777,1293.322602
3.4100,56.39106567,52.1046348,1293.529746
3.4150,56.14943072,52.23531084,1293.733241
3.4200,55.91619083,52.37017682,1293.933588
3.4250,55.69141659,52.50848918,1294.130439
3.4300,55.4752735,52.64942631,1294.32333
3.4350,55.26697644,52.79114572,1294.51199
3.4400,55.06699856,52.93439319,1294.69638
3.4450,54.87338753,53.07754292,1294.877031
3.4500,54.68710619,53.22047304,1295.05326
3.4550,54.50686951,53.36302986,1295.225736
3.4600,54.33219971,53.50352497,1295.394079
3.4650,54.16246672,53.64245278,1295.558859
3.4700,53.99864132,53.7780618,1295.718736
3.4750,53.8398412,53.91013559,1295.874137
3.4800,53.68615742,54.0389227,1296.025075
3.4850,53.53714506,54.16464931,1296.171901
3.4900,53.39228571,54.2870699,1296.31478
3.4950,53.25119377,54.40538683,1296.453645
3.5000,53.11335213,54.51859547,1296.588447
3.5050,52.97848468,54.62772779,1296.719734
3.5100,52.84633689,54.73205805,1296.847346
3.5150,52.71712629,54.83218261,1296.971363
3.5200,52.5903914,54.92731632,1297.091773
3.5250,52.46532235,55.01605767,1297.208525
3.5300,52.34119775,55.09967857,1297.32258
3.5350,52.21797596,55.17711498,1297.433543
3.5400,52.09456506,55.24704078,1297.541579
3.5450,51.97058991,55.30953074,1297.646949
3.5500,51.84483169,55.36516406,1297.750691
3.5550,51.71739603,55.41318311,1297.852404
3.5600,51.58706982,55.45476264,1297.953334
3.5650,51.45339732,55.4894837,1298.053635
3.5700,51.3154578,55.51837907,1298.154347
3.5750,51.17366542,55.54247134,1298.255624
3.5800,51.02797373,55.56173996,1298.357523
3.5850,50.87643303,55.57579151,1298.461153
3.5900,50.71900124,55.58553414,1298.566937
3.5950,50.55427505,55.59059846,1298.67568
3.6000,50.38164244,55.59132491,1298.787954
3.6050,50.20088193,55.5884356,1298.904201
3.6100,50.011367,55.58320067,1299.025356
3.6150,49.8123861,55.57585736,1299.152036
3.6200,49.60570632,55.56699326,1299.283401
3.6250,49.39013599,55.55553505,1299.419843
3.6300,49.16462929,55.54188368,1299.56223
3.6350,48.92919363,55.52558045,1299.7104
3.6400,48.68338165,55.50686992,1299.864775
3.6450,48.4275703,55.48603571,1300.025243
3.6500,48.16309064,55.46285241,1300.19089
3.6550,47.88907586,55.4367528,1300.362062
3.6600,47.6062483,55.40609047,1300.537653
3.6650,47.31476972,55.370094,1300.717269
3.6700,47.01560822,55.32813117,1300.900022
3.6750,46.70856528,55.27918924,1301.085658
3.6800,46.39448086,55.22327655,1301.273625
3.6850,46.07266655,55.15939733,1301.463996
3.6900,45.74346873,55.08675157,1301.65621
3.6950,45.40885073,55.0056675,1301.849118
3.7000,45.06892953,54.91570576,1302.042466
3.7050,44.7246447,54.81638397,1302.23546
3.7100,44.37508345,54.70826695,1302.428942
3.7150,44.02156232,54.59087483,1302.621874
3.7200,43.66542141,54.46422509,1302.813369
3.7250,43.30715299,54.32871039,1303.003243
3.7300,42.9468906,54.1850274,1303.191687
3.7350,42.58512447,54.0335864,1303.378547
3.7400,42.22135586,53.87357463,1303.563856
3.7450,41.85756373,53.7062168,1303.746725
3.7500,41.49358467,53.53137568,1303.927244
3.7550,41.13001342,53.34937818,1304.105162
3.7600,40.76709415,53.16172869,1304.280931
3.7650,40.40619759,52.96876275,1304.453735
3.7700,40.04699628,52.77293869,1304.624793
3.7750,39.69034453,52.5753234,1304.793958
3.7800,39.33673836,52.37650361,1304.961138
3.7850,38.98705649,52.17667935,1305.125779
3.7900,38.6420176,51.97837694,1305.288405
3.7950,38.30206648,51.78137904,1305.448616
3.8000,37.96724959,51.58676383,1305.606778
3.8050,37.63843062,51.39546944,1305.762615
3.8100,37.31641424,51.20777138,1305.915666
3.8150,37.00039137,51.02370711,1306.066519
3.8200,36.69210098,50.84485405,1306.214528
3.8250,36.3912974,50.67051435,1306.359534
3.8300,36.09793706,50.50097915,1306.501654
3.8350,35.81290093,50.33699596,1306.640518
3.8400,35.53547773,50.18022096,1306.777228
3.8450,35.2666449,50.03079041,1306.911122
3.8500,35.00650212,49.88888327,1307.042147
3.8550,34.75565146,49.75524538,1307.170166
3.8600,34.51479102,49.63017966,1307.294802
3.8650,34.28388238,49.51337162,1307.415904
3.8700,34.06267159,49.40539092,1307.533842
3.8750,33.85058321,49.30595721,1307.648899
3.8800,33.64710451,49.21528613,1307.761536
3.8850,33.45341647,49.13436087,1307.871217
3.8900,33.26882981,49.06311853,1307.978379
3.8950,33.09478094,49.00190195,1308.08207
3.9000,32.93091952,48.95051583,1308.18243
3.9050,32.77746807,48.9097557,1308.279613
3.9100,32.63499877,48.87827899,1308.37264
3.9150,32.50255372,48.85521777,1308.461814
3.9200,32.37964732,48.84081866,1308.547606
3.9250,32.2667577,48.83525843,1308.629661
3.9300,32.1635608,48.83757111,1308.707832
3.9350,32.06962163,48.84610712,1308.78177
3.9400,31.98516894,48.86044084,1308.851103
3.9450,31.9100638,48.87928721,1308.91542
3.9500,31.84343587,48.9023392,1308.975215
3.9550,31.7851016,48.92833809,1309.03007
3.9600,31.73386752,48.95730572,1309.080879
3.9650,31.69052413,48.98794271,1309.126503
3.9700,31.6544851,49.02015703,1309.167319
3.9750,31.62588541,49.05352792,1309.203014
3.9800,31.60425923,49.08692479,1309.233477
3.9850,31.5900958,49.12002362,1309.258187
3.9900,31.58401049,49.15241111,1309.276506
3.9950,31.58644043,49.18341043,1309.28783
4.0000,31.59655519,49.21252465,1309.292558
4.0050,31.6146651,49.23885907,1309.290061
4.0100,31.64129289,49.26282452,1309.280153
4.0150,31.67572122,49.28342668,1309.262915
4.0200,31.71810603,49.30037562,1309.238114
4.0250,31.76883926,49.31348877,1309.205387
4.0300,31.82725966,49.32228858,1309.165008
4.0350,31.8933229,49.32589821,1309.11668
4.0400,31.9668794,49.3246814,1309.060624
4.0450,32.04804381,49.31864523,1308.996778
4.0500,32.13605521,49.30727169,1308.925493
4.0550,32.22974253,49.28953368,1308.847253
4.0600,32.33048211,49.26574291,1308.761203
4.0650,32.43763253,49.23686982,1308.668197
4.0700,32.55147004,49.20169424,1308.567562
4.0750,32.67089797,49.15951841,1308.459834
4.0800,32.79495365,49.11104323,1308.346058
4.0850,32.92418035,49.05668945,1308.225997
4.0900,33.05789241,48.99569132,1308.099929
4.0950,33.19526313,48.92990117,1307.96917
4.1000,33.33740532,48.85996383,1307.833187
4.1050,33.4844514,48.78566862,1307.69183
4.1100,33.63620818,48.70844829,1307.545818
4.1150,33.79281584,48.62802137,1307.394979
4.1200,33.95357775,48.54468732,1307.23994
4.1250,34.11923059,48.46033894,1307.080981
4.1300,34.28966076,48.37508169,1306.918236
4.1350,34.46477845,48.28957302,1306.752044
4.1400,34.64533861,48.20394571,1306.581949
4.1450,34.83058534,48.11874842,1306.40872
4.1500,35.02139802,48.03302824,1306.231421
4.1550,35.21631652,47.94823796,1306.051692
4.1600,35.41455529,47.86323268,1305.869664
4.1650,35.61541155,47.77851837,1305.686044
4.1700,35.81966191,47.69382644,1305.500176
4.1750,36.02500623,47.60851807,1305.313475
4.1800,36.23161923,47.52272649,1305.125871
4.1850,36.43849392,47.43626356,1304.93802
4.1900,36.64600296,47.34905208,1304.749662
4.1950,36.85267807,47.26123362,1304.561885
4.2000,37.0588593,47.17342634,1304.374729
4.2050,37.26393148,47.08588104,1304.188736
4.2100,37.46809388,46.99919748,1304.004003
4.2150,37.67168897,46.91429911,1303.820688
4.2200,37.8740265,46.83132578,1303.639286
4.2250,38.07524013,46.75029203,1303.459731
4.2300,38.27616404,46.6716687,1303.281623
4.2350,38.47684452,46.59573087,1303.105015
4.2400,38.67849229,46.52241966,1302.929036
4.2450,38.88088787,46.45104596,1302.753563
4.2500,39.08417698,46.38046162,1302.578026
4.2550,39.28831671,46.31099973,1302.40262
4.2600,39.4940185,46.24294142,1302.226973
4.2650,39.70056306,46.17579412,1302.051367
4.2700,39.90878759,46.10841777,1301.87482
4.2750,40.11831723,46.04065785,1301.697531
4.2800,40.32885276,45.97232621,1301.519645
4.2850,40.54034537,45.90306234,1301.341067
4.2900,40.75333096,45.83224685,1301.1612
4.2950,40.96669749,45.75950432,1300.980675
4.3000,41.18055977,45.6848435,1300.799409
4.3050,41.39464888,45.60794543,1300.617489
4.3100,41.60755497,45.5261017,1300.434836
4.3150,41.82002601,45.44160582,1300.251771
4.3200,42.03181909,45.35398691,1300.068281
4.3250,42.2435194,45.2626343,1299.883724
4.3300,42.45559922,45.16779989,1299.697902
4.3350,42.66849321,45.07087634,1299.511013
4.3400,42.88291067,44.97152317,1299.322476
4.3450,43.09895466,44.8698002,1299.132279
4.3500,43.31767049,44.76708471,1298.940248
4.3550,43.53988492,44.66288277,1298.745634
4.3600,43.76552266,44.55765864,1298.548678
4.3650,43.99495294,44.45082308,1298.348902
4.3700,44.22783418,44.34192449,1298.146423
4.3750,44.46486708,44.2304659,1297.940625
4.3800,44.70662252,44.11666366,1297.731169
4.3850,44.95266015,43.99987706,1297.518187
4.3900,45.2029109,43.8808242,1297.301967
4.3950,45.45840302,43.75877797,1297.081638
4.4000,45.7187741,43.6332333,1296.857271
4.4050,45.98275216,43.50516976,1296.63013
4.4100,46.24992756,43.37397266,1296.400299
4.4150,46.52137024,43.23985103,1296.167173
4.4200,46.79744817,43.10209055,1295.930306
4.4250,47.07819402,42.96046348,1295.689616
4.4300,47.36307446,42.81528605,1295.445636
4.4350,47.65110393,42.66532949,1295.198593
4.4400,47.94204259,42.51167831,1294.949075
4.4450,48.23596373,42.35321521,1294.696659
4.4500,48.53203837,42.19126345,1294.442344
4.4550,48.83073605,42.02549007,1294.185724
4.4600,49.13183245,41.85637895,1293.927128
4.4650,49.43552402,41.68346726,1293.666299
4.4700,49.7406137,41.50661357,1293.403974
4.4750,50.04852328,41.32657061,1293.139571
4.4800,50.35845566,41.14287192,1292.873433
4.4850,50.67121409,40.95563387,1292.605139
4.4900,50.98604162,40.76476561,1292.335145
4.4950,51.30387487,40.57087606,1292.063092
4.5000,51.62348599,40.37290754,1291.789415
4.5050,51.94502997,40.1706474,1291.513955
4.5100,52.26738416,39.96441015,1291.237556
4.5150,52.59093771,39.754363,1290.960016
4.5200,52.9150718,39.54061265,1290.68177
4.5250,53.23975402,39.32337959,1290.402921
4.5300,53.56488852,39.10303328,1290.123655
4.5350,53.89151925,38.88049733,1289.843658
4.5400,54.21774974,38.65438851,1289.563666
4.5450,54.54372392,38.42682254,1289.28432
4.5500,54.86976578,38.19738335,1289.005288
4.5550,55.19622386,37.96746452,1288.72683
4.5600,55.52284597,37.73548159,1288.448538
4.5650,55.85024623,37.50290888,1288.170562
4.5700,56.17856046,37.27088198,1287.893173
4.5750,56.50797552,37.03865071,1287.616037
4.5800,56.8391981,36.80701853,1287.338966
4.5850,57.17107622,36.57495258,1287.062342
4.5900,57.50291226,36.34330598,1286.786843
4.5950,57.83524221,36.11215813,1286.512164
4.6000,58.16836843,35.88181227,1286.238217
4.6050,58.50213219,35.65232745,1285.965136
4.6100,58.83759863,35.42566791,1285.692877
4.6150,59.17443982,35.19955138,1285.420946
4.6200,59.51301136,34.97448209,1285.149326
4.6250,59.85239449,34.75088849,1284.878687
4.6300,60.1921642,34.52816252,1284.609058
4.6350,60.53158406,34.30579472,1284.3407
4.6400,60.87006915,34.08356321,1284.07385
4.6450,61.20773259,33.86227524,1283.808678
4.6500,61.54429991,33.64057033,1283.544885
4.6550,61.8805308,33.41993291,1283.282493
4.6600,62.21464524,33.19968286,1283.022253
4.6650,62.54680368,32.97947489,1282.763957
4.6700,62.8765968,32.75982425,1282.507995
4.6750,63.20422652,32.54201379,1282.254646
4.6800,63.53025413,32.32503977,1282.003288
4.6850,63.85401191,32.11087829,1281.754891
4.6900,64.17635453,31.89808663,1281.508512
4.6950,64.4967701,31.68665293,1281.264399
4.7000,64.81448663,31.47617134,1281.022845
4.7050,65.1298974,31.26627717,1280.783487
4.7100,65.44364949,31.0562675,1280.545735
4.7150,65.75487378,30.84575771,1280.309886
4.7200,66.06212387,30.63433271,1280.076591
4.7250,66.36529807,30.42248373,1279.846005
4.7300,66.66535613,30.2082901,1279.616978
4.7350,66.96128838,29.99299967,1279.390454
4.7400,67.25499197,29.77558914,1279.165026
4.7450,67.54515939,29.55660251,1278.941558
4.7500,67.83222295,29.33514862,1278.719561
4.7550,68.11613455,29.1096955,1278.49857
4.7600,68.3972661,28.8796269,1278.278237
4.7650,68.67536523,28.64427038,1278.058488
4.7700,68.95067293,28.40330567,1277.839127
4.7750,69.22305656,28.15705979,1277.620268
4.7800,69.49323367,27.90455531,1277.401233
4.7850,69.76115356,27.64695847,1277.18241
4.7900,70.02734628,27.38414784,1276.963475
4.7950,70.29191372,27.11536717,1276.744214
4.8000,70.55537583,26.84149379,1276.524597
4.8050,70.81892825,26.56280818,1276.304089
4.8100,71.08416608,26.28028385,1276.082184
4.8150,71.35162143,25.99441301,1275.858804
4.8200,71.62299515,25.7055158,1275.63319
4.8250,71.89747462,25.41454044,1275.406111
4.8300,72.17498981,25.12208896,1275.177826
4.8350,72.45534377,24.82794053,1274.948428
4.8400,72.74006846,24.5347623,1274.717865
4.8450,73.02989136,24.24251145,1274.485777
4.8500,73.32483722,23.9528136,1274.252641
4.8550,73.62608012,23.66518344,1274.017718
4.8600,73.93315139,23.37990784,1273.781381
4.8650,74.24564282,23.09755236,1273.544008
4.8700,74.56375812,22.81830684,1273.305567
4.8750,74.88808197,22.5433149,1273.066078
4.8800,75.21813842,22.27196356,1272.825649
4.8850,75.55568224,22.00621649,1272.583914
4.8900,75.90063335,21.74677769,1272.341133
4.8950,76.25327551,21.49343584,1272.09712
4.9000,76.61362855,21.24592301,1271.851833
4.9050,76.98154965,21.00428675,1271.605359
4.9100,77.35648697,20.76804319,1271.357909
4.9150,77.7374603,20.5375037,1271.110076
4.9200,78.12444193,20.31250189,1270.861798
4.9250,78.51714559,20.09253889,1270.613139
4.9300,78.91584032,19.87836875,1270.364186
4.9350,79.32202569,19.66967378,1270.114129
4.9400,79.73395115,19.46676672,1269.863953
4.9450,80.15179632,19.26814591,1269.613189
4.9500,80.57483858,19.07431968,1269.362327
4.9550,81.00204429,18.88451565,1269.111689
4.9600,81.4340504,18.69865493,1268.860987
4.9650,81.87038867,18.51610188,1268.610288
4.9700,82.31151853,18.33600696,1268.359156
4.9750,82.75696511,18.1575056,1268.107602
4.9800,83.20527829,17.98037496,1267.856263
4.9850,83.65665893,17.80181568,1267.604317
4.9900,84.10914097,17.62195115,1267.352744
4.9950,84.56230027,17.44098451,1267.101772
5.0000,85.01567658,17.25847623,1266.851489
5.0050,85.4704574,17.0742526,1266.601252
5.0100,85.92551288,16.8887845,1266.351682
5.0150,86.38079641,16.70226115,1266.102891
5.0200,86.83794175,16.5149583,1265.854175
5.0250,87.29604793,16.3250345,1265.605519
5.0300,87.75518254,16.1344083,1265.357388
5.0350,88.21584185,15.94182928,1265.109205
5.0400,88.67662848,15.74630931,1264.861403
5.0450,89.13801464,15.54817651,1264.613845
5.0500,89.6001502,15.34714201,1264.366401
5.0550,90.06251429,15.14309843,1264.119286
5.0600,90.52563585,14.93708278,1263.872478
5.0650,90.98903939,14.72945542,1263.626282
5.0700,91.45384554,14.51991717,1263.380143
5.0750,91.92004175,14.30843593,1263.134068
5.0800,92.38750895,14.09518776,1262.888209
5.0850,92.85586138,13.87985747,1262.64265
5.0900,93.32610243,13.66219396,1262.396906
5.0950,93.79822558,13.4425211,1262.151071
5.1000,94.27237263,13.22035803,1261.904985
5.1050,94.74838215,12.99507627,1261.658597
5.1100,95.22520091,12.76526166,1261.41204
5.1150,95.70232208,12.53138059,1261.165626
5.1200,96.18004046,12.29419947,1260.919431
5.1250,96.65898612,12.05304952,1260.673003
5.1300,97.14105661,11.80859344,1260.425716
5.1350,97.62531914,11.56145442,1260.178105
5.1400,98.11192064,11.31130967,1259.930065
5.1450,98.60189378,11.05866212,1259.681289
5.1500,99.09587743,10.80220733,1259.431236
5.1550,99.593886,10.54209191,1259.17996
5.1600,100.096321,10.27986234,1258.927656
5.1650,100.6039412,10.01269496,1258.67342
5.1700,101.1168253,9.739801117,1258.41707
5.1750,101.6345513,9.460529812,1258.158693
5.1800,102.1568721,9.17485527,1257.898416
5.1850,102.6831671,8.880336794,1257.635981
5.1900,103.2133618,8.574988282,1257.371023
5.1950,103.7467973,8.258406377,1257.103763
5.2000,104.2834016,7.929911254,1256.834144
5.2050,104.822687,7.587742049,1256.562069
5.2100,105.3648205,7.231554708,1256.287461
5.2150,105.9101423,6.861965893,1256.010388
5.2200,106.4567136,6.477649449,1255.731392
5.2250,107.0053129,6.079380008,1255.450418
5.2300,107.5558041,5.666156494,1255.167392
5.2350,108.1057737,5.239266752,1254.883593
5.2400,108.6556372,4.798237148,1254.598821
5.2450,109.2035424,4.344648596,1254.314183
5.2500,109.7501751,3.879573898,1254.029678
5.2550,110.294875,3.403901455,1253.745775
5.2600,110.8373392,2.919500477,1253.462998
5.2650,111.3779363,2.428246865,1253.181616
5.2700,111.9151582,1.932611169,1252.9027
5.2750,112.4497629,1.434596918,1252.626337
5.2800,112.9829327,0.9362977447,1252.352501
5.2850,113.5152243,0.4406468235,1252.081551
5.2900,114.0473857,-0.05038910795,1251.813568
5.2950,114.5794449,-0.5366356895,1251.548555
5.3000,115.1120757,-1.015985337,1251.286643
5.3050,115.6444012,-1.487660451,1251.028278
5.3100,116.1783913,-1.950144441,1250.773002
5.3150,116.7137595,-2.402745436,1250.520972
5.3200,117.2491553,-2.845486001,1250.272622
5.3250,117.7847904,-3.277614369,1250.027953
5.3300,118.3199505,-3.699114321,1249.787128
5.3350,118.8551163,-4.11000953,1249.549943
5.3400,119.3903903,-4.509212117,1249.316478
5.3450,119.9265423,-4.896574549,1249.08646
5.3500,120.4619991,-5.272929982,1248.860198
5.3550,120.9980047,-5.637784709,1248.63733
5.3600,121.5331116,-5.992246752,1248.418109
5.3650,122.0665691,-6.335978723,1248.202845
5.3700,122.5978451,-6.668741461,1247.991702
5.3750,123.127099,-6.989839701,1247.784708
5.3800,123.6545254,-7.299174342,1247.58173
5.3850,124.1798113,-7.598219201,1247.382594
5.3900,124.7022131,-7.886613899,1247.187562
5.3950,125.2212344,-8.166161143,1246.996422
5.4000,125.7371269,-8.43773168,1246.808908
5.4050,126.2489077,-8.701125309,1246.625301
5.4100,126.7576983,-8.956233312,1246.445175
5.4150,127.2629492,-9.205396205,1246.26831
5.4200,127.7645424,-9.449974831,1246.094481
5.4250,128.2620372,-9.68992136,1245.923807
5.4300,128.7539244,-9.927064735,1245.756425
5.4350,129.2417682,-10.1617769,1245.59175
5.4400,129.7246017,-10.39443817,1245.42999
5.4450,130.2011448,-10.62595687,1245.271387
5.4500,130.6701823,-10.85613607,1245.116309
5.4550,131.1321969,-11.08613749,1244.964415
5.4600,131.5869505,-11.31737699,1244.815491
5.4650,132.0333257,-11.54875489,1244.670006
5.4700,132.4701019,-11.7816107,1244.528066
5.4750,132.8979778,-12.01493934,1244.389539
5.4800,133.3176752,-12.24997383,1244.253977
5.4850,133.7289017,-12.48759433,1244.121304
5.4900,134.1318408,-12.72739442,1243.991474
5.4950,134.5270365,-12.96897038,1243.864387
5.5000,134.9144515,-13.21302528,1243.739893
5.5050,135.2947845,-13.4580107,1243.617998
5.5100,135.6677891,-13.70426542,1243.498712
5.5150,136.0340766,-13.95133758,1243.381887
5.5200,136.3956091,-14.1987762,1243.267032
5.5250,136.7528168,-14.44601205,1243.154056
5.5300,137.1057662,-14.69305492,1243.042933
5.5350,137.4559194,-14.94039283,1242.933159
5.5400,137.8041151,-15.18748127,1242.824557
5.5450,138.1509508,-15.43491802,1242.716865
5.5500,138.4950716,-15.68346388,1242.610367
5.5550,138.836829,-15.93309112,1242.504977
5.5600,139.1759513,-16.18320394,1242.400847
5.5650,139.5119181,-16.43380429,1242.298123
5.5700,139.845619,-16.68538136,1242.196484
5.5750,140.1762352,-16.93684163,1242.096316
5.5800,140.5037034,-17.18738609,1241.99776
5.5850,140.8257317,-17.43764985,1241.901334
5.5900,141.1419917,-17.68711462,1241.807193
5.5950,141.4539447,-17.93433158,1241.715113
5.6000,141.7611427,-18.17843558,1241.62529
5.6050,142.0631455,-18.41941227,1241.537847
5.6100,142.3584732,-18.65815957,1241.452992
5.6150,142.6459352,-18.89529415,1241.370929
5.6200,142.926383,-19.12958719,1241.291556
5.6250,143.1995427,-19.36043054,1241.214972
5.6300,143.4654588,-19.5890331,1241.140972
5.6350,143.7235209,-19.81471183,1241.06975
5.6400,143.9741781,-20.03732611,1241.001196
5.6450,144.2175571,-20.25667527,1240.935276
5.6500,144.4542164,-20.47098383,1240.872066
5.6550,144.6832078,-20.67932267,1240.811902
5.6600,144.9052782,-20.88086113,1240.75469
5.6650,145.1210059,-21.07557985,1240.700231
5.6700,145.3307059,-21.26248776,1240.648531
5.6750,145.5335344,-21.44292407,1240.599608
5.6800,145.7299265,-21.61604847,1240.553438
5.6850,145.9200737,-21.78161771,1240.509942
5.6900,146.1035326,-21.94004155,1240.46916
5.6950,146.2802334,-22.0905213,1240.431181
5.7000,146.4498019,-22.23246084,1240.39614
5.7050,146.6118582,-22.36626473,1240.364078
5.7100,146.7653749,-22.49199301,1240.33522
5.7150,146.910991,-22.60941194,1240.309403
5.7200,147.0486447,-22.7175165,1240.286728
5.7250,147.1788308,-22.81821531,1240.266837
5.7300,147.3012462,-22.91072249,1240.249889
5.7350,147.4145168,-22.99598965,1240.236118
5.7400,147.5193732,-23.07482592,1240.225223
5.7450,147.6159934,-23.14767276,1240.2171
5.7500,147.7052479,-23.21500649,1240.211453
5.7550,147.7871079,-23.27712425,1240.208237
5.7600,147.8619916,-23.3340639,1240.207371
5.7650,147.9307234,-23.38692266,1240.208494
5.7700,147.993637,-23.43478859,1240.211646
5.7750,148.0503664,-23.47976639,1240.216666
5.7800,148.1008419,-23.52326649,1240.223427
5.7850,148.1452487,-23.56317228,1240.232129
5.7900,148.1839621,-23.60013294,1240.242639
5.7950,148.2175433,-23.63534688,1240.254644
5.8000,148.2472082,-23.66927681,1240.267826
5.8050,148.2728269,-23.70270938,1240.282085
5.8100,148.2963376,-23.73563937,1240.296923
5.8150,148.3174832,-23.76939079,1240.312253
5.8200,148.3377803,-23.80404272,1240.327693
5.8250,148.3566755,-23.84101724,1240.343201
5.8300,148.3750334,-23.87955612,1240.358668
5.8350,148.3929218,-23.91942275,1240.374085
5.8400,148.4123196,-23.96154906,1240.388868
5.8450,148.4336687,-24.00467949,1240.403049
5.8500,148.4596806,-24.04805271,1240.416046
5.8550,148.4899786,-24.09175447,1240.427935
5.8600,148.5249254,-24.13567834,1240.438659
5.8650,148.5656549,-24.17995604,1240.4479
5.8700,148.6121799,-24.22329346,1240.455836
5.8750,148.6648502,-24.26740923,1240.462184
5.8800,148.7226349,-24.31214707,1240.467199
5.8850,148.7880541,-24.35632557,1240.470392
5.8900,148.8617824,-24.40157854,1240.471389
5.8950,148.9422856,-24.44702134,1240.47068
5.9000,149.028861,-24.49408458,1240.468272
5.9050,149.1207896,-24.54289647,1240.46432
5.9100,149.2178731,-24.59295523,1240.458943
5.9150,149.3213751,-24.64264877,1240.452037
5.9200,149.430655,-24.69357225,1240.443575
5.9250,149.5454783,-24.74534143,1240.433673
5.9300,149.6660249,-24.79734171,1240.422358
5.9350,149.7922183,-24.84836978,1240.409824
5.9400,149.9225921,-24.8979141,1240.396476
5.9450,150.056607,-24.94680531,1240.382334
5.9500,150.1938197,-24.99430182,1240.367587
5.9550,150.3336388,-25.04151856,1240.352239
5.9600,150.475872,-25.08752756,1240.336417
5.9650,150.6198447,-25.13224958,1240.3203
5.9700,150.7637948,-25.17591039,1240.304268
5.9750,150.9072459,-25.21746522,1240.288556
5.9800,151.0491183,-25.25754996,1240.273341
5.9850,151.188472,-25.29578522,1240.258904
5.9900,151.3245575,-25.33096796,1240.245549
5.9950,151.4575579,-25.3633389,1240.233199
6.0000,151.5862927,-25.39189505,1240.222287
6.0050,151.7101296,-25.41658502,1240.212939
6.0100,151.829485,-25.43725062,1240.205094
6.0150,151.9432222,-25.45213404,1240.199208
6.0200,152.0500425,-25.4625009,1240.19547
6.0250,152.1483729,-25.46761323,1240.194303
6.0300,152.2385582,-25.46799853,1240.19556
6.0350,152.3208053,-25.46368076,1240.19917
6.0400,152.394242,-25.4543393,1240.205368
6.0450,152.4587151,-25.44067758,1240.214089
6.0500,152.5143923,-25.42422842,1240.22511
6.0550,152.560885,-25.40366232,1240.238664
6.0600,152.5987908,-25.38159992,1240.254279
6.0650,152.6291138,-25.35760184,1240.271782
6.0700,152.6528643,-25.33326258,1240.29074
6.0750,152.6702602,-25.30821021,1240.311151
6.0800,152.6832279,-25.28095424,1240.332725
6.0850,152.6925877,-25.25304507,1240.355092
6.0900,152.6988523,-25.22365346,1240.378213
6.0950,152.7020963,-25.19240069,1240.40213
6.1000,152.7021874,-25.15893199,1240.426906
6.1050,152.7008505,-25.1235027,1240.45213
6.1100,152.6977908,-25.08706621,1240.477755
6.1150,152.6935878,-25.04905313,1240.503703
6.1200,152.6870155,-25.00957823,1240.530238
6.1250,152.6788034,-24.96947619,1240.557103
6.1300,152.66899,-24.92921598,1240.584217
6.1350,152.6575247,-24.88880561,1240.611604
6.1400,152.6429216,-24.84801269,1240.639621
6.1450,152.62573,-24.80780844,1240.668028
6.1500,152.604851,-24.76898418,1240.696985
6.1550,152.5813074,-24.73116376,1240.726302
6.1600,152.5555882,-24.69452652,1240.755842
6.1650,152.5262487,-24.65961398,1240.785889
6.1700,152.494992,-24.62767961,1240.815889
6.1750,152.4623349,-24.59746366,1240.845882
6.1800,152.4289096,-24.57041272,1240.875537
6.1850,152.3948139,-24.54650699,1240.904838
6.1900,152.3610876,-24.52617571,1240.933491
6.1950,152.3276579,-24.50998067,1240.961419
6.2000,152.2948572,-24.49893056,1240.988428
6.2050,152.2623634,-24.49415013,1241.014428
6.2100,152.2301567,-24.49653118,1241.039322
6.2150,152.1977531,-24.50754173,1241.063036
6.2200,152.162869,-24.52679405,1241.08613
6.2250,152.1247801,-24.55500283,1241.108684
6.2300,152.081813,-24.59301501,1241.131003
6.2350,152.0317818,-24.64065317,1241.153599
6.2400,151.9739672,-24.69891287,1241.176551
6.2450,151.9060508,-24.76634174,1241.200579
6.2500,151.8262312,-24.84379835,1241.22602
6.2550,151.7344997,-24.92938661,1241.253124
6.2600,151.6284118,-25.02339519,1241.282455
6.2650,151.5077903,-25.12530132,1241.314129
6.2700,151.3725375,-25.23301906,1241.34845
6.2750,151.2228078,-25.3479069,1241.385243
6.2800,151.0588691,-25.46833974,1241.424656
6.2850,150.8815131,-25.59331964,1241.46664
6.2900,150.6925661,-25.72359812,1241.5107
6.2950,150.4916157,-25.85791886,1241.55711
6.3000,150.2808268,-25.99728402,1241.605232
6.3050,150.0628849,-26.14067131,1241.654569
6.3100,149.8387015,-26.28794606,1241.704936
6.3150,149.6104147,-26.43976718,1241.755759
6.3200,149.3809681,-26.59583161,1241.806358
6.3250,149.1532669,-26.75531684,1241.85614
6.3300,148.9287785,-26.91865769,1241.904694
6.3350,148.7099629,-27.08473544,1241.95154
6.3400,148.4984676,-27.25343229,1241.996293
6.3450,148.2956749,-27.42521071,1242.038541
6.3500,148.1025202,-27.5981465,1242.078258
6.3550,147.9193039,-27.77425628,1242.115125
6.3600,147.7463693,-27.95156606,1242.149285
6.3650,147.5842346,-28.12999526,1242.180592
6.3700,147.4324346,-28.30908169,1242.209205
6.3750,147.2914052,-28.48868051,1242.235022
6.3800,147.1604877,-28.66828943,1242.258251
6.3850,147.0391443,-28.84740423,1242.279081
6.3900,146.9283063,-29.02620102,1242.297256
6.3950,146.8268358,-29.20476425,1242.313043
6.4000,146.7354482,-29.3824633,1242.326313
6.4050,146.6530138,-29.55882934,1242.337401
6.4100,146.5792666,-29.73285784,1242.346472
6.4150,146.5146053,-29.90494278,1242.35338
6.4200,146.4596089,-30.07489831,1242.357995
6.4250,146.415365,-30.2416769,1242.360145
6.4300,146.3817587,-30.40575096,1242.359798
6.4350,146.358863,-30.56750948,1242.356896
6.4400,146.3477566,-30.72624455,1242.35123
6.4450,146.3484311,-30.8818082,1242.342827
6.4500,146.3610416,-31.03402624,1242.331669
6.4550,146.3856061,-31.18318273,1242.31771
6.4600,146.4225236,-31.3300646,1242.300782
6.4650,146.4721054,-31.47285326,1242.280994
6.4700,146.5339963,-31.61184706,1242.258401
6.4750,146.6063282,-31.74694689,1242.233484
6.4800,146.6901395,-31.87683118,1242.206122
6.4850,146.7833502,-32.00198795,1242.176791
6.4900,146.8851283,-32.12126405,1242.145808
6.4950,146.9947066,-32.23560431,1242.113294
6.5000,147.112149,-32.34443602,1242.07929
6.5050,147.2358396,-32.44738526,1242.044247
6.5100,147.3649319,-32.54510728,1242.008311
6.5150,147.4973959,-32.63689864,1241.972064
6.5200,147.6333913,-32.72389779,1241.935373
6.5250,147.7709101,-32.80663324,1241.898675
6.5300,147.9101032,-32.88431367,1241.862013
6.5350,148.051384,-32.95775169,1241.825211
6.5400,148.1936718,-33.02745201,1241.788487
6.5450,148.3377059,-33.09424543,1241.751589
6.5500,148.4842523,-33.15796769,1241.714359
6.5550,148.6317607,-33.21916339,1241.677109
6.5600,148.7817242,-33.27899566,1241.639382
6.5650,148.933385,-33.33595319,1241.601505
6.5700,149.0870679,-33.39230346,1241.563196
6.5750,149.2427635,-33.44627501,1241.524619
6.5800,149.4009072,-33.49759012,1241.485716
6.5850,149.5611432,-33.54738378,1241.446471
6.5900,149.7224252,-33.5953725,1241.407161
6.5950,149.885578,-33.6415977,1241.367591
6.6000,150.0502327,-33.68514441,1241.327947
6.6050,150.2160388,-33.72707796,1241.288223
6.6100,150.3843055,-33.76773928,1241.248086
6.6150,150.5541336,-33.80718941,1241.207748
6.6200,150.7248531,-33.8448153,1241.167428
6.6250,150.8966987,-33.88012047,1241.127122
6.6300,151.0693141,-33.91345415,1241.086887
6.6350,151.2418836,-33.94573334,1241.046829
6.6400,151.4140596,-33.97688839,1241.007038
6.6450,151.5867837,-34.00671134,1240.967333
6.6500,151.7588537,-34.03549204,1240.92796
6.6550,151.9312774,-34.06342536,1240.888681
6.6600,152.1030524,-34.09023647,1240.849742
6.6650,152.2743174,-34.11612798,1240.811102
6.6700,152.4452532,-34.14123397,1240.772711
6.6750,152.616407,-34.16569645,1240.734426
6.6800,152.7878196,-34.18859669,1240.69632
6.6850,152.9605545,-34.21092881,1240.658054
6.6900,153.1335184,-34.23155748,1240.619996
6.6950,153.307713,-34.25104879,1240.581869
6.7000,153.482073,-34.26879664,1240.54397
6.7050,153.6574299,-34.2846699,1240.506118
6.7100,153.8342182,-34.29868865,1240.468206
6.7150,154.0131522,-34.31144897,1240.43005
6.7200,154.1933369,-34.32288038,1240.391845
6.7250,154.3738052,-34.33296879,1240.353802
6.7300,154.5548372,-34.34226533,1240.315831
6.7350,154.7369117,-34.35145202,1240.277754
6.7400,154.9195585,-34.36131377,1240.239613
6.7450,155.1022309,-34.37267019,1240.20145
6.7500,155.2844662,-34.38639203,1240.163282
6.7550,155.4674864,-34.40264052,1240.124843
6.7600,155.650952,-34.4210922,1240.086217
6.7650,155.8353996,-34.44387339,1240.0471
6.7700,156.0217873,-34.47098574,1240.007284
6.7750,156.2110687,-34.50292805,1239.96651
6.7800,156.4037151,-34.539566,1239.924694
6.7850,156.6009608,-34.58211072,1239.881466
6.7900,156.8031746,-34.63128066,1239.836695
6.7950,157.0115383,-34.68614005,1239.790215
6.8000,157.2263782,-34.74717302,1239.741929
6.8050,157.4486704,-34.81371479,1239.691697
6.8100,157.6784422,-34.88604891,1239.639507
6.8150,157.9155482,-34.96488057,1239.585349
6.8200,158.1597306,-35.04838235,1239.529447
6.8250,158.4114738,-35.13593585,1239.471772
6.8300,158.6697647,-35.22709719,1239.412599
6.8350,158.932243,-35.32230137,1239.352405
6.8400,159.1986871,-35.4198808,1239.291387
6.8450,159.4670547,-35.51878119,1239.230074
6.8500,159.7360081,-35.61882039,1239.168751
6.8550,160.0044769,-35.71983399,1239.107664
6.8600,160.2702905,-35.81926689,1239.047475
6.8650,160.5327334,-35.91895556,1238.988161
6.8700,160.7896028,-36.01742904,1238.930284
6.8750,161.0397162,-36.11523736,1238.874032
6.8800,161.2804546,-36.21305764,1238.81985
6.8850,161.5113927,-36.3101023,1238.76787
6.8900,161.7317247,-36.40563887,1238.718288
6.8950,161.9402133,-36.50051287,1238.671259
6.9000,162.1369942,-36.59411317,1238.626767
6.9050,162.3209564,-36.68594535,1238.585054
6.9100,162.4908203,-36.77616292,1238.546317
6.9150,162.646475,-36.86473785,1238.510567
6.9200,162.7889356,-36.95181584,1238.477567
6.9250,162.9165943,-37.03905233,1238.447483
6.9300,163.0293065,-37.12519913,1238.420413
6.9350,163.1264237,-37.21047019,1238.396461
6.9400,163.2083145,-37.29496035,1238.375523
6.9450,163.2723693,-37.37848022,1238.358109
6.9500,163.32036,-37.46160115,1238.343809
6.9550,163.3511117,-37.54396471,1238.33288
6.9600,163.3643688,-37.62571757,1238.325344
6.9650,163.3594545,-37.70745618,1238.321293
6.9700,163.3363744,-37.78822517,1238.320789
6.9750,163.295276,-37.86807765,1238.323815
6.9800,163.2362606,-37.94861481,1238.330221
6.9850,163.1597035,-38.02795903,1238.340108
6.9900,163.0659567,-38.10818729,1238.353246
6.9950,162.9553944,-38.18848149,1238.369634
7.0000,162.8300305,-38.26991577,1238.388817
7.0050,162.6903018,-38.35268501,1238.410725
7.0100,162.536243,-38.43757345,1238.435318
7.0150,162.3690836,-38.5237551,1238.462414
7.0200,162.1902065,-38.61196281,1238.491721
7.0250,162.0035276,-38.7017342,1238.522503
7.0300,161.8090685,-38.79437653,1238.554664
7.0350,161.6094857,-38.88955758,1238.587723
7.0400,161.4062832,-38.98608904,1238.621475
7.0450,161.2021587,-39.08666905,1238.655184
7.0500,160.9995919,-39.18950622,1238.688485
7.0550,160.8001979,-39.2963732,1238.720915
7.0600,160.6066036,-39.40702282,1238.75196
7.0650,160.4218199,-39.52163216,1238.780986
7.0700,160.2458609,-39.63954996,1238.808024
7.0750,160.0815215,-39.76145664,1238.832445
7.0800,159.9295461,-39.88862956,1238.85399
7.0850,159.7912752,-40.01939593,1238.872481
7.0900,159.6673557,-40.1540544,1238.887741
7.0950,159.5592651,-40.29337579,1238.899401
7.1000,159.4665129,-40.43715412,1238.907559
7.1050,159.3910786,-40.58655399,1238.911721
7.1100,159.3317024,-40.73990631,1238.912246
7.1150,159.2899365,-40.89725025,1238.908801
7.1200,159.2647617,-41.05962137,1238.901521
7.1250,159.2570444,-41.22642958,1238.890279
7.1300,159.2651127,-41.39753915,1238.875417
7.1350,159.2883106,-41.57168772,1238.857161
7.1400,159.325268,-41.75004619,1238.835722
7.1450,159.3742584,-41.9320752,1238.811497
7.1500,159.4330373,-42.11675217,1238.785023
7.1550,159.5000848,-42.30389436,1238.756628
7.1600,159.5742505,-42.49277969,1238.726603
7.1650,159.6530589,-42.68223169,1238.695537
7.1700,159.7349985,-42.87299891,1238.663702
7.1750,159.819043,-43.06293657,1238.631428
7.1800,159.9030045,-43.25101001,1238.599227
7.1850,159.985213,-43.43714348,1238.567429
7.1900,160.0644018,-43.62044999,1238.536352
7.1950,160.1392172,-43.79962141,1238.506334
7.2000,160.2080526,-43.97534677,1238.477661
7.2050,160.2701081,-44.14690802,1238.450518
7.2100,160.3256356,-44.31348659,1238.424895
7.2150,160.3744866,-44.47399153,1238.400853
7.2200,160.4148458,-44.62937332,1238.378702
7.2250,160.4481496,-44.77809175,1238.358211
7.2300,160.4741637,-44.92113627,1238.339363
7.2350,160.4944215,-45.0575582,1238.321874
7.2400,160.5090554,-45.18804367,1238.30567
7.2450,160.518999,-45.31282635,1238.290534
7.2500,160.5241857,-45.43261495,1238.276436
7.2550,160.5246623,-45.54734826,1238.263353
7.2600,160.5217096,-45.65727322,1238.251001
7.2650,160.5155071,-45.76222894,1238.239342
7.2700,160.5066541,-45.86253662,1238.228234
7.2750,160.4946022,-45.95809199,1238.217784
7.2800,160.4785296,-46.04871055,1238.208164
7.2850,160.4582491,-46.13559375,1238.199339
7.2900,160.4336802,-46.21796706,1238.191364
7.2950,160.4047013,-46.2953661,1238.184293
7.3000,160.3704854,-46.36677497,1238.178354
7.3050,160.329306,-46.43273,1238.173846
7.3100,160.2820292,-46.49196168,1238.170667
7.3150,160.2283341,-46.54521397,1238.168841
7.3200,160.1680088,-46.59117539,1238.16849
7.3250,160.0980438,-46.63124278,1238.170173
7.3300,160.0212069,-46.66343733,1238.17342
7.3350,159.9351157,-46.68859361,1238.178695
7.3400,159.8409308,-46.70834513,1238.185685
7.3450,159.7385503,-46.72053383,1238.194532
7.3500,159.628341,-46.72698728,1238.205076
7.3550,159.5110243,-46.72710185,1238.217209
7.3600,159.387068,-46.72134122,1238.230813
7.3650,159.2559279,-46.71027955,1238.24599
7.3700,159.1191211,-46.69482059,1238.262391
7.3750,158.97701,-46.67497635,1238.279957
7.3800,158.8303204,-46.65091415,1238.298527
7.3850,158.681112,-46.62367139,1238.317632
7.3900,158.5301986,-46.59291917,1238.337128
7.3950,158.3775286,-46.5594066,1238.356993
7.4000,158.2243582,-46.52285311,1238.376969
7.4050,158.0714287,-46.48302797,1238.396918
7.4100,157.9198812,-46.4421054,1238.416497
7.4150,157.7691583,-46.39954374,1238.435854
7.4200,157.6201583,-46.35518711,1238.454793
7.4250,157.4715985,-46.3100755,1238.473525
7.4300,157.3241598,-46.2645974,1238.491897
7.4350,157.1785829,-46.21916531,1238.509731
7.4400,157.036634,-46.17357716,1238.526645
7.4450,156.8986289,-46.12835593,1238.542543
7.4500,156.7661914,-46.08345787,1238.557072
7.4550,156.6395852,-46.03896732,1238.570158
7.4600,156.5191526,-45.99699202,1238.581606
7.4650,156.4063458,-45.95751299,1238.591096
7.4700,156.3026377,-45.92014813,1238.598305
7.4750,156.2076072,-45.88651896,1238.603224
7.4800,156.1237103,-45.85695036,1238.605288
7.4850,156.0521163,-45.83083885,1238.604266
7.4900,155.9927532,-45.81055822,1238.600021
7.4950,155.9463932,-45.7957198,1238.592398
7.5000,155.9143154,-45.78628878,1238.581112
7.5050,155.8967629,-45.78118431,1238.56615
7.5100,155.8939016,-45.78073291,1238.547451
7.5150,155.9063604,-45.78552422,1238.524859
7.5200,155.9339715,-45.79451978,1238.498452
7.5250,155.9764423,-45.80709361,1238.468335
7.5300,156.032742,-45.82260377,1238.434776
7.5350,156.1018494,-45.8408804,1238.398019
7.5400,156.1829356,-45.86118382,1238.35831
7.5450,156.2748677,-45.88221896,1238.315977
7.5500,156.3766288,-45.90281159,1238.27133
7.5550,156.4871411,-45.92260088,1238.224639
7.5600,156.6045842,-45.94101613,1238.176374
7.5650,156.7278175,-45.9574958,1238.12682
7.5700,156.8550305,-45.97159634,1238.076418
7.5750,156.985873,-45.98180922,1238.025334
7.5800,157.1188622,-45.98885666,1237.973881
7.5850,157.2527262,-45.99194139,1237.922367
7.5900,157.3853289,-45.98893284,1237.871392
7.5950,157.517265,-45.98055677,1237.820794
7.6000,157.6467117,-45.9673428,1237.770935
7.6050,157.7741833,-45.94912663,1237.721721
7.6100,157.8979999,-45.92598032,1237.673509
7.6150,158.0165828,-45.89856263,1237.626611
7.6200,158.1288203,-45.8669407,1237.581254
7.6250,158.2353782,-45.83097411,1237.537296
7.6300,158.3347654,-45.79082959,1237.495058
7.6350,158.4270993,-45.74559181,1237.454538
7.6400,158.5124381,-45.69435516,1237.415771
7.6450,158.5909375,-45.63813922,1237.378664
7.6500,158.6623071,-45.57606331,1237.343323
7.6550,158.7261709,-45.50771952,1237.309867
7.6600,158.7827017,-45.43365368,1237.278232
7.6650,158.8320244,-45.35282775,1237.248447
7.6700,158.8739901,-45.26529935,1237.220544
7.6750,158.9089546,-45.17155837,1237.194424
7.6800,158.9370758,-45.07051222,1237.170141
7.6850,158.9576934,-44.96266681,1237.147839
7.6900,158.9710941,-44.84740573,1237.127489
7.6950,158.9784509,-44.72553384,1237.108807
7.7000,158.9792779,-44.59808579,1237.09185
7.7050,158.9726801,-44.46413803,1237.076865
7.7100,158.9582095,-44.32324999,1237.063976
7.7150,158.9375768,-44.17608957,1237.052789
7.7200,158.9108209,-44.0227158,1237.04332
7.7250,158.8806765,-43.86275358,1237.035012
7.7300,158.8468427,-43.69636597,1237.027929
7.7350,158.8109766,-43.52401797,1237.02169
7.7400,158.7723068,-43.34656151,1237.016415
7.7450,158.7320377,-43.16358759,1237.01187
7.7500,158.6899351,-42.97693865,1237.008001
7.7550,158.6468913,-42.78681029,1237.004637
7.7600,158.60305,-42.59297708,1237.001751
7.7650,158.5606349,-42.39607944,1236.998817
7.7700,158.5197559,-42.19534763,1236.995876
7.7750,158.48169,-41.99145874,1236.99263
7.7800,158.4469436,-41.78481455,1236.988927
7.7850,158.4159616,-41.5757656,1236.984657
7.7900,158.3889235,-41.36374817,1236.979834
7.7950,158.366376,-41.14972522,1236.974277
7.8000,158.3478724,-40.93430131,1236.96805
7.8050,158.3334658,-40.71906104,1236.961032
7.8100,158.3221592,-40.50401865,1236.953449
7.8150,158.312688,-40.2893481,1236.94555
7.8200,158.3054207,-40.0749415,1236.937263
7.8250,158.2997235,-39.86231342,1236.928606
7.8300,158.2964329,-39.65113529,1236.919414
7.8350,158.2939641,-39.44192806,1236.910009
7.8400,158.2915326,-39.23457471,1236.900533
7.8450,158.2900638,-39.02951751,1236.890747
7.8500,158.2872472,-38.82623032,1236.881169
7.8550,158.2849894,-38.62586721,1236.871288
7.8600,158.2819572,-38.42800101,1236.861418
7.8650,158.2771565,-38.23259322,1236.851768
7.8700,158.2703498,-38.04036163,1236.842344
7.8750,158.2608878,-37.85151489,1236.833253
7.8800,158.2478508,-37.66526527,1236.82476
7.8850,158.2310701,-37.48065626,1236.816981
7.8900,158.2110627,-37.29951635,1236.809654
7.8950,158.186673,-37.12090647,1236.803094
7.9000,158.1576696,-36.94319863,1236.797479
7.9050,158.1248559,-36.76451847,1236.792778
7.9100,158.0880081,-36.58572445,1236.788967
7.9150,158.0472645,-36.40410424,1236.786237
7.9200,158.0037669,-36.22033149,1236.78428
7.9250,157.9563787,-36.03256067,1236.783505
7.9300,157.904957,-35.84181463,1236.783861
7.9350,157.8499513,-35.64763156,1236.785282
7.9400,157.7897434,-35.4509554,1236.788063
7.9450,157.7242458,-35.25017295,1236.792345
7.9500,157.6528841,-35.04624655,1236.798219
7.9550,157.5763875,-34.83913362,1236.805509
7.9600,157.4938631,-34.62853874,1236.814448
7.9650,157.4060458,-34.41404375,1236.824931
7.9700,157.313156,-34.19589807,1236.836905
7.9750,157.2151614,-33.97333411,1236.850464
7.9800,157.1134115,-33.74751531,1236.865192
7.9850,157.0082635,-33.51775558,1236.881076
7.9900,156.8991153,-33.28559363,1236.898167
7.9950,156.7846237,-33.05013177,1236.916848
8.0000,156.6651195,-32.81122749,1236.93708
8.0050,156.5415427,-32.57001017,1236.958583
8.0100,156.4138383,-32.32586178,1236.981419
8.0150,156.281794,-32.0790355,1237.005647
8.0200,156.1448674,-31.82974327,1237.031389
8.0250,156.0014284,-31.57892812,1237.058957
8.0300,155.8532045,-31.32580802,1237.088045
8.0350,155.6983439,-31.07118222,1237.119029
8.0400,155.5366807,-30.81406061,1237.152058
8.0450,155.3683755,-30.55538573,1237.187048
8.0500,155.194773,-30.29396243,1237.223814
8.0550,155.0163217,-30.02965265,1237.262264
8.0600,154.8335093,-29.76141696,1237.302414
8.0650,154.6453077,-29.48831887,1237.344641
8.0700,154.4526528,-29.2116673,1237.388627
8.0750,154.2557781,-28.93133447,1237.43434
8.0800,154.0539923,-28.64682983,1237.482018
8.0850,153.8477685,-28.35892133,1237.531513
8.0900,153.638231,-28.06631014,1237.582708
8.0950,153.4257392,-27.77074158,1237.635363
8.1000,153.2108295,-27.47051231,1237.689541
8.1050,152.9945746,-27.16615012,1237.744967
8.1100,152.7764749,-26.85722421,1237.801806
8.1150,152.5576982,-26.54396641,1237.859755
8.1200,152.3386929,-26.22609598,1237.918766
8.1250,152.1192454,-25.90264652,1237.979031
8.1300,151.8982063,-25.57329572,1238.040876
8.1350,151.6755608,-25.23800089,1238.104299
8.1400,151.4520407,-24.89660559,1238.169176
8.1450,151.2250229,-24.55007881,1238.236056
8.1500,150.9958225,-24.19902029,1238.304624
8.1550,150.7620647,-23.8428874,1238.375532
8.1600,150.5240928,-23.48294309,1238.448601
8.1650,150.2823193,-23.11897602,1238.523805
8.1700,150.0369314,-22.75135161,1238.601079
8.1750,149.7866499,-22.37905512,1238.680912
8.1800,149.5330242,-22.0021809,1238.762926
8.1850,149.2749195,-21.62023996,1238.847466
8.1900,149.0119728,-21.23250899,1238.934742
8.1950,148.7438172,-20.83931444,1239.024819
8.2000,148.4720166,-20.4415093,1239.117233
8.2050,148.1948631,-20.03814629,1239.212557
8.2100,147.9135304,-19.62869614,1239.310606
8.2150,147.6264113,-19.21477884,1239.411631
8.2200,147.3325792,-18.7968025,1239.515809
8.2250,147.0324183,-18.37499188,1239.623099
8.2300,146.7252119,-17.94898599,1239.733781
8.2350,146.4104159,-17.51963124,1239.84796
8.2400,146.0878754,-17.08640936,1239.965782
8.2450,145.7564019,-16.64990081,1240.087573
8.2500,145.416743,-16.20955825,1240.213252
8.2550,145.0658587,-15.76596829,1240.343612
8.2600,144.7042805,-15.31976343,1240.478507
8.2650,144.3315533,-14.87317191,1240.617835
8.2700,143.9460065,-14.42587011,1240.762142
8.2750,143.5478556,-13.97938627,1240.911217
8.2800,143.1373597,-13.53366534,1241.065104
8.2850,142.713503,-13.0892377,1241.224017
8.2900,142.2777844,-12.64671803,1241.387498
8.2950,141.8309019,-12.20726723,1241.555227
8.3000,141.3743152,-11.77086801,1241.726861
8.3050,140.9088404,-11.3386472,1241.90202
8.3100,140.4368919,-10.91129334,1242.079951
8.3150,139.9588978,-10.48894046,1242.260463
8.3200,139.4775457,-10.07273113,1242.442598
8.3250,138.9944695,-9.662527751,1242.625837
8.3300,138.5109858,-9.259223264,1242.809601
8.3350,138.0295302,-8.863521917,1242.992993
8.3400,137.5518892,-8.475750484,1243.175349
8.3450,137.0809419,-8.094950325,1243.355889
8.3500,136.6175806,-7.721920191,1243.534143
8.3550,136.1631193,-7.357827066,1243.709448
8.3600,135.7193262,-7.002082447,1243.881292
8.3650,135.2882244,-6.655935047,1244.048794
8.3700,134.8692928,-6.319025885,1244.212065
8.3750,134.4630633,-5.991744665,1244.370815
8.3800,134.070686,-5.674651247,1244.524554
8.3850,133.6920812,-5.366506858,1244.673425
8.3900,133.3270383,-5.067439029,1244.817428
8.3950,132.9763028,-4.77549352,1244.956606
8.4000,132.6390281,-4.490781018,1245.091171
8.4050,132.3149706,-4.212382137,1245.221331
8.4100,132.0037881,-3.939922361,1245.347242
8.4150,131.7048693,-3.671000253,1245.46947
8.4200,131.418036,-3.405395014,1245.588082
8.4250,131.1431062,-3.143163954,1245.703087
8.4300,130.8801808,-2.885100974,1245.814262
8.4350,130.6280833,-2.630691265,1245.922059
8.4400,130.3852079,-2.380488882,1246.026844
8.4450,130.1524541,-2.133917285,1246.128384
8.4500,129.9281193,-1.891357897,1246.227088
8.4550,129.7114798,-1.652425271,1246.32322
8.4600,129.50126,-1.417568858,1246.417041
8.4650,129.2956792,-1.18609639,1246.509172
8.4700,129.0942269,-0.957046095,1246.599934
8.4750,128.8962254,-0.7319506352,1246.689195
8.4800,128.7015989,-0.5079728941,1246.777515
8.4850,128.5097835,-0.2866566717,1246.864774
8.4900,128.3192537,-0.06680849747,1246.951679
8.4950,128.1291326,0.1521575663,1247.038621
8.5000,127.9366734,0.3705431351,1247.126552
8.5050,127.7419334,0.5871233185,1247.215211
8.5100,127.542212,0.8039008044,1247.305878
8.5150,127.3374975,1.022378323,1247.398834
8.5200,127.1277068,1.243564828,1247.494398
8.5250,126.9109576,1.46772985,1247.593203
8.5300,126.6862355,1.695914906,1247.695832
8.5350,126.4522084,1.929247835,1247.802959
8.5400,126.2079817,2.168849399,1247.915119
8.5450,125.9538033,2.415845962,1248.032472
8.5500,125.6884668,2.670163564,1248.155428
8.5550,125.4123182,2.933088192,1248.284178
8.5600,125.1245484,3.204188204,1248.418978
8.5650,124.825565,3.484678685,1248.559927
8.5700,124.5156429,3.773785512,1248.706844
8.5750,124.1944013,4.072804314,1248.860153
8.5800,123.8600239,4.379823207,1249.020129
8.5850,123.5136931,4.69300075,1249.186123
8.5900,123.154454,5.012474892,1249.358536
8.5950,122.7831391,5.337520763,1249.537006
8.6000,122.399461,5.666699109,1249.721402
8.6050,122.0032173,5.999709226,1249.9118
8.6100,121.5944396,6.335693854,1250.108058
8.6150,121.1734065,6.673494258,1250.309921
8.6200,120.7409642,7.012557753,1250.517063
8.6250,120.2977829,7.352099439,1250.729158
8.6300,119.8429341,7.691306307,1250.946406
8.6350,119.3773516,8.031603672,1251.168839
8.6400,118.9019685,8.372043193,1251.396012
8.6450,118.4152877,8.711276737,1251.628235
8.6500,117.9181159,9.048669824,1251.865134
8.6550,117.4107111,9.385402492,1252.106943
8.6600,116.8934069,9.719952451,1252.35329
8.6650,116.3670638,10.05311093,1252.604094
8.6700,115.8332879,10.38568006,1252.859007
8.6750,115.2932616,10.71924614,1253.117986
8.6800,114.7481977,11.05490349,1253.380881
8.6850,114.1981673,11.3920729,1253.647571
8.6900,113.6455677,11.73056288,1253.917136
8.6950,113.0891794,12.07157344,1254.190298
8.7000,112.5318972,12.41496805,1254.465955
8.7050,111.9729621,12.76079176,1254.744394
8.7100,111.4142202,13.10933245,1255.024994
8.7150,110.8559972,13.45889246,1255.307267
8.7200,110.2980927,13.80915121,1255.591171
8.7250,109.7417691,14.16043551,1255.876325
8.7300,109.1870271,14.51324637,1256.162853
8.7350,108.6360846,14.86713152,1256.449809
8.7400,108.0882511,15.22037146,1256.737041
8.7450,107.5445929,15.57415956,1257.024411
8.7500,107.0057228,15.9295342,1257.311912
8.7550,106.4712781,16.28515107,1257.599345
8.7600,105.9420975,16.64158819,1257.886493
8.7650,105.4180637,16.99817763,1258.173215
8.7700,104.8994303,17.35421179,1258.459149
8.7750,104.3863304,17.7106163,1258.744453
8.7800,103.8775126,18.06606383,1259.02925
8.7850,103.3738062,18.42057115,1259.313229
8.7900,102.8764633,18.77334948,1259.595636
8.7950,102.3848344,19.12517745,1259.876882
8.8000,101.8995504,19.47614632,1260.156696
8.8050,101.4202367,19.8259974,1260.435183
8.8100,100.9480715,20.17377182,1260.711553
8.8150,100.4831719,20.51979936,1260.98583
8.8200,100.0242254,20.86511744,1261.258755
8.8250,99.57220223,21.20945565,1261.529812
8.8300,99.12819998,21.55435376,1261.798902
8.8350,98.69174314,21.89838319,1262.065785
8.8400,98.26289686,22.24146004,1262.330419
8.8450,97.84126629,22.58293713,1262.592722
8.8500,97.42754405,22.92264783,1262.852362
8.8550,97.02187877,23.25952088,1263.108908
8.8600,96.6235127,23.5938525,1263.362723
8.8650,96.23283565,23.92588817,1263.613705
8.8700,95.84971985,24.25570014,1263.8619
8.8750,95.47500874,24.58170037,1264.106469
8.8800,95.10844424,24.9050062,1264.347789
8.8850,94.74861459,25.22555424,1264.586425
8.8900,94.39639145,25.5437129,1264.822047
8.8950,94.05082794,25.85972489,1265.05515
8.9000,93.71176882,26.17294941,1265.285564
8.9050,93.37911875,26.48387486,1265.513451
8.9100,93.0511449,26.79130561,1265.739304
8.9150,92.72830372,27.09599272,1265.963057
8.9200,92.40918837,27.39891028,1266.185571
8.9250,92.09251914,27.69986014,1266.407373
8.9300,91.7792472,28.00012009,1266.628396
8.9350,91.47006352,28.29767827,1266.847758
8.9400,91.16467744,28.59424428,1267.066068
8.9450,90.86436831,28.89058737,1267.282912
8.9500,90.56822508,29.18701134,1267.498767
8.9550,90.276435,29.4831767,1267.71346
8.9600,89.98882915,29.77862416,1267.92688
8.9650,89.70401441,30.07379582,1268.13979
8.9700,89.42173257,30.36715255,1268.351837
8.9750,89.14259719,30.6594203,1268.562935
8.9800,88.86569748,30.94974495,1268.773235
8.9850,88.59084663,31.23718229,1268.98252
8.9900,88.31758115,31.52223466,1269.191164
8.9950,88.04671692,31.80434286,1269.398648
9.0000,87.77749481,32.08322204,1269.605228
9.0050,87.51067317,32.35824966,1269.810372
9.0100,87.24584294,32.62920028,1270.014184
9.0150,86.98304395,32.89704992,1270.216935
9.0200,86.72137698,33.1605943,1270.41868
9.0250,86.45951511,33.42063545,1270.620262
9.0300,86.19656031,33.67698112,1270.822011
9.0350,85.93139115,33.92868156,1271.024167
9.0400,85.66447204,34.17688537,1271.226843
9.0450,85.3952529,34.42023908,1271.429898
9.0500,85.12269179,34.65853072,1271.633757
9.0550,84.84714401,34.89217743,1271.838393
9.0600,84.56788508,35.1226254,1272.044589
9.0650,84.28481041,35.34981198,1272.252381
9.0700,83.99656553,35.57491189,1272.462832
9.0750,83.70457432,35.79853728,1272.675488
9.0800,83.40887048,36.02062781,1272.890299
9.0850,83.1089441,36.2429559,1273.108084
9.0900,82.80471101,36.4659446,1273.329026
9.0950,82.49625734,36.68907317,1273.552991
9.1000,82.1844246,36.91299244,1273.779743
9.1050,81.86850183,37.13962749,1274.010239
9.1100,81.55004847,37.36948874,1274.243878
9.1150,81.22930749,37.60343486,1274.480805
9.1200,80.90671421,37.84079521,1274.720583
9.1250,80.58427512,38.08329731,1274.962777
9.1300,80.26155665,38.32978278,1275.207202
9.1350,79.94108657,38.58187583,1275.45315
9.1400,79.62316282,38.83863337,1275.700123
9.1450,79.30760692,39.10068801,1275.948417
9.1500,78.99548399,39.36839903,1276.197556
9.1550,78.68689253,39.64141122,1276.447377
9.1600,78.38290282,39.91994722,1276.697364
9.1650,78.08364223,40.20347749,1276.947236
9.1700,77.79011768,40.49197988,1277.196437
9.1750,77.50273891,40.78425754,1277.444343
9.1800,77.2214507,41.07917506,1277.690606
9.1850,76.94774714,41.37642256,1277.934303
9.1900,76.68033618,41.67419164,1278.175488
9.1950,76.41819337,41.97081603,1278.414053
9.2000,76.16157926,42.26557661,1278.649619
9.2050,75.909934,42.5567432,1278.881839
9.2100,75.6639572,42.84541817,1279.110654
9.2150,75.42306409,43.12881038,1279.335427
9.2200,75.18769279,43.40631134,1279.555722
9.2250,74.95870467,43.67687033,1279.770682
9.2300,74.73480698,43.93819225,1279.980169
9.2350,74.51494207,44.19100192,1280.184943
9.2400,74.29814556,44.43341886,1280.38484
9.2450,74.08360777,44.66314036,1280.579471
9.2500,73.87118963,44.88069931,1280.769087
9.2550,73.66111007,45.08637135,1280.953589
9.2600,73.45344205,45.27927742,1281.132635
9.2650,73.24906111,45.45975395,1281.305845
9.2700,73.04861248,45.62789912,1281.472869
9.2750,72.850883,45.78396156,1281.634445
9.2800,72.65652901,45.92752881,1281.789994
9.2850,72.46588325,46.06016655,1281.939891
9.2900,72.27747131,46.18211826,1282.084978
9.2950,72.09248213,46.29451671,1282.224951
9.3000,71.91008007,46.39766891,1282.360388
9.3050,71.73002243,46.49322216,1282.491956
9.3100,71.5526662,46.58153173,1282.619587
9.3150,71.37731508,46.66194734,1282.743433
9.3200,71.20426285,46.73745784,1282.864414
9.3250,71.03299118,46.80632226,1282.982222
9.3300,70.86415116,46.86966812,1283.096918
9.3350,70.69699277,46.92851181,1283.209316
9.3400,70.53202154,46.98430327,1283.319644
9.3450,70.36738729,47.03857932,1283.42948
9.3500,70.20343921,47.09131447,1283.538665
9.3550,70.03957586,47.14390485,1283.647999
9.3600,69.87545999,47.19645031,1283.757719
9.3650,69.71125898,47.24921639,1283.867845
9.3700,69.54744198,47.30198149,1283.97808
9.3750,69.38143559,47.35429104,1284.089641
9.3800,69.21370665,47.40615108,1284.202308
9.3850,69.04364662,47.45876262,1284.31683
9.3900,68.87060089,47.51266977,1284.433761
9.3950,68.69586282,47.56838122,1284.552544
9.4000,68.51854122,47.62832957,1284.674582
9.4050,68.34067846,47.6923074,1284.798696
9.4100,68.16006986,47.76078414,1284.926292
9.4150,67.97726629,47.83431309,1285.057275
9.4200,67.7934897,47.91402652,1285.191403
9.4250,67.60699972,47.99959918,1285.329564
9.4300,67.41703019,48.09171378,1285.472433
9.4350,67.2235928,48.19061645,1285.620097
9.4400,67.02727486,48.29714196,1285.772555
9.4450,66.82833905,48.4107376,1285.929439
9.4500,66.62656019,48.53246532,1286.091285
9.4550,66.4237452,48.66230113,1286.257068
9.4600,66.21995683,48.79920154,1286.426345
9.4650,66.01598902,48.94346034,1286.598816
9.4700,65.81131057,49.09355673,1286.774186
9.4750,65.60480318,49.25061865,1286.953506
9.4800,65.3980591,49.41241833,1287.13504
9.4850,65.19053805,49.57807821,1287.31877
9.4900,64.98257632,49.74676913,1287.504198
9.4950,64.77611197,49.91765699,1287.689905
9.5000,64.57150682,50.09045224,1287.875569
9.5050,64.36924482,50.26328565,1288.060194
9.5100,64.16929477,50.43430506,1288.243072
9.5150,63.97116309,50.60321226,1288.424381
9.5200,63.77582794,50.76908414,1288.603151
9.5250,63.58243098,50.93084041,1288.779413
9.5300,63.39326701,51.08911365,1288.952031
9.5350,63.20759217,51.24165277,1289.120555
9.5400,63.0267564,51.3879295,1289.283984
9.5450,62.85111491,51.52837156,1289.442261
9.5500,62.6816691,51.66192197,1289.594363
9.5550,62.51826077,51.78724205,1289.73983
9.5600,62.36104018,51.90483753,1289.878728
9.5650,62.21035505,52.01451382,1290.010695
9.5700,62.06649161,52.11670804,1290.135731
9.5750,61.92934926,52.20905786,1290.252969
9.5800,61.80014587,52.29303078,1290.362266
9.5850,61.67908475,52.36853352,1290.463459
9.5900,61.56683299,52.43582593,1290.556227
9.5950,61.46284112,52.49401318,1290.640547
9.6000,61.36644568,52.54339799,1290.716919
9.6050,61.27799281,52.58410123,1290.785168
9.6100,61.19645461,52.61661046,1290.84613
9.6150,61.12168552,52.64160383,1290.900145
9.6200,61.05209258,52.6574529,1290.947574
9.6250,60.98774646,52.66568655,1290.988972
9.6300,60.92658664,52.66543739,1291.025274
9.6350,60.86818304,52.65742548,1291.057018
9.6400,60.8104761,52.64194005,1291.085569
9.6450,60.75381157,52.61805088,1291.110399
9.6500,60.69655858,52.58729382,1291.133028
9.6550,60.63744389,52.55000707,1291.154374
9.6600,60.57709017,52.50740308,1291.174577
9.6650,60.51549679,52.46093607,1291.194186
9.6700,60.45185922,52.41208982,1291.214222
9.6750,60.38695612,52.36274951,1291.234975
9.6800,60.31935129,52.31468989,1291.257994
9.6850,60.24968815,52.26830919,1291.283015
9.6900,60.17812844,52.22468334,1291.310374
9.6950,60.10383134,52.18543701,1291.341158
9.7000,60.02807723,52.15048897,1291.374598
9.7050,59.94922165,52.12004677,1291.41171
9.7100,59.86910214,52.09657444,1291.452358
9.7150,59.78855456,52.07998194,1291.495992
9.7200,59.70622956,52.07113679,1291.543748
9.7250,59.62300815,52.06951694,1291.594857
9.7300,59.53991444,52.07664541,1291.64934
9.7350,59.45722216,52.09238927,1291.706934
9.7400,59.37433569,52.11589077,1291.767681
9.7450,59.29286627,52.14806115,1291.830981
9.7500,59.2119398,52.18727092,1291.896746
9.7550,59.13169138,52.23373797,1291.964989
9.7600,59.05272121,52.28568592,1292.03468
9.7650,58.97358837,52.34227123,1292.106309
9.7700,58.89588065,52.40233303,1292.178522
9.7750,58.81934292,52.46407341,1292.250831
9.7800,58.74376816,52.52658149,1292.322943
9.7850,58.66838978,52.58767487,1292.394491
9.7900,58.59390004,52.64679432,1292.464832
9.7950,58.51996869,52.70213361,1292.533451
9.8000,58.44603936,52.75241626,1292.600155
9.8050,58.37137708,52.79731128,1292.665275
9.8100,58.29714344,52.83506135,1292.727402
9.8150,58.2227143,52.86465857,1292.786479
9.8200,58.14778428,52.88567993,1292.842514
9.8250,58.07281828,52.89742789,1292.894964
9.8300,57.99666169,52.89911245,1292.944219
9.8350,57.92042173,52.89106935,1292.989732
9.8400,57.84291815,52.87293335,1293.032076
9.8450,57.76459907,52.84445646,1293.070857
9.8500,57.6851984,52.80657569,1293.106592
9.8550,57.60587872,52.75946482,1293.138672
9.8600,57.52761348,52.70455621,1293.16704
9.8650,57.44886358,52.64124921,1293.192435
9.8700,57.37051561,52.5703158,1293.214583
9.8750,57.2934979,52.49414103,1293.233822
9.8800,57.21658738,52.41223103,1293.250715
9.8850,57.14114588,52.32582919,1293.264882
9.8900,57.06793408,52.23556196,1293.276096
9.8950,56.99631983,52.14191784,1293.284963
9.9000,56.92710059,52.04580916,1293.291329
9.9050,56.86005832,51.94763892,1293.295507
9.9100,56.79570085,51.84812948,1293.297465
9.9150,56.73484409,51.74834185,1293.29712
9.9200,56.67769877,51.6488865,1293.294556
9.9250,56.62423659,51.55125595,1293.290341
9.9300,56.5745929,51.45485916,1293.284169
9.9350,56.52861793,51.36093946,1293.276595
9.9400,56.4863198,51.26897717,1293.267425
9.9450,56.44701803,51.17958439,1293.257278
9.9500,56.41160941,51.09304526,1293.24573
9.9550,56.3800224,51.00956987,1293.232916
9.9600,56.35143528,50.9285321,1293.219083
9.9650,56.32533608,50.84964507,1293.20444
9.9700,56.30152099,50.77305699,1293.189165
9.9750,56.27933788,50.6976399,1293.173213
9.9800,56.2598149,50.62327681,1293.155876
9.9850,56.2419975,50.55013454,1293.137809
9.9900,56.22599366,50.47688764,1293.118438
9.9950,56.21183646,50.40360062,1293.097774
10.0000,56.19873423,50.32926704,1293.075885
10.0050,56.1872046,50.25384005,1293.05246
10.0100,56.17646699,50.17593325,1293.027409
10.0150,56.16600801,50.09404548,1293.000478
10.0200,56.15669669,50.00801964,1292.971091
10.0250,56.1485473,49.91864447,1292.939547
10.0300,56.14099806,49.82435449,1292.905548
10.0350,56.13382264,49.72416859,1292.868905
10.0400,56.12776166,49.61939699,1292.829634
10.0450,56.1218685,49.50756265,1292.787404
10.0500,56.11672475,49.38857328,1292.741822
10.0550,56.1106753,49.26186129,1292.693695
10.0600,56.10387657,49.12773312,1292.643042
10.0650,56.09648346,48.98540425,1292.589508
10.0700,56.08785808,48.83521748,1292.533602
10.0750,56.07828341,48.67628173,1292.474813
10.0800,56.06658038,48.50917484,1292.414108
10.0850,56.05391285,48.33537816,1292.351341
10.0900,56.04001773,48.1536676,1292.286218
10.0950,56.02474581,47.96522028,1292.219307
10.1000,56.00804759,47.77030978,1292.150769
10.1050,55.99107443,47.56955754,1292.080116
10.1100,55.97352244,47.36405154,1292.007971
10.1150,55.95648925,47.15473856,1291.934045
10.1200,55.93914795,46.940888,1291.858595
10.1250,55.92177122,46.72420047,1291.782099
10.1300,55.90457149,46.50390621,1291.704169
10.1350,55.88755045,46.2811263,1291.625248
10.1400,55.87077561,46.05629529,1291.545417
10.1450,55.85399284,45.8299158,1291.465061
10.1500,55.83739037,45.60195933,1291.38406
10.1550,55.82040441,45.37384349,1291.303287
10.1600,55.80281803,45.14560031,1291.222925
10.1650,55.78599901,44.91724907,1291.142129
10.1700,55.7695079,44.69031353,1291.06176
10.1750,55.75417813,44.46470813,1290.981257
10.1800,55.73948033,44.24127487,1290.901229
10.1850,55.72539126,44.01968706,1290.821596
10.1900,55.71167995,43.79915161,1290.742225
10.1950,55.69832146,43.58055728,1290.663432
10.2000,55.68572633,43.36402465,1290.585017
10.2050,55.67400385,43.15014528,1290.507123
10.2100,55.6628462,42.93862424,1290.429818
10.2150,55.65221097,42.72963598,1290.353224
10.2200,55.64294198,42.52414407,1290.277156
10.2250,55.63422888,42.32134098,1290.201851
10.2300,55.62619407,42.12395202,1290.128179
10.2350,55.61971056,41.9306077,1290.055133
10.2400,55.61494742,41.74315181,1289.98326
10.2450,55.61173893,41.56181206,1289.912724
10.2500,55.61057443,41.38695945,1289.843335
10.2550,55.61133688,41.21844766,1289.775094
10.2600,55.6136896,41.05622419,1289.708188
10.2650,55.61798505,40.90068605,1289.642514
10.2700,55.62477798,40.7514961,1289.577609
10.2750,55.63444063,40.60894839,1289.513319
10.2800,55.64582633,40.47382826,1289.450625
10.2850,55.6602227,40.34494872,1289.388327
10.2900,55.67732829,40.22310084,1289.326868
10.2950,55.69800718,40.10775388,1289.265553
10.3000,55.72238644,39.99983819,1289.204599
10.3050,55.75056304,39.89848487,1289.143643
10.3100,55.78265661,39.80251364,1289.082223
10.3150,55.81920942,39.71289225,1289.020359
10.3200,55.86106516,39.6283253,1288.957058
10.3250,55.90771775,39.54746197,1288.892175
10.3300,55.96003836,39.47064206,1288.8253
10.3350,56.01745937,39.39656517,1288.756314
10.3400,56.07964181,39.32297416,1288.684671
10.3450,56.14745366,39.25093722,1288.610218
10.3500,56.22078296,39.17935977,1288.532663
10.3550,56.30029466,39.10736541,1288.451317
10.3600,56.385318,39.03517311,1288.366679
10.3650,56.4751836,38.96146022,1288.278727
10.3700,56.56925794,38.88626266,1288.187856
10.3750,56.66839512,38.80994403,1288.093692
10.3800,56.77324293,38.73246637,1287.995845
10.3850,56.88328583,38.65209423,1287.894048
10.3900,56.9979182,38.57022582,1287.78916
10.3950,57.11738358,38.4867194,1287.680988
10.4000,57.24191125,38.40147637,1287.56939
10.4050,57.37045,38.31530319,1287.455259
10.4100,57.50295126,38.22762534,1287.338462
10.4150,57.63943982,38.13821897,1287.218922
10.4200,57.7797045,38.04805827,1287.097113
10.4250,57.92371811,37.95618182,1286.972751
10.4300,58.07136967,37.86383337,1286.846324
10.4350,58.22242901,37.77131151,1286.718109
10.4400,58.37858133,37.67915453,1286.587305
10.4450,58.53930683,37.5870709,1286.454148
10.4500,58.70503487,37.49503968,1286.318411
10.4550,58.87561031,37.4036446,1286.180394
10.4600,59.05091233,37.31178666,1286.039804
10.4650,59.23114476,37.22018426,1285.896811
10.4700,59.41696763,37.12831065,1285.750848
10.4750,59.60761286,37.03601688,1285.602369
10.4800,59.80300882,36.94272072,1285.45125
10.4850,60.00341641,36.84859879,1285.297407
10.4900,60.20739507,36.75314574,1285.141519
10.4950,60.41585178,36.65588495,1284.98293
10.5000,60.62784143,36.55732098,1284.822355
10.5050,60.84383488,36.45690712,1284.659343
10.5100,61.06267845,36.35504908,1284.494722
10.5150,61.28425037,36.25158772,1284.328464
10.5200,61.50775915,36.14642917,1284.161066
10.5250,61.73316684,36.03940273,1283.992475
10.5300,61.96102874,35.92973719,1283.822162
10.5350,62.19014915,35.81801381,1283.651003
10.5400,62.42110637,35.70311394,1283.478316
10.5450,62.65437467,35.5865726,1283.304392
10.5500,62.88943732,35.46738567,1283.129216
10.5550,63.12690135,35.34651846,1282.952773
10.5600,63.36769987,35.22513636,1282.774911
10.5650,63.61175325,35.1043822,1282.596078
10.5700,63.85903753,34.98437776,1282.416334
10.5750,64.11119236,34.86655705,1282.235237
10.5800,64.36908682,34.74949413,1282.051847
10.5850,64.63185489,34.6336463,1281.86682
10.5900,64.90122409,34.5187365,1281.67909
10.5950,65.17642332,34.40436519,1281.488961
10.6000,65.45757308,34.28949727,1281.296077
10.6050,65.74509051,34.17509073,1281.100502
10.6100,66.03882395,34.0606017,1280.902132
10.6150,66.33831432,33.94672204,1280.701455
10.6200,66.64356072,33.8337611,1280.498595
10.6250,66.95484972,33.72158006,1280.293355
10.6300,67.27180415,33.60924131,1280.085657
10.6350,67.59498553,33.49856227,1279.87579
10.6400,67.92493794,33.38954833,1279.663463
10.6450,68.26068876,33.2816164,1279.449032
10.6500,68.6020546,33.1751568,1279.232742
10.6550,68.95016621,33.07107891,1279.014295
10.6600,69.30487722,32.96887102,1278.793628
10.6650,69.66691538,32.86811548,1278.570233
10.6700,70.03642705,32.76911808,1278.34417
10.6750,70.41318938,32.67157408,1278.115453
10.6800,70.79680704,32.57478744,1277.884104
10.6850,71.1871552,32.47938554,1277.650413
10.6900,71.58474336,32.38421361,1277.413727
10.6950,71.98925,32.28875629,1277.174073
10.7000,72.39971453,32.19231741,1276.931758
10.7050,72.81678143,32.09400771,1276.686191
10.7100,73.2395244,31.99297817,1276.43761
10.7150,73.66743781,31.88869734,1276.186127
10.7200,74.10011985,31.78111108,1275.931965
10.7250,74.53600704,31.66903846,1275.675606
10.7300,74.97476671,31.55097998,1275.416775
10.7350,75.41630658,31.42680534,1275.155503
10.7400,75.85872055,31.29559099,1274.892538
10.7450,76.30173208,31.15761454,1274.628098
10.7500,76.74451569,31.0126624,1274.362541
10.7550,77.18653513,30.85961668,1274.0958
10.7600,77.6278992,30.6992396,1273.828073
10.7650,78.06676091,30.5307742,1273.560046
10.7700,78.5025751,30.35310848,1273.291679
10.7750,78.93496369,30.16549902,1273.022946
10.7800,79.3640901,29.96828135,1272.753841
10.7850,79.7879479,29.76133976,1272.485387
10.7900,80.20774245,29.54493339,1272.21706
10.7950,80.62269213,29.31957135,1271.949381
10.8000,81.03361175,29.08621518,1271.682248
10.8050,81.43960885,28.84435067,1271.416
10.8100,81.84161421,28.59478821,1271.150411
10.8150,82.23830202,28.33786413,1270.88626
10.8200,82.63061727,28.07384652,1270.623164
10.8250,83.01922436,27.80431671,1270.361281
10.8300,83.40530257,27.53059186,1270.100409
10.8350,83.78830207,27.25435996,1269.841308
10.8400,84.1682877,26.97590897,1269.584037
10.8450,84.54587365,26.69620836,1269.328562
10.8500,84.92149421,26.41517932,1269.074642
10.8550,85.29574263,26.13535309,1268.822716
10.8600,85.66792112,25.85546759,1268.572729
10.8650,86.03885038,25.57590916,1268.32438
10.8700,86.4086881,25.29811239,1268.078006
10.8750,86.77723209,25.02127314,1267.833482
10.8800,87.14497981,24.74729474,1267.591111
10.8850,87.51263817,24.47581622,1267.35046
10.8900,87.87969323,24.2086494,1267.112281
10.8950,88.24700732,23.94670701,1266.87643
10.9000,88.61570631,23.68971845,1266.642309
10.9050,88.98620021,23.43872637,1266.410006
10.9100,89.36008346,23.19433404,1266.17897
10.9150,89.7372933,22.95522219,1265.948863
10.9200,90.11738674,22.72085101,1265.719715
10.9250,90.50083935,22.49188872,1265.491504
10.9300,90.88719054,22.2673593,1265.26418
10.9350,91.27700818,22.0458177,1265.037074
10.9400,91.66993845,21.82807482,1264.810561
10.9450,92.06658918,21.61335723,1264.584167
10.9500,92.46726773,21.40146831,1264.357673
10.9550,92.8705013,21.19073224,1264.131282
10.9600,93.27710222,20.98181371,1263.904854
10.9650,93.68674034,20.77449016,1263.678451
10.9700,94.09880984,20.567961,1263.452146
10.9750,94.51276052,20.36209642,1263.226155
10.9800,94.928491,20.15621854,1263.000354
10.9850,95.34639523,19.95025167,1262.77455
10.9900,95.76665781,19.74414601,1262.548667
10.9950,96.1881649,19.53710388,1262.32299
11.0000,96.6111041,19.32900755,1262.097398
11.0050,97.03334356,19.11813743,1261.872406
11.0100,97.45504996,18.90495491,1261.648044
11.0150,97.87507277,18.68797274,1261.424409
11.0200,98.29260479,18.46572723,1261.201485
11.0250,98.70801857,18.23867852,1260.979198
11.0300,99.11966739,18.0067617,1260.758254
11.0350,99.52866192,17.76940099,1260.537995
11.0400,99.93447876,17.52722031,1260.318778
11.0450,100.3373267,17.28051977,1260.100607
11.0500,100.7364104,17.02855901,1259.883656
11.0550,101.1315529,16.77119989,1259.667981
11.0600,101.5227833,16.50829723,1259.453524
11.0650,101.9108289,16.24082843,1259.240266
11.0700,102.2951153,15.96996705,1259.028728
11.0750,102.6759474,15.69654334,1258.818941
11.0800,103.0537818,15.42099122,1258.610862
11.0850,103.4301298,15.14341723,1258.403836
11.0900,103.8044727,14.86498304,1258.19839
11.0950,104.1770309,14.58523076,1257.994318
11.1000,104.5479302,14.3035867,1257.791413
11.1050,104.9169727,14.02142857,1257.59007
11.1100,105.283891,13.73846567,1257.390316
11.1150,105.6499178,13.45542924,1257.191837
11.1200,106.0145903,13.17251886,1256.994854
11.1250,106.3774087,12.88849791,1256.799275
11.1300,106.7368465,12.60378012,1256.60581
11.1350,107.0937925,12.31772236,1256.413961
11.1400,107.447557,12.03073261,1256.224089
11.1450,107.7983745,11.74215305,1256.035952
11.1500,108.145745,11.45321082,1255.850041
11.1550,108.490867,11.16364836,1255.665803
11.1600,108.8352967,10.87481934,1255.48298
11.1650,109.1792706,10.58701442,1255.301556
11.1700,109.5236307,10.29979206,1255.121094
11.1750,109.8674236,10.01331694,1254.94199
11.1800,110.2114364,9.727625434,1254.763949
11.1850,110.5565399,9.444541229,1254.587027
11.1900,110.9035768,9.16323207,1254.410694
11.1950,111.2533657,8.883877408,1254.23469
11.2000,111.6049598,8.60587256,1254.059226
11.2050,111.958786,8.328135893,1253.883909
11.2100,112.3136644,8.051329604,1253.709314
11.2150,112.6704519,7.774875424,1253.535005
11.2200,113.0291054,7.49902842,1253.361082
11.2250,113.390052,7.222756698,1253.187138
11.2300,113.7538751,6.945778139,1253.012909
11.2350,114.1186518,6.667261471,1252.838951
11.2400,114.4849808,6.387847505,1252.665186
11.2450,114.850591,6.106227843,1252.492176
11.2500,115.2150888,5.821859315,1252.319966
11.2550,115.5781839,5.534788865,1252.148669
11.2600,115.9387095,5.244454343,1251.978581
11.2650,116.2963373,4.950112994,1251.809691
11.2700,116.6509768,4.651513708,1251.641946
11.2750,117.0025322,4.34832611,1251.475289
11.2800,117.351735,4.041025052,1251.309537
11.2850,117.6984308,3.729561984,1251.144727
11.2900,118.0424266,3.412669706,1250.980666
11.2950,118.3830223,3.090635849,1250.817659
11.3000,118.7214392,2.763070693,1250.655203
11.3050,119.0583078,2.43031471,1250.493111
11.3100,119.3932609,2.093178939,1250.331678
11.3150,119.7266104,1.751722899,1250.170839
11.3200,120.0589318,1.406821851,1250.010542
11.3250,120.3911416,1.058435577,1249.850441
11.3300,120.7227224,0.7063526016,1249.690679
11.3350,121.0528601,0.3509839712,1249.531589
11.3400,121.3811933,-0.009662628286,1249.372924
11.3450,121.7080052,-0.3754500326,1249.2146
11.3500,122.0345625,-0.7449278178,1249.056466
11.3550,122.3604869,-1.11746486,1248.898745
11.3600,122.6858473,-1.493565137,1248.741334
11.3650,123.0101681,-1.873397839,1248.584383
11.3700,123.3329201,-2.257222697,1248.428014
11.3750,123.6536504,-2.643302052,1248.272714
11.3800,123.9722723,-3.032076509,1248.118433
11.3850,124.2880352,-3.422857897,1247.965558
11.3900,124.6016842,-3.814660318,1247.814002
11.3950,124.9129949,-4.207076367,1247.663897
11.4000,125.2215147,-4.599380738,1247.515521
11.4050,125.5272603,-4.992260783,1247.368718
11.4100,125.8305117,-5.384812733,1247.223552
11.4150,126.1308376,-5.776906115,1247.080174
11.4200,126.4287481,-6.167195685,1246.938624
11.4250,126.7239969,-6.554515639,1246.799183
11.4300,127.017202,-6.93907013,1246.66162
11.4350,127.3088067,-7.320597725,1246.525824
11.4400,127.600421,-7.6977111,1246.391515
11.4450,127.8913177,-8.070246558,1246.258942
11.4500,128.1814284,-8.438629881,1246.128058
11.4550,128.4701011,-8.804064236,1245.99887
11.4600,128.7564878,-9.165834504,1245.871752
11.4650,129.0397268,-9.524340299,1245.746929
11.4700,129.3201102,-9.879577409,1245.62428
11.4750,129.5988642,-10.23062011,1245.503594
11.4800,129.8753429,-10.57710554,1245.385091
11.4850,130.1501147,-10.91956336,1245.268509
11.4900,130.4232087,-11.25852008,1245.153746
11.4950,130.6937274,-11.59460004,1245.04094
11.5000,130.9622209,-11.92626164,1244.930152
11.5050,131.2287726,-12.25341491,1244.821348
11.5100,131.4946429,-12.57636098,1244.714079
11.5150,131.7591058,-12.8946857,1244.608604
11.5200,132.0216528,-13.20795285,1244.505119
11.5250,132.2820906,-13.51708812,1244.40352
11.5300,132.539875,-13.82207107,1244.303976
11.5350,132.7958205,-14.12168152,1244.206372
11.5400,133.0490205,-14.41681837,1244.11086
11.5450,133.3017405,-14.70661092,1244.016872
11.5500,133.5544538,-14.99022408,1243.924377
11.5550,133.8082352,-15.2674107,1243.833072
11.5600,134.0635183,-15.53891022,1243.742706
11.5650,134.3195319,-15.80379579,1243.653615
11.5700,134.5776297,-16.06219063,1243.565398
11.5750,134.8386367,-16.31476432,1243.47771
11.5800,135.1008225,-16.56081804,1243.391137
11.5850,135.3651701,-16.80114926,1243.305289
11.5900,135.6308103,-17.03555434,1243.22043
11.5950,135.8986087,-17.2647637,1243.13616
11.6000,136.1666734,-17.48884539,1243.053017
11.6050,136.4369945,-17.70793321,1242.970385
11.6100,136.7087075,-17.92370714,1242.888256
11.6150,136.9816101,-18.13532436,1242.806767
11.6200,137.2563799,-18.34419747,1242.725524
11.6250,137.5311716,-18.55054501,1242.645049
11.6300,137.8066044,-18.75479056,1242.56507
11.6350,138.081714,-18.95743956,1242.485824
11.6400,138.3563938,-19.15733682,1242.407471
11.6450,138.6306382,-19.35568845,1242.329844
11.6500,138.903549,-19.55238465,1242.253209
11.6550,139.175229,-19.74846632,1242.177422
11.6600,139.4439178,-19.94391453,1242.102968
11.6650,139.7094143,-20.13826932,1242.029925
11.6700,139.9726316,-20.33141936,1241.958035
11.6750,140.2337688,-20.52517864,1241.887016
11.6800,140.4936023,-20.71778515,1241.816854
11.6850,140.7509271,-20.91072448,1241.747704
11.6900,141.0059867,-21.10301759,1241.679627
11.6950,141.2591658,-21.29437627,1241.612577
11.7000,141.5101878,-21.48435439,1241.54668
11.7050,141.759491,-21.67302679,1241.481832
11.7100,142.007113,-21.85986646,1241.418082
11.7150,142.2529129,-22.0449348,1241.355462
11.7200,142.4976933,-22.22812326,1241.293779
11.7250,142.7416528,-22.40846229,1241.233081
11.7300,142.9856987,-22.58594035,1241.173087
11.7350,143.2293913,-22.76024231,1241.113969
11.7400,143.4707667,-22.93139861,1241.05621
11.7450,143.7115342,-23.09933984,1240.999342
11.7500,143.9505503,-23.26307847,1240.943767
11.7550,144.1890754,-23.42285012,1240.889091
11.7600,144.4267434,-23.57911134,1240.835346
11.7650,144.665066,-23.73201177,1240.782087
11.7700,144.9033254,-23.88070323,1240.729608
11.7750,145.1405311,-24.0264842,1240.677977
11.7800,145.3768838,-24.169935,1240.627093
11.7850,145.6116993,-24.31193631,1240.577008
11.7900,145.8437856,-24.45193124,1240.528097
11.7950,146.0746351,-24.59053715,1240.479902
11.8000,146.303189,-24.72783868,1240.432665
11.8050,146.529066,-24.86535766,1240.386305
11.8100,146.7510448,-25.00371085,1240.341045
11.8150,146.9700875,-25.14271589,1240.296641
11.8200,147.1875679,-25.28462807,1240.252446
11.8250,147.4031226,-25.42795252,1240.208734
11.8300,147.6174734,-25.57303549,1240.165233
11.8350,147.8295857,-25.7209297,1240.122113
11.8400,148.0398149,-25.8719753,1240.07923
11.8450,148.2469283,-26.02599894,1240.036921
11.8500,148.4514641,-26.18263241,1239.995092
11.8550,148.6523464,-26.3430633,1239.953908
11.8600,148.8493246,-26.50692203,1239.913445
11.8650,149.0441995,-26.67440739,1239.873252
11.8700,149.2358553,-26.84570609,1239.833579
11.8750,149.4232301,-27.0205499,1239.794707
11.8800,149.6078247,-27.19867526,1239.756296
11.8850,149.7883919,-27.3804412,1239.71859
11.8900,149.9655804,-27.56535132,1239.681465
11.8950,150.1393335,-27.75393742,1239.644882
11.9000,150.3109146,-27.94674458,1239.608435
11.9050,150.4777103,-28.14376821,1239.572761
11.9100,150.6404177,-28.34513607,1239.537681
11.9150,150.7989934,-28.55144456,1239.503128
11.9200,150.952326,-28.76307345,1239.469308
11.9250,151.1000438,-28.98015651,1239.4363
11.9300,151.2435237,-29.20250729,1239.403781
11.9350,151.382582,-29.43067951,1239.371746
11.9400,151.5169711,-29.66454149,1239.340283
11.9450,151.6458495,-29.90265087,1239.309722
11.9500,151.7699829,-30.14710803,1239.279683
11.9550,151.8890779,-30.39625283,1239.250381
11.9600,152.0046661,-30.65003895,1239.221444
11.9650,152.1177841,-30.90750606,1239.192721
11.9700,152.2275284,-31.16835558,1239.16447
11.9750,152.3348509,-31.43110229,1239.136604
11.9800,152.4387651,-31.69554684,1239.109406
11.9850,152.5419754,-31.95950831,1239.082411
11.9900,152.6445374,-32.22419299,1239.055515
11.9950,152.7475822,-32.48770557,1239.02861
12.0000,152.8520273,-32.75019571,1239.001483
12.0050,152.9573883,-33.0099441,1238.974391
12.0100,153.0639223,-33.26764778,1238.947225
12.0150,153.1715577,-33.52253668,1238.920069
12.0200,153.2782646,-33.77465197,1238.893378
12.0250,153.3848168,-34.02408552,1238.86696
12.0300,153.4899542,-34.27012003,1238.841185
12.0350,153.5939105,-34.51195344,1238.816027
12.0400,153.6974152,-34.74960247,1238.79133
12.0450,153.7986693,-34.9840048,1238.767402
12.0500,153.8991338,-35.21549916,1238.743873
12.0550,153.9966139,-35.44297456,1238.721351
12.0600,154.0901332,-35.66673116,1238.700013
12.0650,154.1786479,-35.88661112,1238.68012
12.0700,154.2614145,-36.10289139,1238.661828
12.0750,154.3383633,-36.31473821,1238.645204
12.0800,154.4103891,-36.52180983,1238.630044
12.0850,154.476878,-36.72384883,1238.616502
12.0900,154.5386264,-36.9209947,1238.604381
12.0950,154.5941541,-37.1121792,1238.594096
12.1000,154.645568,-37.29835679,1238.585086
12.1050,154.6917601,-37.47851327,1238.577659
12.1100,154.733776,-37.65235917,1238.571609
12.1150,154.7712981,-37.82041579,1238.566971
12.1200,154.8042797,-37.98235267,1238.563797
12.1250,154.8323283,-38.13902503,1238.562114
12.1300,154.8562915,-38.29019167,1238.561771
12.1350,154.8773641,-38.43631958,1238.562441
12.1400,154.8959395,-38.57906678,1238.563902
12.1450,154.9131723,-38.71919203,1238.565838
12.1500,154.9279787,-38.85873075,1238.568358
12.1550,154.9410526,-38.99766572,1238.571292
12.1600,154.9532005,-39.13628136,1238.574442
12.1650,154.9634673,-39.27472817,1238.578012
12.1700,154.9728733,-39.41438405,1238.581664
12.1750,154.9819961,-39.55566174,1238.585254
12.1800,154.9901107,-39.70011578,1238.58883
12.1850,154.9983975,-39.84803908,1238.592092
12.1900,155.0072378,-40.00014447,1238.594917
12.1950,155.0177082,-40.1570566,1238.597029
12.2000,155.0289623,-40.31958085,1238.598566
12.2050,155.041858,-40.48867896,1238.599279
12.2100,155.0568208,-40.66478141,1238.599042
12.2150,155.0745171,-40.8482414,1238.597683
12.2200,155.0943493,-41.03936358,1238.595342
12.2250,155.1180918,-41.23761989,1238.591657
12.2300,155.1442155,-41.44371716,1238.586951
12.2350,155.1731906,-41.65698824,1238.58116
12.2400,155.2059771,-41.87707074,1238.574108
12.2450,155.2417082,-42.10462731,1238.565982
12.2500,155.2802697,-42.337267,1238.556967
12.2550,155.3206387,-42.5744215,1238.547357
12.2600,155.3633527,-42.81530654,1238.537121
12.2650,155.4082084,-43.05870313,1238.526407
12.2700,155.455241,-43.30477948,1238.515198
12.2750,155.5031016,-43.55233939,1238.503889
12.2800,155.5521788,-43.80139886,1238.492405
12.2850,155.5999838,-44.05084063,1238.481379
12.2900,155.6454234,-44.29996405,1238.471097
12.2950,155.6866367,-44.54955873,1238.461935
12.3000,155.7233036,-44.79832577,1238.454032
12.3050,155.7546749,-45.04603206,1238.447567
12.3100,155.7801661,-45.29157605,1238.442705
12.3150,155.7999698,-45.534797,1238.439395
12.3200,155.8124137,-45.77532743,1238.438029
12.3250,155.8174804,-46.01220297,1238.438654
12.3300,155.8140523,-46.24578554,1238.441476
12.3350,155.8005568,-46.47645858,1238.446831
12.3400,155.7762039,-46.70416981,1238.454902
12.3450,155.7409622,-46.92721879,1238.465781
12.3500,155.6937366,-47.14416432,1238.479775
12.3550,155.634285,-47.35596396,1238.496889
12.3600,155.5632875,-47.56193724,1238.516991
12.3650,155.4801082,-47.76155172,1238.540232
12.3700,155.3850284,-47.9546986,1238.566533
12.3750,155.2789199,-48.14261752,1238.595642
12.3800,155.1617156,-48.32419485,1238.627639
12.3850,155.0339826,-48.49926393,1238.662399
12.3900,154.8968387,-48.66726554,1238.699684
12.3950,154.7519787,-48.82809439,1238.739119
12.4000,154.5987368,-48.98206839,1238.780822
12.4050,154.4393282,-49.12921348,1238.824304
12.4100,154.275843,-49.27014203,1238.869059
12.4150,154.1096906,-49.40463577,1238.914754
12.4200,153.9419649,-49.53255916,1238.961148
12.4250,153.7743753,-49.65460145,1239.007809
12.4300,153.6082915,-49.7721865,1239.054355
12.4350,153.4444959,-49.88519644,1239.100593
12.4400,153.2841567,-49.99306264,1239.146268
12.4450,153.1285927,-50.0965063,1239.191018
12.4500,152.9783028,-50.19639306,1239.234678
12.4550,152.8349578,-50.29271575,1239.276847
12.4600,152.6990611,-50.3862662,1239.31736
12.4650,152.5711723,-50.47752357,1239.356053
12.4700,152.4522966,-50.5665233,1239.392665
12.4750,152.3427034,-50.65284348,1239.427124
12.4800,152.2446862,-50.73737153,1239.458844
12.4850,152.1577517,-50.8203484,1239.487929
12.4900,152.0829466,-50.90197301,1239.514093
12.4950,152.0196389,-50.98211245,1239.537466
12.5000,151.970575,-51.06075561,1239.557395
12.5050,151.936131,-51.13834114,1239.573768
12.5100,151.9175162,-51.21512192,1239.586286
12.5150,151.915285,-51.2915078,1239.594788
12.5200,151.9310062,-51.36777078,1239.598903
12.5250,151.9661185,-51.44515421,1239.598236
12.5300,152.0223405,-51.52184433,1239.592467
12.5350,152.0994914,-51.59875541,1239.581616
12.5400,152.1985858,-51.67605593,1239.565447
12.5450,152.3208367,-51.75340692,1239.543719
12.5500,152.4657237,-51.83150732,1239.516554
12.5550,152.634624,-51.91089988,1239.48366
12.5600,152.8268086,-51.99071241,1239.445258
12.5650,153.0410819,-52.07158639,1239.401645
12.5700,153.2781357,-52.15284874,1239.352753
12.5750,153.5374267,-52.23493334,1239.298749
12.5800,153.8167811,-52.31841874,1239.240157
12.5850,154.1158834,-52.40309596,1239.177142
12.5900,154.4338429,-52.4882004,1239.10998
12.5950,154.7686461,-52.57356538,1239.039202
12.6000,155.1177218,-52.65949449,1238.965435
12.6050,155.4791021,-52.74468931,1238.889218
12.6100,155.8499523,-52.82984141,1238.811217
12.6150,156.2271156,-52.91366186,1238.732217
12.6200,156.6105063,-52.99601873,1238.652265
12.6250,156.9963272,-53.07724662,1238.57221
12.6300,157.3818705,-53.15602289,1238.492691
12.6350,157.7660059,-53.23234476,1238.413959
12.6400,158.1461442,-53.30590587,1238.336565
12.6450,158.5195743,-53.37643215,1238.261094
12.6500,158.8844924,-53.44457446,1238.187888
12.6550,159.2388444,-53.50953267,1238.117381
12.6600,159.5822057,-53.57139593,1238.049631
12.6650,159.9133549,-53.6298922,1237.984878
12.6700,160.2310533,-53.68435576,1237.923355
12.6750,160.5341449,-53.73367983,1237.86531
12.6800,160.8213902,-53.77845043,1237.810919
12.6850,161.0919813,-53.81831613,1237.760315
12.6900,161.3447102,-53.85296944,1237.713716
12.6950,161.5793989,-53.88317723,1237.671084
12.7000,161.7969188,-53.90817718,1237.63223
12.7050,161.9969314,-53.92789613,1237.597176
12.7100,162.179158,-53.94290364,1237.565909
12.7150,162.3436374,-53.95374571,1237.538384
12.7200,162.4926076,-53.96127967,1237.514068
12.7250,162.6260509,-53.96571078,1237.49293
12.7300,162.7446927,-53.96706989,1237.474775
12.7350,162.8500648,-53.9652758,1237.459286
12.7400,162.9425255,-53.96227014,1237.446304
12.7450,163.0221602,-53.95798189,1237.435795
12.7500,163.0909078,-53.95198418,1237.427361
12.7550,163.1480808,-53.94363123,1237.421129
12.7600,163.1946227,-53.93335688,1237.416889
12.7650,163.2322905,-53.9214944,1237.414259
12.7700,163.2617307,-53.90731556,1237.413117
12.7750,163.2832262,-53.89098171,1237.413391
12.7800,163.297177,-53.87207557,1237.415001
12.7850,163.3036698,-53.8501415,1237.417924
12.7900,163.3038445,-53.82598222,1237.421905
12.7950,163.2993089,-53.79792532,1237.42667
12.8000,163.289095,-53.76652213,1237.432385
12.8050,163.2748566,-53.73154519,1237.438726
12.8100,163.2573708,-53.6928805,1237.445539
12.8150,163.2362673,-53.65000878,1237.452914
12.8200,163.2128434,-53.60282612,1237.460589
12.8250,163.1870686,-53.55043529,1237.468604
12.8300,163.1588916,-53.49395881,1237.476935
12.8350,163.1295095,-53.43299565,1237.485366
12.8400,163.0992294,-53.36789066,1237.493842
12.8450,163.0693476,-53.29838882,1237.502121
12.8500,163.0413506,-53.22488198,1237.509904
12.8550,163.0161081,-53.1478185,1237.517011
12.8600,162.9945825,-53.06786458,1237.523239
12.8650,162.9781823,-52.98617844,1237.528287
12.8700,162.966973,-52.90221787,1237.532161
12.8750,162.9610286,-52.81751288,1237.53481
12.8800,162.9620264,-52.73256195,1237.5359
12.8850,162.9704871,-52.64898488,1237.535271
12.8900,162.9860917,-52.56763522,1237.532972
12.8950,163.009407,-52.48882103,1237.528879
12.9000,163.0393246,-52.41307798,1237.52321
12.9050,163.0761243,-52.34282561,1237.515828
12.9100,163.1194505,-52.27708157,1237.506843
12.9150,163.1702642,-52.2177475,1237.496001
12.9200,163.2274534,-52.16485203,1237.483529
12.9250,163.2914852,-52.11982425,1237.469293
12.9300,163.3628226,-52.08347823,1237.453183
12.9350,163.4395784,-52.05533337,1237.435594
12.9400,163.5228578,-52.03696426,1237.416257
12.9450,163.6129764,-52.02892501,1237.395103
12.9500,163.7089285,-52.03229792,1237.372293
12.9550,163.8120386,-52.04627574,1237.347607
12.9600,163.920769,-52.07167718,1237.321328
12.9650,164.0348928,-52.10711641,1237.293549
12.9700,164.1550014,-52.15342348,1237.264149
12.9750,164.2803796,-52.21007821,1237.233268
12.9800,164.4115345,-52.27673252,1237.200857
12.9850,164.5483247,-52.35406717,1237.166923
12.9900,164.6907824,-52.44166575,1237.131487
12.9950,164.8381217,-52.53813816,1237.094749
13.0000,164.9902938,-52.64440986,1237.056701
13.0050,165.148427,-52.75880323,1237.017183
13.0100,165.3106829,-52.88085885,1236.976578
13.0150,165.4776793,-53.01081018,1236.934763
13.0200,165.6469805,-53.14761811,1236.892242
13.0250,165.8184512,-53.29048502,1236.849063
13.0300,165.9909261,-53.43809088,1236.805504
13.0350,166.1639387,-53.59006407,1236.761659
13.0400,166.3372258,-53.74492534,1236.717622
13.0450,166.5092303,-53.90180129,1236.67369
13.0500,166.6798954,-54.05979113,1236.629896
13.0550,166.849261,-54.21939289,1236.586215
13.0600,167.0168189,-54.37930827,1236.542755
13.0650,167.1811222,-54.53784549,1236.499837
13.0700,167.3414682,-54.69481762,1236.457578
13.0750,167.4980287,-54.85064191,1236.415916
13.0800,167.6495393,-55.00394585,1236.37511
13.0850,167.7972819,-55.15377764,1236.334924
13.0900,167.9405734,-55.30000826,1236.295488
13.0950,168.0783814,-55.44264418,1236.256967
13.1000,168.211481,-55.58015927,1236.219246
13.1050,168.3388874,-55.71227038,1236.182487
13.1100,168.4605959,-55.83874921,1236.146676
13.1150,168.5766616,-55.96002359,1236.111784
13.1200,168.6871221,-56.07559681,1236.077792
13.1250,168.7915985,-56.18603501,1236.044746
13.1300,168.8904047,-56.29139475,1236.012564
13.1350,168.9842694,-56.39271423,1235.981081
13.1400,169.0735337,-56.48902028,1235.950248
13.1450,169.1579919,-56.58098373,1235.920067
13.1500,169.2369276,-56.6692684,1235.890648
13.1550,169.3123801,-56.75428106,1235.861611
13.1600,169.3836082,-56.8361807,1235.833093
13.1650,169.450551,-56.91501048,1235.805078
13.1700,169.5147065,-56.99259149,1235.777269
13.1750,169.5763151,-57.06782319,1235.749634
13.1800,169.6356046,-57.14099244,1235.722123
13.1850,169.6919949,-57.21195454,1235.694841
13.1900,169.7456714,-57.28131063,1235.667739
13.1950,169.7963868,-57.34861496,1235.640891
13.2000,169.8449055,-57.41475645,1235.614122
13.2050,169.8920384,-57.47697235,1235.587364
13.2100,169.9379799,-57.53701661,1235.560528
13.2150,169.9831036,-57.59397056,1235.533583
13.2200,170.0273884,-57.64738898,1235.506529
13.2250,170.0700074,-57.69681176,1235.479543
13.2300,170.1113189,-57.74267662,1235.452549
13.2350,170.152089,-57.78481373,1235.425428
13.2400,170.1921155,-57.82175054,1235.398233
13.2450,170.2309992,-57.85258255,1235.371057
13.2500,170.2694663,-57.87729909,1235.343785
13.2550,170.3065441,-57.89576067,1235.316593
13.2600,170.3430131,-57.90760321,1235.289357
13.2650,170.3792624,-57.91416698,1235.261985
13.2700,170.415475,-57.91444227,1235.234463
13.2750,170.4515024,-57.90896881,1235.206821
13.2800,170.4873227,-57.89843268,1235.179044
13.2850,170.524098,-57.88152762,1235.150966
13.2900,170.5616749,-57.85913727,1235.122585
13.2950,170.5999406,-57.83117221,1235.09393
13.3000,170.6390072,-57.79762354,1235.064995
13.3050,170.6779563,-57.76104329,1235.0359
13.3100,170.7183997,-57.72070167,1235.006359
13.3150,170.7602097,-57.67609312,1234.976396
13.3200,170.8024561,-57.6277247,1234.946183
13.3250,170.8457853,-57.57736806,1234.915579
13.3300,170.889586,-57.5249463,1234.884685
13.3350,170.9331368,-57.47074005,1234.853632
13.3400,170.9759894,-57.4145178,1234.8225
13.3450,171.0189596,-57.35685194,1234.79115
13.3500,171.0596706,-57.29702861,1234.760021
13.3550,171.0986045,-57.23506228,1234.72904
13.3600,171.1352006,-57.17100596,1234.698317
13.3650,171.1688012,-57.10490513,1234.667972
13.3700,171.1976566,-57.03639155,1234.638336
13.3750,171.2214838,-56.96485971,1234.609473
13.3800,171.2399124,-56.89069742,1234.581448
13.3850,171.2520988,-56.81379358,1234.554429
13.3900,171.2570546,-56.7330805,1234.528618
13.3950,171.2545266,-56.64940474,1234.50404
13.4000,171.2427152,-56.56329013,1234.481002
13.4050,171.2216812,-56.47458989,1234.45952
13.4100,171.1899514,-56.38284051,1234.439856
13.4150,171.1481836,-56.28881676,1234.421883
13.4200,171.0947045,-56.19157505,1234.405939
13.4250,171.0299143,-56.09194236,1234.391939
13.4300,170.9532445,-55.98991088,1234.379995
13.4350,170.8636598,-55.88497835,1234.370323
13.4400,170.7618435,-55.77756103,1234.362809
13.4450,170.647271,-55.6681396,1234.357563
13.4500,170.5207874,-55.55610614,1234.354464
13.4550,170.3818604,-55.44098373,1234.353648
13.4600,170.2308155,-55.32264835,1234.355087
13.4650,170.0683339,-55.20097375,1234.358716
13.4700,169.8942663,-55.07484487,1234.364617
13.4750,169.7095617,-54.94504433,1234.372647
13.4800,169.5147971,-54.81085396,1234.382749
13.4850,169.3118416,-54.67137982,1234.394658
13.4900,169.1013138,-54.52533134,1234.408335
13.4950,168.8843465,-54.37337634,1234.423596
13.5000,168.662563,-54.21503427,1234.440203
13.5050,168.4357862,-54.0516558,1234.458167
13.5100,168.2060782,-53.88171361,1234.4772
13.5150,167.9726129,-53.70560394,1234.497445
13.5200,167.7375045,-53.52391809,1234.518504
13.5250,167.501449,-53.33633852,1234.540272
13.5300,167.2660749,-53.14089372,1234.562523
13.5350,167.0331559,-52.93966839,1234.584878
13.5400,166.8024688,-52.73146394,1234.60744
13.5450,166.5751119,-52.51691196,1234.629979
13.5500,166.3522314,-52.29467488,1234.652332
13.5550,166.1349107,-52.06584991,1234.674267
13.5600,165.9246373,-51.82958593,1234.695543
13.5650,165.7223372,-51.58555987,1234.716013
13.5700,165.5281922,-51.33307853,1234.735678
13.5750,165.3438821,-51.07134807,1234.754268
13.5800,165.1702362,-50.80073926,1234.771586
13.5850,165.0077467,-50.52166483,1234.787559
13.5900,164.8581801,-50.23401821,1234.801856
13.5950,164.7233697,-49.93826863,1234.814104
13.6000,164.6037149,-49.63464004,1234.824195
13.6050,164.5007021,-49.32238265,1234.831874
13.6100,164.4142519,-49.00361489,1234.837057
13.6150,164.3443315,-48.67945145,1234.839722
13.6200,164.2929528,-48.35090459,1234.839411
13.6250,164.2596056,-48.01834782,1234.83617
13.6300,164.24571,-47.68297956,1234.829672
13.6350,164.2500224,-47.34590266,1234.82009
13.6400,164.2724341,-47.0080464,1234.807403
13.6450,164.3127659,-46.66983198,1234.791617
13.6500,164.3724666,-46.33294685,1234.772328
13.6550,164.4496613,-45.99738583,1234.749917
13.6600,164.5430639,-45.66441273,1234.724558
13.6650,164.6526868,-45.33453164,1234.696221
13.6700,164.7783892,-45.00908684,1234.664848
13.6750,164.9180964,-44.68708619,1234.630889
13.6800,165.0715186,-44.36817485,1234.594424
13.6850,165.2380765,-44.05296554,1234.555528
13.6900,165.4161018,-43.74105738,1234.514559
13.6950,165.6040555,-43.43252242,1234.471842
13.7000,165.8010769,-43.12680587,1234.427592
13.7050,166.0058389,-42.82337754,1234.382077
13.7100,166.2166262,-42.52328762,1234.335592
13.7150,166.4312412,-42.22565711,1234.288632
13.7200,166.6489939,-41.93136716,1234.241272
13.7250,166.8676097,-41.63958439,1234.194008
13.7300,167.0854997,-41.35083087,1234.147118
13.7350,167.3010847,-41.06467714,1234.100916
13.7400,167.5120744,-40.78274056,1234.055747
13.7450,167.7179931,-40.50440094,1234.011725
13.7500,167.9169964,-40.22916309,1233.969213
13.7550,168.1078602,-39.95791947,1233.928355
13.7600,168.290271,-39.68983588,1233.889227
13.7650,168.4637714,-39.424462,1233.851927
