type,name,time_units,begin_time,frequency,count,units
signal_3d,"Noraxon MyoMotion-Trajectories-Elbow RT","s",0.0000,200,5068,"mm"

time,x,y,z
0.0000,161.6940151,-5.533403073,1242.408367
0.0050,161.7236901,-5.51134015,1242.40637
0.0100,161.7533617,-5.48927209,1242.40438
0.0150,161.7830298,-5.467198892,1242.402395
0.0200,161.8205973,-5.445607879,1242.398751
0.0250,161.8669376,-5.425036487,1242.393182
0.0300,161.9228772,-5.406020335,1242.385429
0.0350,161.9891662,-5.389064884,1242.375258
0.0400,162.0664431,-5.374622589,1242.362466
0.0450,162.1552033,-5.363075193,1242.346894
0.0500,162.2557769,-5.354716412,1242.328432
0.0550,162.3683181,-5.349740448,1242.307025
0.0600,162.4927959,-5.348244064,1242.282674
0.0650,162.628984,-5.350234256,1242.255434
0.0700,162.7764541,-5.355629777,1242.225419
0.0750,162.9345738,-5.364260642,1242.192798
0.0800,163.1025058,-5.37587171,1242.157797
0.0850,163.2792108,-5.390125173,1242.120693
0.0900,163.463461,-5.40660257,1242.081816
0.0950,163.6538627,-5.424815064,1242.041533
0.1000,163.8488841,-5.44421929,1242.000251
0.1050,164.0468834,-5.464230286,1241.958396
0.1100,164.2461385,-5.484232867,1241.916413
0.1150,164.4448752,-5.503595192,1241.874756
0.1200,164.6412956,-5.521683516,1241.833878
0.1250,164.8336109,-5.537877305,1241.794223
0.1300,165.0200759,-5.551585189,1241.756219
0.1350,165.1990254,-5.562261766,1241.720266
0.1400,165.3689092,-5.569425239,1241.686727
0.1450,165.5283311,-5.572674203,1241.655923
0.1500,165.6760833,-5.571698451,1241.62812
0.1550,165.8632167,-5.56871679,1241.593353
0.1600,166.0348584,-5.56239006,1241.562179
0.1650,166.1896263,-5.553203353,1241.534724
0.1700,166.3276814,-5.541851484,1241.510826
0.1750,166.4484175,-5.527608452,1241.490708
0.1800,166.5523555,-5.511906132,1241.474001
0.1850,166.640176,-5.494715965,1241.46058
0.1900,166.7121613,-5.475714969,1241.450432
0.1950,166.767717,-5.457088442,1241.443265
0.2000,166.8072545,-5.439153586,1241.438964
0.2050,166.8309368,-5.422286371,1241.437424
0.2100,166.8396915,-5.406841702,1241.438397
0.2150,166.8340766,-5.394177278,1241.441559
0.2200,166.8141349,-5.385599571,1241.446675
0.2250,166.7806294,-5.381007445,1241.453625
0.2300,166.7342471,-5.380992083,1241.46218
0.2350,166.6757081,-5.386640504,1241.47202
0.2400,166.6049974,-5.397049028,1241.483313
0.2450,166.5228209,-5.411501631,1241.496063
0.2500,166.4301005,-5.431100228,1241.509914
0.2550,166.3258052,-5.455884507,1241.525057
0.2600,166.2133997,-5.484231733,1241.541132
0.2650,166.0928101,-5.516748192,1241.558053
0.2700,165.9647724,-5.553135377,1241.575735
0.2750,165.8296818,-5.592299739,1241.594308
0.2800,165.6891253,-5.63467296,1241.6134
0.2850,165.5441377,-5.679191111,1241.633001
0.2900,165.3947384,-5.725300277,1241.653204
0.2950,165.2435655,-5.772378188,1241.673628
0.3000,165.0924092,-5.820745539,1241.693875
0.3050,164.9408009,-5.87005701,1241.714097
0.3100,164.7909142,-5.918689459,1241.73416
0.3150,164.6441266,-5.966776268,1241.753783
0.3200,164.5018931,-6.014885661,1241.772578
0.3250,164.3648667,-6.062550111,1241.790495
0.3300,164.2327686,-6.110456514,1241.80747
0.3350,164.1064299,-6.157263796,1241.823567
0.3400,163.9873101,-6.204090839,1241.838321
0.3450,163.8749165,-6.249637037,1241.852041
0.3500,163.7703363,-6.29301766,1241.86467
0.3550,163.672177,-6.335363566,1241.876284
0.3600,163.5803162,-6.376807541,1241.886878
0.3650,163.4943663,-6.416142389,1241.896737
0.3700,163.4139445,-6.453634257,1241.905886
0.3750,163.3384187,-6.488602411,1241.914583
0.3800,163.2674537,-6.521544555,1241.922794
0.3850,163.2008986,-6.551401758,1241.930732
0.3900,163.1369549,-6.578373464,1241.938709
0.3950,163.0764383,-6.603199204,1241.946454
0.4000,163.0171886,-6.625257845,1241.954481
0.4050,162.9600974,-6.645017217,1241.962545
0.4100,162.9046069,-6.662999739,1241.970659
0.4150,162.8506206,-6.679273561,1241.978838
0.4200,162.7982322,-6.693533012,1241.987104
0.4250,162.7467114,-6.706777227,1241.995422
0.4300,162.6966665,-6.720135861,1242.003472
0.4350,162.6479714,-6.732744243,1242.011432
0.4400,162.6015743,-6.74668486,1242.018753
0.4450,162.5568178,-6.762487327,1242.025467
0.4500,162.51375,-6.779647871,1242.031646
0.4550,162.4728847,-6.798648361,1242.037113
0.4600,162.4345271,-6.821798609,1242.041398
0.4650,162.3976521,-6.848974617,1242.044734
0.4700,162.3628585,-6.879461664,1242.047107
0.4750,162.329404,-6.914911592,1242.048387
0.4800,162.2977663,-6.954367327,1242.04864
0.4850,162.2669268,-6.997501301,1242.048134
0.4900,162.2371751,-7.044714471,1242.046734
0.4950,162.2084467,-7.094438233,1242.044723
0.5000,162.1806217,-7.147457562,1242.04198
0.5050,162.1535526,-7.202593761,1242.038738
0.5100,162.1275422,-7.260484996,1242.034836
0.5150,162.1012006,-7.321300431,1242.030516
0.5200,162.0766304,-7.384220115,1242.025505
0.5250,162.0536562,-7.449308811,1242.019824
0.5300,162.0333075,-7.516170874,1242.013338
0.5350,162.0148239,-7.584525084,1242.006239
0.5400,161.9985734,-7.653923746,1241.998532
0.5450,161.9845085,-7.72504893,1241.990109
0.5500,161.9734916,-7.798044757,1241.980773
0.5550,161.9665048,-7.871093992,1241.970629
0.5600,161.9622659,-7.945808909,1241.959663
0.5650,161.9607668,-8.021441807,1241.948005
0.5700,161.9618408,-8.097715558,1241.935729
0.5750,161.9674502,-8.174904382,1241.922382
0.5800,161.9774781,-8.251856328,1241.908191
0.5850,161.9919437,-8.329931448,1241.892918
0.5900,162.012519,-8.408450226,1241.876346
0.5950,162.0391053,-8.487385019,1241.858499
0.6000,162.0710506,-8.566215086,1241.839574
0.6050,162.1105907,-8.644782663,1241.819164
0.6100,162.157822,-8.723709979,1241.797141
0.6150,162.2130359,-8.802947671,1241.773451
0.6200,162.2770145,-8.882556316,1241.747938
0.6250,162.3501634,-8.962177334,1241.72058
0.6300,162.4329967,-9.042429639,1241.691183
0.6350,162.5258821,-9.122580771,1241.659813
0.6400,162.628867,-9.203012822,1241.626391
0.6450,162.7427271,-9.2839489,1241.590745
0.6500,162.8662655,-9.366825148,1241.552894
0.6550,163.00017,-9.449646582,1241.513045
0.6600,163.1443186,-9.533773672,1241.471009
0.6650,163.2983879,-9.619097121,1241.426886
0.6700,163.4612493,-9.706453628,1241.380769
0.6750,163.6321476,-9.795715054,1241.33285
0.6800,163.8102495,-9.887171896,1241.283261
0.6850,163.9954599,-9.981766923,1241.231886
0.6900,164.1864676,-10.07929291,1241.179036
0.6950,164.381519,-10.18062675,1241.124917
0.7000,164.5798075,-10.28553949,1241.069745
0.7050,164.7797845,-10.39332189,1241.01393
0.7100,164.9807281,-10.50509795,1240.957446
0.7150,165.1816775,-10.62001898,1240.900622
0.7200,165.3812978,-10.73913846,1240.843557
0.7250,165.5793223,-10.86200226,1240.786373
0.7300,165.7740925,-10.9874494,1240.729576
0.7350,165.9656263,-11.11628941,1240.673033
0.7400,166.1512803,-11.24781357,1240.617354
0.7450,166.3322662,-11.38176296,1240.562346
0.7500,166.5069582,-11.51833439,1240.508288
0.7550,166.6743887,-11.65714281,1240.455407
0.7600,166.8343775,-11.79685955,1240.403931
0.7650,166.9877914,-11.93699307,1240.353781
0.7700,167.1336358,-12.07762602,1240.305118
0.7750,167.2721341,-12.21733837,1240.258114
0.7800,167.4030599,-12.35623037,1240.212781
0.7850,167.5269806,-12.49440714,1240.168983
0.7900,167.643764,-12.63156504,1240.126794
0.7950,167.7536676,-12.7679173,1240.086128
0.8000,167.857381,-12.90322061,1240.046888
0.8050,167.9552707,-13.0368021,1240.00909
0.8100,168.0478743,-13.16808204,1239.97272
0.8150,168.1363176,-13.29642756,1239.937665
0.8200,168.2193514,-13.42223434,1239.904072
0.8250,168.2969616,-13.54446754,1239.872096
0.8300,168.3680223,-13.66358462,1239.841853
0.8350,168.4335902,-13.77947122,1239.813158
0.8400,168.4939065,-13.89264261,1239.785892
0.8450,168.5489409,-14.00204628,1239.760186
0.8500,168.598869,-14.10821332,1239.735933
0.8550,168.6429766,-14.2107049,1239.71331
0.8600,168.6814815,-14.30957757,1239.692264
0.8650,168.7147558,-14.40447123,1239.672758
0.8700,168.7436701,-14.4949756,1239.6547
0.8750,168.7667291,-14.58122082,1239.638339
0.8800,168.7837536,-14.66229343,1239.623819
0.8850,168.7959061,-14.73785488,1239.610982
0.8900,168.8025358,-14.80795182,1239.599929
0.8950,168.8031252,-14.87316664,1239.590651
0.9000,168.7989168,-14.93405695,1239.582852
0.9050,168.7908101,-14.99071218,1239.576352
0.9100,168.7782377,-15.04355601,1239.571188
0.9150,168.7623739,-15.09208832,1239.567226
0.9200,168.7438744,-15.13575207,1239.564434
0.9250,168.7242597,-15.17496718,1239.56247
0.9300,168.7041448,-15.20863151,1239.5614
0.9350,168.6845351,-15.2385712,1239.560757
0.9400,168.665756,-15.26354745,1239.560671
0.9450,168.6497954,-15.28387329,1239.56074
0.9500,168.6369107,-15.29924128,1239.560967
0.9550,168.62648,-15.31120215,1239.561223
0.9600,168.6201551,-15.31804181,1239.561484
0.9650,168.6175765,-15.3208469,1239.561643
0.9700,168.6192172,-15.31936115,1239.561656
0.9750,168.6235762,-15.3142255,1239.561692
0.9800,168.6311874,-15.30517758,1239.561697
0.9850,168.6396366,-15.29153846,1239.56219
0.9900,168.6495052,-15.27357804,1239.563037
0.9950,168.6602847,-15.25072236,1239.564407
1.0000,168.6712342,-15.22388959,1239.566294
1.0050,168.6817896,-15.19261817,1239.568869
1.0100,168.6926354,-15.15714861,1239.571977
1.0150,168.7019644,-15.11823498,1239.575821
1.0200,168.7110169,-15.07523824,1239.580258
1.0250,168.7193621,-15.02913222,1239.585226
1.0300,168.7280401,-14.98251165,1239.590169
1.0350,168.7364849,-14.93499491,1239.59523
1.0400,168.7467946,-14.88773657,1239.599846
1.0450,168.7581502,-14.84239568,1239.603928
1.0500,168.7720372,-14.79962143,1239.607107
1.0550,168.7890805,-14.76111787,1239.609011
1.0600,168.810584,-14.72653308,1239.609455
1.0650,168.8361217,-14.69808439,1239.608179
1.0700,168.8675187,-14.67541702,1239.604912
1.0750,168.9053917,-14.65966856,1239.59937
1.0800,168.9497539,-14.65147567,1239.591453
1.0850,169.0013071,-14.65135513,1239.58096
1.0900,169.0598126,-14.65982985,1239.56785
1.0950,169.1253266,-14.6768474,1239.552128
1.1000,169.1969191,-14.7022553,1239.53397
1.1050,169.2751173,-14.73725047,1239.513125
1.1100,169.3590527,-14.78143655,1239.489805
1.1150,169.448784,-14.83436558,1239.464057
1.1200,169.5447146,-14.89595891,1239.435845
1.1250,169.6451129,-14.9670593,1239.405342
1.1300,169.7507123,-15.0473803,1239.372483
1.1350,169.8606189,-15.13673555,1239.337466
1.1400,169.9742456,-15.23485401,1239.300443
1.1450,170.0914585,-15.34203073,1239.261416
1.1500,170.2122195,-15.45757584,1239.220484
1.1550,170.3361425,-15.58278233,1239.177556
1.1600,170.4635411,-15.71702037,1239.132686
1.1650,170.5945652,-15.85921086,1239.08602
1.1700,170.7294287,-16.00974565,1239.037467
1.1750,170.8679154,-16.16842598,1238.987109
1.1800,171.0100055,-16.33609475,1238.93486
1.1850,171.1554502,-16.51194621,1238.880888
1.1900,171.3039398,-16.6961714,1238.825232
1.1950,171.4567389,-16.88731278,1238.767899
1.2000,171.6131814,-17.08583868,1238.708959
1.2050,171.773176,-17.29011185,1238.648666
1.2100,171.9378913,-17.49909493,1238.586992
1.2150,172.1061371,-17.71264404,1238.524159
1.2200,172.2778511,-17.93014345,1238.46028
1.2250,172.4510604,-18.15154351,1238.395712
1.2300,172.6276087,-18.37480016,1238.330419
1.2350,172.8059333,-18.60003351,1238.264659
1.2400,172.9863915,-18.82731054,1238.198368
1.2450,173.1661917,-19.05597496,1238.132098
1.2500,173.3461974,-19.28481199,1238.065867
1.2550,173.5261353,-19.51386291,1237.999713
1.2600,173.7046262,-19.74361035,1237.93379
1.2650,173.8823842,-19.97212806,1237.868235
1.2700,174.0575732,-20.19957009,1237.803323
1.2750,174.2319471,-20.42461775,1237.73892
1.2800,174.4056645,-20.64690236,1237.675043
1.2850,174.5786386,-20.86654006,1237.611686
1.2900,174.7512013,-21.08372763,1237.548736
1.2950,174.9224335,-21.29858467,1237.48632
1.3000,175.0931257,-21.51069594,1237.424345
1.3050,175.2625897,-21.72072052,1237.362826
1.3100,175.429871,-21.92877058,1237.30188
1.3150,175.5957535,-22.13547588,1237.241297
1.3200,175.7591585,-22.34053943,1237.181284
1.3250,175.9201593,-22.5436033,1237.121864
1.3300,176.0781174,-22.7433496,1237.063275
1.3350,176.2335753,-22.94138869,1237.005229
1.3400,176.3861912,-23.13676496,1236.9479
1.3450,176.5363407,-23.32909619,1236.89125
1.3500,176.6842774,-23.51886486,1236.835177
1.3550,176.8306762,-23.70350092,1236.77988
1.3600,176.9753744,-23.88489734,1236.725151
1.3650,177.1190981,-24.06085022,1236.671136
1.3700,177.261748,-24.23215493,1236.617741
1.3750,177.4043754,-24.39751371,1236.564942
1.3800,177.5459619,-24.55621044,1236.51298
1.3850,177.6872965,-24.70844663,1236.46169
1.3900,177.8284879,-24.8538677,1236.411087
1.3950,177.9692999,-24.99220687,1236.361223
1.4000,178.1098713,-25.12317358,1236.312112
1.4050,178.2497343,-25.24700857,1236.263782
1.4100,178.3885052,-25.36255222,1236.216419
1.4150,178.5250139,-25.47173544,1236.169972
1.4200,178.6578102,-25.57359105,1236.124755
1.4250,178.7879763,-25.66715436,1236.080716
1.4300,178.9146663,-25.75367204,1236.037826
1.4350,179.0374201,-25.83185616,1235.996294
1.4400,179.155173,-25.90301568,1235.956111
1.4450,179.2681531,-25.96692943,1235.917252
1.4500,179.3751708,-26.02299339,1235.879984
1.4550,179.4753729,-26.07103405,1235.844424
1.4600,179.569198,-26.11137346,1235.810451
1.4650,179.6559375,-26.14530369,1235.778013
1.4700,179.7352799,-26.17309966,1235.747127
1.4750,179.8070981,-26.19506079,1235.717774
1.4800,179.8708031,-26.21139899,1235.689995
1.4850,179.9268815,-26.2222821,1235.663702
1.4900,179.9751435,-26.22733964,1235.638945
1.4950,180.0152544,-26.2276986,1235.61567
1.5000,180.0482612,-26.22237215,1235.593807
1.5050,180.0737377,-26.21149181,1235.573397
1.5100,180.0912789,-26.19510945,1235.554499
1.5150,180.1018857,-26.17223758,1235.537073
1.5200,180.1051166,-26.14352702,1235.521106
1.5250,180.1028563,-26.10747795,1235.50648
1.5300,180.0942158,-26.06674113,1235.493036
1.5350,180.0785751,-26.0194869,1235.481065
1.5400,180.0559492,-25.96532171,1235.470623
1.5450,180.0273799,-25.90375305,1235.461609
1.5500,179.9934953,-25.8353114,1235.453867
1.5550,179.9541059,-25.75845462,1235.44763
1.5600,179.9100721,-25.67358451,1235.442721
1.5650,179.8608191,-25.58113986,1235.439186
1.5700,179.8073613,-25.48133812,1235.436866
1.5750,179.7499102,-25.37496898,1235.435647
1.5800,179.6870658,-25.26234184,1235.43571
1.5850,179.6200498,-25.1436149,1235.436867
1.5900,179.5481403,-25.01758224,1235.439408
1.5950,179.4728421,-24.88527615,1235.442992
1.6000,179.3953361,-24.74539078,1235.447617
1.6050,179.3165264,-24.59853766,1235.453073
1.6100,179.2362195,-24.44340558,1235.459566
1.6150,179.1566672,-24.27904885,1235.466863
1.6200,179.0775452,-24.10710023,1235.474845
1.6250,178.9988226,-23.92619656,1235.483672
1.6300,178.9214987,-23.73632893,1235.493201
1.6350,178.8449238,-23.53708414,1235.503613
1.6400,178.7694014,-23.32801463,1235.514908
1.6450,178.6953518,-23.10861144,1235.527125
1.6500,178.6223693,-22.87839614,1235.540398
1.6550,178.5493981,-22.63804182,1235.554832
1.6600,178.4774271,-22.38657511,1235.570436
1.6650,178.4061215,-22.12470166,1235.587209
1.6700,178.3346331,-21.85183585,1235.605386
1.6750,178.2631024,-21.56938609,1235.624804
1.6800,178.1923187,-21.27633291,1235.645502
1.6850,178.121831,-20.97289117,1235.667554
1.6900,178.0517584,-20.66039692,1235.690805
1.6950,177.982274,-20.3398381,1235.715127
1.7000,177.9128658,-20.01180183,1235.740569
1.7050,177.8431483,-19.67702808,1235.767101
1.7100,177.7730243,-19.33732369,1235.794542
1.7150,177.7021281,-18.99196627,1235.823065
1.7200,177.6316947,-18.64360819,1235.852148
1.7250,177.5612071,-18.29252226,1235.881853
1.7300,177.4907829,-17.9393524,1235.912078
1.7350,177.4201002,-17.58679586,1235.942519
1.7400,177.349959,-17.2334056,1235.973245
1.7450,177.2806853,-16.88020809,1236.004089
1.7500,177.2128829,-16.52812872,1236.034806
1.7550,177.1485104,-16.17799964,1236.064978
1.7600,177.0861565,-15.83035779,1236.094762
1.7650,177.0267942,-15.48504192,1236.124045
1.7700,176.9694236,-15.14206816,1236.152993
1.7750,176.9155275,-14.80222788,1236.181218
1.7800,176.8663224,-14.46524821,1236.208549
1.7850,176.8228084,-14.13132251,1236.234786
1.7900,176.7848801,-13.80170431,1236.259759
1.7950,176.753302,-13.47602036,1236.283352
1.8000,176.72776,-13.15394074,1236.30568
1.8050,176.7088538,-12.83696759,1236.326403
1.8100,176.6971665,-12.52460158,1236.345462
1.8150,176.6923505,-12.21841582,1236.362672
1.8200,176.6941629,-11.91846097,1236.37806
1.8250,176.7010294,-11.62541311,1236.391734
1.8300,176.7115595,-11.33887621,1236.403979
1.8350,176.7265902,-11.05821731,1236.414716
1.8400,176.7445839,-10.78397792,1236.424104
1.8450,176.7649204,-10.51653706,1236.432193
1.8500,176.7850919,-10.25535272,1236.439461
1.8550,176.8041749,-10.00123414,1236.445913
1.8600,176.8201909,-9.753503421,1236.451992
1.8650,176.8307658,-9.511989249,1236.458093
1.8700,176.8349417,-9.27588172,1236.464485
1.8750,176.8303804,-9.044857436,1236.471612
1.8800,176.8175139,-8.817939388,1236.47956
1.8850,176.7950622,-8.593710108,1236.48878
1.8900,176.7626276,-8.373153159,1236.499157
1.8950,176.7187616,-8.15405352,1236.511273
1.9000,176.6615269,-7.938150558,1236.525185
1.9050,176.5897531,-7.722747985,1236.54154
1.9100,176.5046974,-7.50794328,1236.560114
1.9150,176.4051339,-7.293666256,1236.581178
1.9200,176.2919464,-7.078085519,1236.60489
1.9250,176.1668609,-6.862354437,1236.630836
1.9300,176.0287116,-6.64644266,1236.659204
1.9350,175.8785093,-6.42961136,1236.689944
1.9400,175.7163748,-6.211111892,1236.723207
1.9450,175.5427158,-5.991172118,1236.758925
1.9500,175.3591657,-5.769291432,1236.796924
1.9550,175.1678005,-5.544336384,1236.837062
1.9600,174.9674581,-5.315965441,1236.879593
1.9650,174.7592362,-5.083601469,1236.924419
1.9700,174.542825,-4.846661983,1236.97173
1.9750,174.3171801,-4.603224811,1237.022042
1.9800,174.0828873,-4.355260071,1237.074962
1.9850,173.83841,-4.10291914,1237.130781
1.9900,173.583512,-3.844470836,1237.189839
1.9950,173.3178242,-3.580595245,1237.252134
2.0000,173.0424483,-3.309612025,1237.317788
2.0050,172.7566714,-3.031022157,1237.387088
2.0100,172.4615611,-2.745222743,1237.459797
2.0150,172.1578939,-2.452731967,1237.535755
2.0200,171.8455243,-2.152190807,1237.615251
2.0250,171.5252819,-1.843746775,1237.698166
2.0300,171.198267,-1.527614433,1237.784325
2.0350,170.8652193,-1.202659947,1237.873835
2.0400,170.5260333,-0.8707817096,1237.966443
2.0450,170.1809981,-0.5329881217,1238.061947
2.0500,169.8285698,-0.1891127592,1238.160735
2.0550,169.469124,0.1591828726,1238.262482
2.0600,169.1038049,0.5116853264,1238.367
2.0650,168.7317582,0.8678850606,1238.474374
2.0700,168.3546726,1.226570477,1238.584104
2.0750,167.9724802,1.587901318,1238.696271
2.0800,167.5845879,1.952367221,1238.811133
2.0850,167.1906178,2.318681084,1238.928512
2.0900,166.7913376,2.68758474,1239.048408
2.0950,166.3872189,3.059577499,1239.170861
2.1000,165.9784228,3.433136695,1239.295566
2.1050,165.565475,3.808456596,1239.422463
2.1100,165.1468441,4.184030376,1239.551583
2.1150,164.7226347,4.560189938,1239.682996
2.1200,164.2928833,4.935994674,1239.816499
2.1250,163.8564553,5.309965303,1239.952073
2.1300,163.4130038,5.682890715,1240.090011
2.1350,162.9605963,6.052972354,1240.230408
2.1400,162.4993079,6.421745592,1240.373582
2.1450,162.0280106,6.789632783,1240.5199
2.1500,161.547591,7.156494237,1240.669193
2.1550,161.0579643,7.523566442,1240.821802
2.1600,160.558517,7.892488756,1240.978248
2.1650,160.0505174,8.26484121,1241.138687
2.1700,159.5348666,8.641155667,1241.303139
2.1750,159.01135,9.022632077,1241.471958
2.1800,158.4797074,9.409746869,1241.645389
2.1850,157.9400901,9.80275866,1241.823502
2.1900,157.3911146,10.2036537,1242.007094
2.1950,156.8338789,10.61285913,1242.196129
2.2000,156.269563,11.03216874,1242.390747
2.2050,155.6986991,11.46062607,1242.590713
2.2100,155.12049,11.89807499,1242.796246
2.2150,154.5355695,12.34521171,1243.007355
2.2200,153.9442595,12.79989566,1243.223554
2.2250,153.3459201,13.26180989,1243.444945
2.2300,152.742288,13.73121802,1243.671277
2.2350,152.1331138,14.20643318,1243.902266
2.2400,151.5198509,14.68473954,1244.137002
2.2450,150.9010728,15.16578315,1244.375769
2.2500,150.2770259,15.64908087,1244.618459
2.2550,149.6467496,16.13285247,1244.864997
2.2600,149.0097704,16.61548465,1245.115203
2.2650,148.365906,17.09712248,1245.369246
2.2700,147.7148642,17.57736353,1245.627153
2.2750,147.0584495,18.0564009,1245.888609
2.2800,146.3966955,18.53629571,1246.15411
2.2850,145.7310048,19.01927249,1246.423871
2.2900,145.0630979,19.50568875,1246.697617
2.2950,144.3934984,19.99694354,1246.97561
2.3000,143.7208718,20.49141765,1247.257835
2.3050,143.0462286,20.98980063,1247.544209
2.3100,142.3679873,21.49329654,1247.835473
2.3150,141.6863383,22.00121189,1248.131441
2.3200,141.0014169,22.51281855,1248.431952
2.3250,140.3142293,23.02643538,1248.736336
2.3300,139.6246973,23.54161454,1249.04453
2.3350,138.9316593,24.05530954,1249.356117
2.3400,138.2337889,24.56668374,1249.671251
2.3450,137.5287066,25.07434107,1249.990289
2.3500,136.8160889,25.57645603,1250.312841
2.3550,136.0947878,26.07264751,1250.639178
2.3600,135.3639586,26.56221799,1250.969364
2.3650,134.6238335,27.04362673,1251.302987
2.3700,133.87452,27.51705627,1251.640052
2.3750,133.1145053,27.98223094,1251.981029
2.3800,132.3457495,28.43865476,1252.325217
2.3850,131.5682917,28.88713607,1252.672906
2.3900,130.7829688,29.32721809,1253.023812
2.3950,129.9892039,29.75796125,1253.377871
2.4000,129.1868635,30.18076889,1253.735537
2.4050,128.3756683,30.59827939,1254.097671
2.4100,127.5580624,31.01124223,1254.463727
2.4150,126.7342973,31.42182576,1254.834251
2.4200,125.906554,31.83057025,1255.208716
2.4250,125.0752792,32.23843642,1255.587291
2.4300,124.2421513,32.64506969,1255.969259
2.4350,123.4095575,33.05037526,1256.3538
2.4400,122.5784058,33.45365693,1256.740387
2.4450,121.7492269,33.85396001,1257.128518
2.4500,120.9227821,34.25168637,1257.518031
2.4550,120.1007607,34.64620797,1257.9081
2.4600,119.2839196,35.03701726,1258.298268
2.4650,118.4733681,35.42166658,1258.687316
2.4700,117.6684917,35.80004357,1259.075382
2.4750,116.8703859,36.17237359,1259.46208
2.4800,116.0799394,36.5370042,1259.846512
2.4850,115.2965253,36.89483631,1260.229112
2.4900,114.5215854,37.24462346,1260.60892
2.4950,113.7541068,37.58650316,1260.98629
2.5000,112.99438,37.92008672,1261.360946
2.5050,112.2413203,38.24539813,1261.733218
2.5100,111.4952182,38.5633534,1262.103219
2.5150,110.7562334,38.87427951,1262.47098
2.5200,110.0243325,39.18005641,1262.837011
2.5250,109.3005141,39.4828518,1263.201548
2.5300,108.5844806,39.78223083,1263.564487
2.5350,107.8771349,40.07980734,1263.925938
2.5400,107.179096,40.37773225,1264.286286
2.5450,106.4904367,40.67578428,1264.645348
2.5500,105.8106981,40.97292418,1265.002926
2.5550,105.1384763,41.26868561,1265.359345
2.5600,104.4738696,41.56396261,1265.714773
2.5650,103.8163218,41.85891413,1266.069426
2.5700,103.1664168,42.15248472,1266.422661
2.5750,102.5212882,42.44328116,1266.77512
2.5800,101.8806179,42.72982833,1267.126431
2.5850,101.2445791,43.01172443,1267.47637
2.5900,100.6118537,43.28834725,1267.825217
2.5950,99.98256051,43.56051558,1268.173167
2.6000,99.35712492,43.828824,1268.5202
2.6050,98.7363377,44.09332511,1268.865984
2.6100,98.12075346,44.3529519,1269.209877
2.6150,97.50935948,44.60920871,1269.552789
2.6200,96.90144895,44.86161098,1269.894844
2.6250,96.29557493,45.11038703,1270.236698
2.6300,95.68946742,45.35557588,1270.579344
2.6350,95.08333001,45.59866735,1270.923193
2.6400,94.47840998,45.83984522,1271.267741
2.6450,93.87590825,46.08002499,1271.612727
2.6500,93.27669234,46.31960181,1271.957877
2.6550,92.68197734,46.56012772,1272.30315
2.6600,92.09259481,46.80117117,1272.647996
2.6650,91.50903565,47.04328704,1272.992315
2.6700,90.93086945,47.28496344,1273.33577
2.6750,90.35887394,47.52598885,1273.677837
2.6800,89.791333,47.76357552,1274.018301
2.6850,89.22730282,47.99757811,1274.357527
2.6900,88.66715542,48.22751115,1274.695081
2.6950,88.10941255,48.45295126,1275.031497
2.7000,87.55506022,48.67340936,1275.366119
2.7050,87.00397282,48.88746116,1275.698484
2.7100,86.455454,49.09553404,1276.029092
2.7150,85.90915018,49.29622889,1276.357572
2.7200,85.36283237,49.48957123,1276.684999
2.7250,84.81782579,49.67657803,1277.011088
2.7300,84.27390573,49.85732825,1277.335972
2.7350,83.73057484,50.03220045,1277.660027
2.7400,83.18718854,50.20169303,1277.983775
2.7450,82.64443075,50.36538177,1278.306697
2.7500,82.10167652,50.52421746,1278.629448
2.7550,81.55833848,50.67886121,1278.952532
2.7600,81.01524948,50.82783998,1279.274985
2.7650,80.47057566,50.97217648,1279.598146
2.7700,79.92455474,51.11155585,1279.921718
2.7750,79.37676113,51.24598822,1280.245941
2.7800,78.82625235,51.37677466,1280.571766
2.7850,78.27358287,51.50274352,1280.898492
2.7900,77.71855902,51.62583336,1281.226965
2.7950,77.16140358,51.74661748,1281.557255
2.8000,76.60186138,51.86578633,1281.88982
2.8050,76.04140232,51.98469382,1282.224388
2.8100,75.48076058,52.10365341,1282.560701
2.8150,74.91866489,52.22222504,1282.89926
2.8200,74.35713827,52.34111785,1283.239291
2.8250,73.79585167,52.460074,1283.580866
2.8300,73.23444695,52.58067754,1283.924743
2.8350,72.67384993,52.70166011,1284.269944
2.8400,72.11257173,52.82204209,1284.616861
2.8450,71.55147053,52.94195252,1284.965124
2.8500,70.98939315,53.06190054,1285.315516
2.8550,70.42748796,53.18204938,1285.667512
2.8600,69.86712949,53.30335582,1286.020752
2.8650,69.30783883,53.42470706,1286.375072
2.8700,68.74976865,53.54678376,1286.730641
2.8750,68.19407195,53.66946246,1287.086751
2.8800,67.64133688,53.79355116,1287.443377
2.8850,67.09138728,53.91839276,1287.800337
2.8900,66.54403242,54.04398999,1288.157728
2.8950,65.99865275,54.16899981,1288.515346
2.9000,65.45613729,54.29400628,1288.872928
2.9050,64.91546777,54.4175516,1289.23045
2.9100,64.37707512,54.53982169,1289.587763
2.9150,63.8411332,54.66005094,1289.944414
2.9200,63.30744606,54.77953557,1290.300996
2.9250,62.7753396,54.89870521,1290.658094
2.9300,62.24649301,55.01874206,1291.015189
2.9350,61.72141059,55.13949693,1291.371917
2.9400,61.20081558,55.2629398,1291.728623
2.9450,60.68538991,55.38904087,1292.08489
2.9500,60.17640681,55.51877171,1292.440329
2.9550,59.67372759,55.65230096,1292.79507
2.9600,59.17694523,55.78930006,1293.149178
2.9650,58.68658035,55.92925492,1293.502119
2.9700,58.2025204,56.07319368,1293.854339
2.9750,57.72479161,56.21989948,1294.20529
2.9800,57.25372904,56.36983383,1294.554918
2.9850,56.7905216,56.52288084,1294.902382
2.9900,56.3339907,56.67790772,1295.247941
2.9950,55.88518989,56.83528797,1295.591031
3.0000,55.44367461,56.99417956,1295.931567
3.0050,55.00839878,57.15407912,1296.269984
3.0100,54.57997822,57.31443449,1296.605611
3.0150,54.15847749,57.47469921,1296.938156
3.0200,53.74428565,57.63618952,1297.267888
3.0250,53.33775797,57.79824896,1297.594265
3.0300,52.9383271,57.96008658,1297.917263
3.0350,52.54529288,58.12198287,1298.237405
3.0400,52.15971367,58.28366576,1298.553814
3.0450,51.78127386,58.44545294,1298.866792
3.0500,51.40975628,58.60676236,1299.176164
3.0550,51.04447291,58.7658764,1299.481632
3.0600,50.68455464,58.92390842,1299.784165
3.0650,50.33124669,59.08059661,1300.082788
3.0700,49.9836883,59.23644127,1300.378276
3.0750,49.64183572,59.3909268,1300.670363
3.0800,49.30648614,59.54497357,1300.958923
3.0850,48.97795962,59.69890391,1301.243814
3.0900,48.65625839,59.85151662,1301.524483
3.0950,48.34287127,60.00428991,1301.800568
3.1000,48.03752607,60.15602443,1302.071617
3.1050,47.74067752,60.30691791,1302.337373
3.1100,47.45095773,60.45559946,1302.598113
3.1150,47.16976424,60.60194022,1302.852772
3.1200,46.89510212,60.74556989,1303.102454
3.1250,46.62736117,60.88537896,1303.346401
3.1300,46.36640828,61.0214938,1303.584762
3.1350,46.11050866,61.1530829,1303.818269
3.1400,45.86089921,61.28144695,1304.046668
3.1450,45.61712563,61.40719706,1304.270481
3.1500,45.3797724,61.5300825,1304.489165
3.1550,45.14969788,61.65058292,1304.702333
3.1600,44.92553147,61.76835112,1304.9107
3.1650,44.70874817,61.88327331,1305.1132
3.1700,44.49907088,61.99654497,1305.310485
3.1750,44.29704971,62.10775366,1305.501996
3.1800,44.10197346,62.21628748,1305.68789
3.1850,43.91183885,62.32210262,1305.869486
3.1900,43.72751676,62.42515265,1306.046124
3.1950,43.549744,62.5247438,1306.216945
3.2000,43.37832463,62.62062613,1306.381929
3.2050,43.21294607,62.7128922,1306.541308
3.2100,43.0537175,62.80089829,1306.69468
3.2150,42.89964287,62.88336366,1306.842181
3.2200,42.750184,62.95911791,1306.983618
3.2250,42.60610991,63.02818286,1307.118435
3.2300,42.46631913,63.09066002,1307.247411
3.2350,42.33078482,63.14673638,1307.370622
3.2400,42.19860363,63.1948393,1307.487992
3.2450,42.06865933,63.23535133,1307.600443
3.2500,41.94042747,63.26762877,1307.708062
3.2550,41.81332724,63.29147948,1307.81112
3.2600,41.68785418,63.30813884,1307.909867
3.2650,41.5635036,63.31887422,1308.005228
3.2700,41.44037864,63.3228877,1308.096738
3.2750,41.31882169,63.32188472,1308.184952
3.2800,41.19860201,63.31671963,1308.27044
3.2850,41.07962611,63.30702137,1308.353119
3.2900,40.96253308,63.29470225,1308.433403
3.2950,40.84663735,63.27986676,1308.511844
3.3000,40.73174762,63.26330958,1308.588918
3.3050,40.61864199,63.24517769,1308.66413
3.3100,40.50659488,63.22602772,1308.738268
3.3150,40.39550578,63.20687273,1308.811855
3.3200,40.28584657,63.18721404,1308.884354
3.3250,40.17674221,63.16673904,1308.956266
3.3300,40.06882037,63.14727876,1309.027933
3.3350,39.96150896,63.12826957,1309.09951
3.3400,39.85376482,63.10968947,1309.171765
3.3450,39.74452351,63.09052696,1309.244985
3.3500,39.63407082,63.0707246,1309.318974
3.3550,39.521265,63.0515438,1309.395065
3.3600,39.40574834,63.03208835,1309.473094
3.3650,39.28604939,63.01290026,1309.554357
3.3700,39.16183574,62.99306639,1309.638649
3.3750,39.03267196,62.97317586,1309.726542
3.3800,38.89703584,62.95188854,1309.818533
3.3850,38.7557028,62.92983202,1309.914366
3.3900,38.60850054,62.90738633,1310.01431
3.3950,38.45367603,62.88351209,1310.119161
3.4000,38.29183821,62.85942671,1310.229061
3.4050,38.12306943,62.83400303,1310.343461
3.4100,37.94690098,62.80925944,1310.463583
3.4150,37.76423159,62.78554604,1310.588951
3.4200,37.57450547,62.76269735,1310.719911
3.4250,37.37714674,62.74034492,1310.856729
3.4300,37.17123832,62.71718196,1310.999496
3.4350,36.95757788,62.69617635,1311.149029
3.4400,36.73381609,62.67592793,1311.306436
3.4450,36.4998079,62.6574091,1311.472283
3.4500,36.25539977,62.64136624,1311.647097
3.4550,35.99885124,62.62830046,1311.832384
3.4600,35.72925919,62.61920755,1312.029314
3.4650,35.44576816,62.6136899,1312.238413
3.4700,35.14720338,62.61125356,1312.460378
3.4750,34.83172584,62.61218014,1312.696758
3.4800,34.49899208,62.61713125,1312.948184
3.4850,34.14965381,62.62522072,1313.213925
3.4900,33.78242431,62.6367713,1313.495176
3.4950,33.39652159,62.65188923,1313.792676
3.5000,32.99079949,62.66891063,1314.106645
3.5050,32.56632215,62.68871853,1314.436849
3.5100,32.12222813,62.71083346,1314.783881
3.5150,31.66075354,62.7355466,1315.146331
3.5200,31.18317864,62.76298887,1315.523448
3.5250,30.68993909,62.7912483,1315.914198
3.5300,30.18250369,62.82009188,1316.317534
3.5350,29.6617172,62.84898918,1316.732679
3.5400,29.12890993,62.87799161,1317.158777
3.5450,28.58682633,62.90763923,1317.594077
3.5500,28.03673347,62.9370421,1318.037289
3.5550,27.48070863,62.96603732,1318.486825
3.5600,26.9205617,62.99399577,1318.940998
3.5650,26.35822303,63.01944312,1319.397645
3.5700,25.79458415,63.04262288,1319.856237
3.5750,25.23082994,63.0620671,1320.315163
3.5800,24.66817676,63.07798587,1320.773557
3.5850,24.10673,63.09036258,1321.231322
3.5900,23.5470805,63.09771588,1321.687288
3.5950,22.99061732,63.10103457,1322.140805
3.6000,22.43717894,63.09876952,1322.591261
3.6050,21.88753847,63.09102412,1323.038034
3.6100,21.34223538,63.07747304,1323.480506
3.6150,20.8010295,63.05726229,1323.918415
3.6200,20.26359256,63.02949786,1324.351548
3.6250,19.73080555,62.99418194,1324.779093
3.6300,19.20138621,62.94868753,1325.200892
3.6350,18.67713784,62.89412445,1325.615873
3.6400,18.15780667,62.8294789,1326.023684
3.6450,17.64474414,62.75553724,1326.423474
3.6500,17.13663116,62.67054457,1326.815429
3.6550,16.63482467,62.57445509,1327.198393
3.6600,16.13946529,62.46837414,1327.572735
3.6650,15.6521163,62.35153729,1327.936645
3.6700,15.17316004,62.22531944,1328.290378
3.6750,14.70342837,62.0883659,1328.632524
3.6800,14.24369985,61.9430065,1328.963426
3.6850,13.79367419,61.78781143,1329.282563
3.6900,13.3543915,61.62307745,1329.589074
3.6950,12.9254276,61.44820772,1329.882947
3.7000,12.50730359,61.26368976,1330.163876
3.7050,12.09947671,61.07034432,1330.432625
3.7100,11.70334893,60.86725712,1330.687513
3.7150,11.31623898,60.6539688,1330.930603
3.7200,10.93940801,60.43240974,1331.161667
3.7250,10.57221596,60.20464866,1331.382209
3.7300,10.21582504,59.97267607,1331.592093
3.7350,9.86964495,59.73683119,1331.79196
3.7400,9.53472982,59.50022605,1331.982256
3.7450,9.210640373,59.26440691,1332.164113
3.7500,8.897445358,59.03090639,1332.338112
3.7550,8.595968571,58.80116501,1332.504131
3.7600,8.306095696,58.57474753,1332.662046
3.7650,8.027955229,58.35515481,1332.813272
3.7700,7.761886378,58.14298129,1332.957749
3.7750,7.508236755,57.93955846,1333.095637
3.7800,7.266641637,57.74523567,1333.227411
3.7850,7.037798185,57.56178918,1333.353136
3.7900,6.821873878,57.39003262,1333.472975
3.7950,6.619016276,57.23075855,1333.587131
3.8000,6.429829079,57.08556338,1333.695723
3.8050,6.254765349,56.95460181,1333.798314
3.8100,6.094160591,56.83802574,1333.894592
3.8150,5.948778783,56.73724018,1333.984443
3.8200,5.817537943,56.65202194,1334.068734
3.8250,5.700785227,56.58267189,1334.147176
3.8300,5.598861185,56.52736115,1334.218541
3.8350,5.51177441,56.48574058,1334.282649
3.8400,5.439968457,56.45620101,1334.338259
3.8450,5.383129775,56.43737275,1334.384993
3.8500,5.340532359,56.42857264,1334.423118
3.8550,5.311581805,56.42883216,1334.452715
3.8600,5.296015178,56.43682605,1334.473423
3.8650,5.29278915,56.45257521,1334.486177
3.8700,5.3021843,56.47563954,1334.490492
3.8750,5.324144243,56.50617955,1334.486533
3.8800,5.358827583,56.54410016,1334.474077
3.8850,5.406354997,56.58947357,1334.453055
3.8900,5.466658953,56.64203543,1334.423439
3.8950,5.538943894,56.70135913,1334.385791
3.9000,5.624391946,56.76763145,1334.339104
3.9050,5.721979916,56.83992747,1334.283923
3.9100,5.830798722,56.91779025,1334.220899
3.9150,5.950198302,56.99942449,1334.14987
3.9200,6.080309191,57.0849621,1334.070786
3.9250,6.220027812,57.17347084,1333.984275
3.9300,6.369904151,57.26509497,1333.889888
3.9350,6.528052126,57.35890642,1333.788981
3.9400,6.693346176,57.45359461,1333.682005
3.9450,6.864844816,57.54917297,1333.569887
3.9500,7.043343372,57.64629882,1333.452266
3.9550,7.227834235,57.74346285,1333.329342
3.9600,7.41659511,57.83896623,1333.201911
3.9650,7.608833791,57.93337562,1333.07099
3.9700,7.804706098,58.0253561,1332.935829
3.9750,8.002768378,58.11524474,1332.797903
3.9800,8.202591267,58.2000389,1332.656153
3.9850,8.402690678,58.27972477,1332.511927
3.9900,8.602638801,58.35428921,1332.365609
3.9950,8.802420871,58.4231103,1332.216903
4.0000,9.000559546,58.48514354,1332.066631
4.0050,9.196944391,58.54016528,1331.914798
4.0100,9.391195885,58.58939835,1331.762281
4.0150,9.583367109,58.6338078,1331.609511
4.0200,9.773455153,58.6726572,1331.456137
4.0250,9.961451923,58.7053926,1331.301913
4.0300,10.14657659,58.73289173,1331.147958
4.0350,10.32893001,58.75550741,1330.994344
4.0400,10.50799579,58.771904,1330.840906
4.0450,10.68454165,58.7827071,1330.687226
4.0500,10.85818025,58.78717774,1330.533328
4.0550,11.0285115,58.78576345,1330.379764
4.0600,11.19607023,58.78004799,1330.226777
4.0650,11.35999599,58.7682585,1330.074276
4.0700,11.52061843,58.75105123,1329.922275
4.0750,11.67802344,58.72803089,1329.770567
4.0800,11.83242158,58.69934843,1329.618983
4.0850,11.98310213,58.66605959,1329.468642
4.0900,12.13042604,58.62789395,1329.319131
4.0950,12.27456409,58.5852435,1329.170445
4.1000,12.41550709,58.53834669,1329.022702
4.1050,12.5528689,58.48663713,1328.875994
4.1100,12.68717647,58.43205483,1328.730772
4.1150,12.81782468,58.37372223,1328.587185
4.1200,12.94521153,58.31128135,1328.444652
4.1250,13.06933064,58.24517532,1328.303427
4.1300,13.18964991,58.17568016,1328.164073
4.1350,13.3069006,58.10390893,1328.026462
4.1400,13.42102826,58.03019074,1327.890824
4.1450,13.53134502,57.95532896,1327.758102
4.1500,13.63895619,57.87993501,1327.627642
4.1550,13.74346324,57.80464179,1327.500107
4.1600,13.8442248,57.73099248,1327.376711
4.1650,13.94187495,57.65827062,1327.256566
4.1700,14.03675308,57.58796544,1327.1401
4.1750,14.12816984,57.519415,1327.027577
4.1800,14.21648191,57.45283257,1326.918802
4.1850,14.30159597,57.38801669,1326.813765
4.1900,14.38395477,57.32652893,1326.712754
4.1950,14.46303656,57.26653409,1326.615359
4.2000,14.53913923,57.20891728,1326.521723
4.2050,14.61231039,57.15369309,1326.431793
4.2100,14.6827584,57.09990277,1326.344957
4.2150,14.75116764,57.04805121,1326.26078
4.2200,14.81770573,56.9977671,1326.178991
4.2250,14.88261609,56.94971681,1326.099656
4.2300,14.9459068,56.90356011,1326.022651
4.2350,15.00728681,56.85834194,1325.947756
4.2400,15.06780844,56.81512905,1325.874569
4.2450,15.12789136,56.77338973,1325.80252
4.2500,15.187234,56.73263868,1325.731624
4.2550,15.24616926,56.69291271,1325.661623
4.2600,15.30713037,56.65488685,1325.590714
4.2650,15.36892847,56.61686583,1325.519184
4.2700,15.43143114,56.5789815,1325.447203
4.2750,15.4957621,56.54160329,1325.37397
4.2800,15.56195223,56.50476842,1325.299496
4.2850,15.63121728,56.46885604,1325.222937
4.2900,15.7038297,56.43411578,1325.144133
4.2950,15.78121932,56.4004242,1325.061823
4.3000,15.8640989,56.36772722,1324.975416
4.3050,15.95361991,56.33636117,1324.884088
4.3100,16.05004138,56.30634796,1324.787603
4.3150,16.15452796,56.2761339,1324.684277
4.3200,16.26724525,56.24650314,1324.574312
4.3250,16.38899628,56.21760477,1324.457118
4.3300,16.52080578,56.18860763,1324.331461
4.3350,16.66338199,56.16002374,1324.197011
4.3400,16.817701,56.13090864,1324.052549
4.3450,16.98507726,56.10082199,1323.896791
4.3500,17.16582944,56.07002517,1323.729623
4.3550,17.36104492,56.03758463,1323.549826
4.3600,17.57070623,56.0027006,1323.357082
4.3650,17.7955649,55.96515768,1323.150729
4.3700,18.03554433,55.92496465,1322.930899
4.3750,18.29098766,55.88146724,1322.69707
4.3800,18.56222628,55.83476396,1322.449055
4.3850,18.8484614,55.78348791,1322.186995
4.3900,19.15041192,55.72726356,1321.910203
4.3950,19.46722249,55.66595881,1321.619413
4.4000,19.79983014,55.60034493,1321.314332
4.4050,20.14727056,55.5303502,1320.995811
4.4100,20.50968063,55.45543269,1320.663607
4.4150,20.88800663,55.37566617,1320.317061
4.4200,21.28242808,55.2921597,1319.956724
4.4250,21.69300793,55.20406978,1319.582296
4.4300,22.11986056,55.11221939,1319.194213
4.4350,22.5626096,55.01503743,1318.792218
4.4400,23.02044074,54.91337335,1318.377465
4.4450,23.49365902,54.8063529,1317.949438
4.4500,23.98100926,54.69423816,1317.509412
4.4550,24.48167148,54.57614368,1317.057755
4.4600,24.99614042,54.45202319,1316.59422
4.4650,25.52369317,54.32251961,1316.119821
4.4700,26.06415289,54.18623577,1315.634199
4.4750,26.61741751,54.04417286,1315.137998
4.4800,27.18300756,53.89581879,1314.631498
4.4850,27.76054074,53.7411024,1314.115137
4.4900,28.3484216,53.57845724,1313.589625
4.4950,28.94728589,53.40861047,1313.054941
4.5000,29.55463394,53.23059045,1312.512718
4.5050,30.17018531,53.04460531,1311.963374
4.5100,30.79327881,52.85098533,1311.407636
4.5150,31.42280654,52.6500144,1310.846561
4.5200,32.05691593,52.44141056,1310.281511
4.5250,32.69384504,52.22498835,1309.713768
4.5300,33.33354661,52.00185643,1309.143912
4.5350,33.97554218,51.7732673,1308.572912
4.5400,34.62058001,51.54022141,1308.000727
4.5450,35.26706783,51.30423932,1307.429188
4.5500,35.91582586,51.06671796,1306.858347
4.5550,36.56657532,50.82944282,1306.2892
4.5600,37.21876609,50.59419415,1305.72295
4.5650,37.87468583,50.3628666,1305.158755
4.5700,38.53446151,50.13564508,1304.596676
4.5750,39.19714679,49.91354781,1304.037806
4.5800,39.86363226,49.69728274,1303.481811
4.5850,40.53397733,49.48695737,1302.928704
4.5900,41.2084377,49.28276896,1302.378408
4.5950,41.88635856,49.08506137,1301.831499
4.6000,42.56824208,48.89409295,1301.287693
4.6050,43.25276293,48.70869906,1300.747441
4.6100,43.9403638,48.52803637,1300.210088
4.6150,44.63141939,48.35305189,1299.675759
4.6200,45.3261648,48.18371183,1299.14428
4.6250,46.02468508,48.01842708,1298.614955
4.6300,46.72654508,47.85639769,1298.087769
4.6350,47.43213127,47.69640312,1297.562015
4.6400,48.14118269,47.53842703,1297.037891
4.6450,48.85376053,47.38080916,1296.514723
4.6500,49.56972318,47.22333854,1295.992541
4.6550,50.2881369,47.06475677,1295.471426
4.6600,51.00914788,46.90443619,1294.951091
4.6650,51.73287982,46.74228012,1294.431409
4.6700,52.45916157,46.57735785,1293.912153
4.6750,53.18853676,46.41052959,1293.393324
4.6800,53.92046473,46.24247417,1292.875602
4.6850,54.658125,46.07376996,1292.35723
4.6900,55.40120126,45.90590051,1291.839005
4.6950,56.15021301,45.74010666,1291.321157
4.7000,56.90499008,45.57521355,1290.803378
4.7050,57.66766825,45.41225838,1290.284836
4.7100,58.43827587,45.25105892,1289.765501
4.7150,59.21654584,45.09108634,1289.245434
4.7200,60.0025033,44.93108456,1288.724173
4.7250,60.79628508,44.77165536,1288.201901
4.7300,61.59687763,44.61014012,1287.678299
4.7350,62.40407079,44.44723084,1287.153754
4.7400,63.21646175,44.28096531,1286.628385
4.7450,64.03392744,44.11079622,1286.102113
4.7500,64.85639348,43.93571563,1285.574616
4.7550,65.68448363,43.75414574,1285.045033
4.7600,66.51635893,43.56503475,1284.514088
4.7650,67.35102324,43.36700126,1283.981916
4.7700,68.18740235,43.16051916,1283.449316
4.7750,69.0257638,42.94493364,1282.915974
4.7800,69.86465108,42.71936805,1282.382432
4.7850,70.70374123,42.48297157,1281.848609
4.7900,71.54362043,42.23659254,1281.314522
4.7950,72.38204089,41.97845382,1280.780766
4.8000,73.21892978,41.70888112,1280.247466
4.8050,74.05223357,41.42634119,1279.715204
4.8100,74.88084461,41.13189984,1279.184833
4.8150,75.70339751,40.82543534,1278.657044
4.8200,76.51950706,40.50739779,1278.132106
4.8250,77.3294985,40.17836525,1277.610064
4.8300,78.13154823,39.83976486,1277.092278
4.8350,78.92723417,39.4928629,1276.57832
4.8400,79.71370247,39.13816364,1276.069727
4.8450,80.49211123,38.77678453,1275.56624
4.8500,81.2626521,38.40891346,1275.067807
4.8550,82.02586727,38.0358581,1274.574547
4.8600,82.78239317,37.65817598,1274.086246
4.8650,83.53008139,37.27565565,1273.603808
4.8700,84.2697261,36.89085966,1273.12757
4.8750,85.00212862,36.50290196,1272.656794
4.8800,85.72738391,36.11375443,1272.191961
4.8850,86.44542283,35.72457125,1271.733341
4.8900,87.15632448,35.33643519,1271.281149
4.8950,87.86120639,34.95043337,1270.835092
4.9000,88.56055702,34.56776121,1270.395263
4.9050,89.25636451,34.18934856,1269.960924
4.9100,89.94791624,33.81543292,1269.532461
4.9150,90.63638578,33.44748342,1269.109714
4.9200,91.32280368,33.08371872,1268.691657
4.9250,92.0075314,32.72598752,1268.278634
4.9300,92.69118835,32.37365877,1267.870149
4.9350,93.37313039,32.02737569,1267.466624
4.9400,94.05358683,31.68532069,1267.067376
4.9450,94.73131396,31.34728513,1266.672813
4.9500,95.40578666,31.01295307,1266.283026
4.9550,96.07763297,30.68153031,1265.897458
4.9600,96.74711372,30.35183421,1265.515566
4.9650,97.41270633,30.02326695,1265.137815
4.9700,98.07580167,29.69552599,1264.763527
4.9750,98.73663914,29.3691701,1264.39273
4.9800,99.39627502,29.04287618,1264.024585
4.9850,100.0545489,28.71597592,1263.659007
4.9900,100.7117922,28.38793746,1263.295744
4.9950,101.3693014,28.05647581,1262.93366
5.0000,102.0277156,27.72260324,1262.572816
5.0050,102.6866654,27.38526816,1262.213098
5.0100,103.3456208,27.04392737,1261.854571
5.0150,104.0032089,26.6978118,1261.497537
5.0200,104.6608052,26.34781072,1261.141705
5.0250,105.3182588,25.9925534,1260.786746
5.0300,105.9765178,25.63438561,1260.432917
5.0350,106.6362218,25.27276284,1260.079854
5.0400,107.298796,24.90804871,1259.727178
5.0450,107.9641297,24.54083506,1259.375128
5.0500,108.6315111,24.17043263,1259.023886
5.0550,109.3015866,23.79765733,1258.673481
5.0600,109.9754684,23.42267474,1258.323618
5.0650,110.6542071,23.04585124,1257.974061
5.0700,111.337996,22.66709922,1257.624751
5.0750,112.026115,22.28513906,1257.275664
5.0800,112.7183606,21.90060133,1256.92706
5.0850,113.4124446,21.51307095,1256.579671
5.0900,114.1075756,21.12162774,1256.23351
5.0950,114.8034205,20.72688065,1255.888857
5.1000,115.5006109,20.32926962,1255.545581
5.1050,116.1990946,19.92974838,1255.203966
5.1100,116.899213,19.52914491,1254.864142
5.1150,117.6003102,19.12734874,1254.526294
5.1200,118.302659,18.72556982,1254.19067
5.1250,119.0065374,18.324223,1253.857273
5.1300,119.7132014,17.92336385,1253.525722
5.1350,120.4219213,17.5229357,1253.196298
5.1400,121.133015,17.12335231,1252.869014
5.1450,121.8470044,16.72451146,1252.543683
5.1500,122.5614415,16.32726944,1252.22126
5.1550,123.2750629,15.93051133,1251.901881
5.1600,123.9872969,15.53491195,1251.585848
5.1650,124.6973534,15.14135996,1251.273597
5.1700,125.4059165,14.74832334,1250.964468
5.1750,126.1126556,14.35878354,1250.659224
5.1800,126.8172145,13.97202781,1250.357763
5.1850,127.5206616,13.58841139,1250.059824
5.1900,128.2232953,13.20725642,1249.765174
5.1950,128.9264064,12.829472,1249.473615
5.2000,129.62983,12.45404888,1249.184979
5.2050,130.3345465,12.08218983,1248.899244
5.2100,131.0429921,11.71442832,1248.615778
5.2150,131.7546555,11.35036908,1248.334648
5.2200,132.4684796,10.9891376,1248.055966
5.2250,133.1839013,10.6290213,1247.779533
5.2300,133.8998964,10.27012331,1247.505632
5.2350,134.6171306,9.911975543,1247.233922
5.2400,135.3350151,9.555106904,1246.96461
5.2450,136.0534094,9.199501088,1246.697744
5.2500,136.7711675,8.844563841,1246.433481
5.2550,137.4880563,8.490269763,1246.171856
5.2600,138.2035074,8.136082042,1245.9129
5.2650,138.9190651,7.781555584,1245.656095
5.2700,139.6333962,7.426394099,1245.401734
5.2750,140.3457427,7.068557753,1245.149609
5.2800,141.0554275,6.70675129,1244.899664
5.2850,141.7611414,6.338925223,1244.651884
5.2900,142.4619209,5.96424468,1244.406345
5.2950,143.1567006,5.582833745,1244.163358
5.3000,143.8443269,5.193545304,1243.92299
5.3050,144.5232281,4.796116863,1243.68559
5.3100,145.1931107,4.390422502,1243.451204
5.3150,145.854702,3.977531694,1243.21987
5.3200,146.5073398,3.556814691,1242.991628
5.3250,147.1510494,3.129220434,1242.766653
5.3300,147.7856341,2.695153581,1242.545081
5.3350,148.4107064,2.254089507,1242.326882
5.3400,149.0265552,1.806301881,1242.111988
5.3450,149.632671,1.350729525,1241.900294
5.3500,150.2296612,0.8882717281,1241.69179
5.3550,150.8149644,0.4176555286,1241.486828
5.3600,151.388016,-0.06082377646,1241.285525
5.3650,151.9473439,-0.5464024175,1241.088308
5.3700,152.4919115,-1.040298472,1240.895151
5.3750,153.0206341,-1.541125319,1240.706516
5.3800,153.5329602,-2.049923377,1240.522285
5.3850,154.0294044,-2.565780946,1240.34245
5.3900,154.5088808,-3.088916185,1240.167212
5.3950,154.971823,-3.619134493,1239.996467
5.4000,155.4163388,-4.156366611,1239.830656
5.4050,155.8431723,-4.701983656,1239.669318
5.4100,156.2502429,-5.257011518,1239.512734
5.4150,156.6386288,-5.821190493,1239.360702
5.4200,157.0084645,-6.394806242,1239.21312
5.4250,157.3602263,-6.97784989,1239.069879
5.4300,157.6938934,-7.569257365,1238.931108
5.4350,158.0103382,-8.168743853,1238.796598
5.4400,158.3109133,-8.775641545,1238.666127
5.4450,158.5960706,-9.388672353,1238.539716
5.4500,158.8683709,-10.00708251,1238.416919
5.4550,159.129831,-10.62786332,1238.297689
5.4600,159.3805132,-11.24988142,1238.182147
5.4650,159.6225627,-11.8709641,1238.070106
5.4700,159.8574189,-12.48762246,1237.961706
5.4750,160.0872464,-13.10075831,1237.856266
5.4800,160.3134189,-13.70803673,1237.753749
5.4850,160.5363787,-14.30872775,1237.654078
5.4900,160.7568476,-14.90176457,1237.557141
5.4950,160.9739187,-15.4872076,1237.463045
5.5000,161.1875966,-16.06415011,1237.371809
5.5050,161.3966797,-16.63228979,1237.283651
5.5100,161.5998288,-17.19228954,1237.198661
5.5150,161.7973894,-17.74435459,1237.116666
5.5200,161.9869666,-18.28686162,1237.038322
5.5250,162.1686645,-18.81903041,1236.963652
5.5300,162.3425937,-19.33974769,1236.89272
5.5350,162.5079312,-19.85045183,1236.825464
5.5400,162.6643364,-20.34952183,1236.762164
5.5450,162.8110366,-20.83649551,1236.702964
5.5500,162.9514958,-21.31164408,1236.647106
5.5550,163.0842175,-21.77413283,1236.59496
5.5600,163.2088517,-22.22342299,1236.54664
5.5650,163.3249268,-22.66017353,1236.502125
5.5700,163.4327862,-23.08429712,1236.461299
5.5750,163.5319493,-23.49591849,1236.424214
5.5800,163.6229976,-23.89453953,1236.390709
5.5850,163.7057286,-24.27875194,1236.360912
5.5900,163.7801895,-24.64900657,1236.334677
5.5950,163.8471442,-25.00474803,1236.311858
5.6000,163.9078039,-25.34594373,1236.292144
5.6050,163.9623915,-25.67210946,1236.275495
5.6100,164.0121895,-25.98326886,1236.261633
5.6150,164.0581218,-26.27901994,1236.250384
5.6200,164.1009208,-26.56007648,1236.241489
5.6250,164.1394512,-26.82641947,1236.235161
5.6300,164.1743439,-27.07983333,1236.231059
5.6350,164.2047524,-27.32078269,1236.229271
5.6400,164.2303608,-27.5501174,1236.229758
5.6450,164.2512113,-27.76856722,1236.232445
5.6500,164.2682486,-27.97724276,1236.23701
5.6550,164.2813386,-28.17525351,1236.24355
5.6600,164.2900721,-28.36463682,1236.251928
5.6650,164.2938536,-28.5453434,1236.262262
5.6700,164.2938118,-28.71718825,1236.274345
5.6750,164.2897501,-28.88020273,1236.28817
5.6800,164.2820341,-29.03382896,1236.303713
5.6850,164.2707305,-29.17923667,1236.320846
5.6900,164.256302,-29.3152276,1236.339564
5.6950,164.2397414,-29.44364807,1236.359472
5.7000,164.2210174,-29.56622539,1236.380361
5.7050,164.1998303,-29.68231268,1236.40235
5.7100,164.1771972,-29.79317937,1236.425084
5.7150,164.1532723,-29.8997658,1236.44841
5.7200,164.127704,-30.00393468,1236.472175
5.7250,164.1004728,-30.10554245,1236.496393
5.7300,164.0711091,-30.20679315,1236.52091
5.7350,164.0398503,-30.30769864,1236.545688
5.7400,164.0087377,-30.40846181,1236.570297
5.7450,163.9774854,-30.50935932,1236.594767
5.7500,163.9468475,-30.61007189,1236.619003
5.7550,163.9172603,-30.71168432,1236.642806
5.7600,163.8916897,-30.81461339,1236.665527
5.7650,163.8719992,-30.92039042,1236.686625
5.7700,163.8578033,-31.02955905,1236.706127
5.7750,163.8508343,-31.14159694,1236.723742
5.7800,163.8518101,-31.25641694,1236.739361
5.7850,163.862523,-31.37392164,1236.752616
5.7900,163.8819237,-31.49353279,1236.763799
5.7950,163.9118068,-31.61440707,1236.772622
5.8000,163.9525129,-31.73618036,1236.779051
5.8050,164.0048774,-31.85831891,1236.782984
5.8100,164.0684705,-31.97989906,1236.784584
5.8150,164.1438886,-32.10089237,1236.783737
5.8200,164.2327382,-32.22065286,1236.780168
5.8250,164.3344236,-32.33869266,1236.774025
5.8300,164.4487271,-32.45495983,1236.76537
5.8350,164.5751636,-32.56955733,1236.754259
5.8400,164.7132536,-32.6831026,1236.740736
5.8450,164.8622299,-32.79574085,1236.72495
5.8500,165.0190989,-32.90835825,1236.70739
5.8550,165.184176,-33.02069456,1236.68802
5.8600,165.3568501,-33.13267478,1236.66697
5.8650,165.5362201,-33.24365538,1236.64447
5.8700,165.7208876,-33.35360784,1236.620795
5.8750,165.9105864,-33.46089181,1236.596164
5.8800,166.1036438,-33.56499101,1236.570979
5.8850,166.2999418,-33.66475854,1236.545358
5.8900,166.4984827,-33.76018283,1236.519511
5.8950,166.6983586,-33.85118588,1236.493589
5.9000,166.8986495,-33.93670499,1236.467864
5.9050,167.0994073,-34.01768496,1236.442241
5.9100,167.2997904,-34.0946194,1236.416798
5.9150,167.4979625,-34.1681393,1236.391823
5.9200,167.6930838,-34.23787891,1236.367474
5.9250,167.884867,-34.30494688,1236.343704
5.9300,168.0721477,-34.36966172,1236.320681
5.9350,168.254797,-34.43135221,1236.298491
5.9400,168.4316311,-34.48993701,1236.277358
5.9450,168.6009533,-34.54488384,1236.257613
5.9500,168.7614442,-34.59617251,1236.239509
5.9550,168.9136886,-34.6440619,1236.222907
5.9600,169.0577841,-34.68773188,1236.207863
5.9650,169.1930759,-34.72732698,1236.194468
5.9700,169.3173286,-34.76391005,1236.183027
5.9750,169.4304431,-34.79632973,1236.173665
5.9800,169.5314551,-34.82587713,1236.166425
5.9850,169.620798,-34.85067762,1236.161382
5.9900,169.6983376,-34.87175846,1236.158482
5.9950,169.7627286,-34.88773825,1236.158091
6.0000,169.8143474,-34.89859008,1236.160144
6.0050,169.8538578,-34.9038902,1236.164559
6.0100,169.8823523,-34.90425741,1236.171108
6.0150,169.8999605,-34.89795461,1236.179913
6.0200,169.9066455,-34.88485107,1236.191021
6.0250,169.9032378,-34.86582366,1236.204209
6.0300,169.8903251,-34.83986783,1236.219484
6.0350,169.8682575,-34.80745817,1236.236762
6.0400,169.8379805,-34.76816479,1236.255919
6.0450,169.8009235,-34.72297169,1236.276652
6.0500,169.7565043,-34.67196914,1236.299037
6.0550,169.7070646,-34.6145522,1236.322744
6.0600,169.6514402,-34.5512409,1236.347941
6.0650,169.5915643,-34.48137735,1236.37435
6.0700,169.5267107,-34.40547826,1236.402073
6.0750,169.4571695,-34.32348066,1236.431067
6.0800,169.3821319,-34.2374467,1236.461302
6.0850,169.3012123,-34.14692517,1236.49291
6.0900,169.2160323,-34.05347897,1236.525471
6.0950,169.1256604,-33.95684598,1236.559204
6.1000,169.0315188,-33.85667807,1236.593895
6.1050,168.933786,-33.75326011,1236.629492
6.1100,168.8335051,-33.64632856,1236.665861
6.1150,168.7304294,-33.53518708,1236.703111
6.1200,168.624665,-33.41959208,1236.741269
6.1250,168.5170104,-33.29988922,1236.780164
6.1300,168.4094407,-33.17731239,1236.819328
6.1350,168.302226,-33.0502334,1236.858875
6.1400,168.1947101,-32.91954794,1236.898844
6.1450,168.0882384,-32.78704986,1236.938804
6.1500,167.9839222,-32.65205368,1236.97862
6.1550,167.8817676,-32.5158427,1237.018158
6.1600,167.7823329,-32.37963426,1237.057198
6.1650,167.6870174,-32.24312747,1237.09551
6.1700,167.5964303,-32.10795261,1237.13283
6.1750,167.5102803,-31.97475712,1237.169123
6.1800,167.4291335,-31.84359846,1237.204279
6.1850,167.3536151,-31.7149609,1237.238138
6.1900,167.2841653,-31.588321,1237.270654
6.1950,167.2214927,-31.46307553,1237.301765
6.2000,167.1648043,-31.3395398,1237.331593
6.2050,167.1142707,-31.21654079,1237.360194
6.2100,167.0694793,-31.09335439,1237.387723
6.2150,167.0305031,-30.97014307,1237.414141
6.2200,166.9970375,-30.84704457,1237.439499
6.2250,166.9693479,-30.72369691,1237.46377
6.2300,166.9472635,-30.59970024,1237.48702
6.2350,166.9301423,-30.47660718,1237.509222
6.2400,166.9184294,-30.35357442,1237.530363
6.2450,166.9111766,-30.23127056,1237.550575
6.2500,166.90839,-30.10945753,1237.56986
6.2550,166.9095426,-29.98748616,1237.588392
6.2600,166.9131716,-29.86495305,1237.606474
6.2650,166.9206149,-29.74288783,1237.623761
6.2700,166.9324246,-29.61947611,1237.640329
6.2750,166.9489988,-29.49642912,1237.655932
6.2800,166.9709121,-29.37303955,1237.670532
6.2850,166.9978829,-29.25009726,1237.684115
6.2900,167.0303634,-29.1279273,1237.696542
6.2950,167.069042,-29.00671937,1237.707662
6.3000,167.1152112,-28.88624116,1237.717275
6.3050,167.1676865,-28.76717088,1237.72551
6.3100,167.2251871,-28.64922479,1237.732647
6.3150,167.2886412,-28.5334441,1237.738403
6.3200,167.3588211,-28.4198203,1237.742639
6.3250,167.4336128,-28.30851501,1237.745721
6.3300,167.5136954,-28.19902641,1237.747574
6.3350,167.5978978,-28.09190976,1237.74836
6.3400,167.6852129,-27.98620344,1237.748373
6.3450,167.7752342,-27.88295311,1237.747569
6.3500,167.8683301,-27.78114093,1237.745997
6.3550,167.9637318,-27.68029783,1237.743845
6.3600,168.0609202,-27.58141649,1237.741111
6.3650,168.1587767,-27.48293216,1237.738168
6.3700,168.2573561,-27.38568653,1237.734909
6.3750,168.3556576,-27.28949016,1237.731546
6.3800,168.4538389,-27.19251195,1237.728255
6.3850,168.5512962,-27.09541297,1237.725069
6.3900,168.6471946,-26.99769705,1237.722203
6.3950,168.7409714,-26.8998964,1237.719688
6.4000,168.8319458,-26.80052378,1237.717816
6.4050,168.9183764,-26.70064949,1237.716786
6.4100,168.99947,-26.59929164,1237.716847
6.4150,169.0735064,-26.49710283,1237.718232
6.4200,169.141278,-26.39472803,1237.72073
6.4250,169.2016442,-26.29095799,1237.724683
6.4300,169.2532402,-26.18562772,1237.730346
6.4350,169.2953565,-26.07957081,1237.737767
6.4400,169.3286341,-25.97218455,1237.746893
6.4450,169.3518724,-25.86301064,1237.758003
6.4500,169.3649833,-25.75205953,1237.771114
6.4550,169.3677456,-25.64034168,1237.786167
6.4600,169.3601502,-25.52699382,1237.803256
6.4650,169.3408383,-25.41262485,1237.822555
6.4700,169.3099155,-25.29736394,1237.844042
6.4750,169.2683318,-25.18130692,1237.86755
6.4800,169.2152517,-25.0646382,1237.893206
6.4850,169.1511121,-24.94759793,1237.920909
6.4900,169.0763263,-24.83082723,1237.950523
6.4950,168.9915922,-24.71503723,1237.981841
6.5000,168.8972352,-24.60056917,1238.014776
6.5050,168.7936825,-24.48819652,1238.049176
6.5100,168.6825274,-24.37828644,1238.084724
6.5150,168.5642938,-24.27075116,1238.121341
6.5200,168.439046,-24.16656646,1238.158909
6.5250,168.3084914,-24.06520522,1238.1972
6.5300,168.1735492,-23.96808367,1238.235886
6.5350,168.0348375,-23.87421399,1238.274958
6.5400,167.8934472,-23.78444846,1238.31413
6.5450,167.7512584,-23.69867597,1238.353074
6.5500,167.608705,-23.61777579,1238.391595
6.5550,167.4675321,-23.5425481,1238.429288
6.5600,167.329306,-23.47321588,1238.465822
6.5650,167.1939723,-23.40950339,1238.501246
6.5700,167.0614144,-23.35309747,1238.53536
6.5750,166.932735,-23.3036059,1238.568002
6.5800,166.8088052,-23.26114187,1238.598994
6.5850,166.6900351,-23.22621997,1238.628182
6.5900,166.5757215,-23.19887804,1238.655706
6.5950,166.4656506,-23.17966008,1238.681518
6.6000,166.3587361,-23.16845908,1238.70583
6.6050,166.2564839,-23.16470004,1238.728439
6.6100,166.1603788,-23.16868483,1238.749018
6.6150,166.0682859,-23.18024175,1238.767993
6.6200,165.9802067,-23.19922922,1238.785376
6.6250,165.897267,-23.22533903,1238.801002
6.6300,165.8186125,-23.25887855,1238.814987
6.6350,165.7441397,-23.29811235,1238.827562
6.6400,165.6736477,-23.34426743,1238.838616
6.6450,165.6073874,-23.39552294,1238.848318
6.6500,165.5448356,-23.45217108,1238.856739
6.6550,165.4855399,-23.51440935,1238.863942
6.6600,165.4289248,-23.58198221,1238.870059
6.6650,165.3748102,-23.65521124,1238.875092
6.6700,165.3225864,-23.73345038,1238.879244
6.6750,165.2723952,-23.81698554,1238.882449
6.6800,165.2244455,-23.9056814,1238.884688
6.6850,165.179191,-23.99845947,1238.886012
6.6900,165.1349121,-24.09473687,1238.886811
6.6950,165.0927712,-24.19397214,1238.886937
6.7000,165.0521029,-24.29707246,1238.886401
6.7050,165.0147252,-24.40293369,1238.884997
6.7100,164.9809798,-24.512138,1238.882585
6.7150,164.9516964,-24.62364421,1238.879132
6.7200,164.9268139,-24.7374697,1238.874643
6.7250,164.9073981,-24.8545934,1238.868808
6.7300,164.8930423,-24.97403145,1238.86181
6.7350,164.8849474,-25.09628882,1238.853357
6.7400,164.882759,-25.2213672,1238.843512
6.7450,164.8873628,-25.34917346,1238.832122
6.7500,164.8982643,-25.47967612,1238.819289
6.7550,164.9145586,-25.61183614,1238.805292
6.7600,164.9362339,-25.74553295,1238.790147
6.7650,164.9626111,-25.88159407,1238.7739
6.7700,164.9940651,-26.01844162,1238.756651
6.7750,165.0298145,-26.1560278,1238.738548
6.7800,165.0709723,-26.29370477,1238.719459
6.7850,165.1161452,-26.43237542,1238.699552
6.7900,165.165397,-26.57049649,1238.678986
6.7950,165.2183953,-26.70812113,1238.657817
6.8000,165.2751842,-26.84522451,1238.636035
6.8050,165.335428,-26.98185247,1238.613696
6.8100,165.3989393,-27.11755368,1238.590889
6.8150,165.4656203,-27.25288169,1238.56756
6.8200,165.535608,-27.38740057,1238.543727
6.8250,165.6081167,-27.52218696,1238.519415
6.8300,165.6845149,-27.65590878,1238.494516
6.8350,165.7648549,-27.78925563,1238.468961
6.8400,165.8490872,-27.92296511,1238.442676
6.8450,165.9378532,-28.0563604,1238.415587
6.8500,166.0311443,-28.18871671,1238.387802
6.8550,166.1292746,-28.32094211,1238.35915
6.8600,166.2319033,-28.45385347,1238.329615
6.8650,166.340872,-28.58687058,1238.298908
6.8700,166.4559257,-28.71882209,1238.267212
6.8750,166.5778147,-28.84987281,1238.23438
6.8800,166.7058551,-28.98023208,1238.200518
6.8850,166.8404031,-29.1105846,1238.165481
6.8900,166.9816834,-29.24049066,1238.129278
6.8950,167.129668,-29.36946225,1238.091985
6.9000,167.2849486,-29.49750186,1238.05349
6.9050,167.4446239,-29.62497592,1238.014307
6.9100,167.6080207,-29.7512907,1237.974607
6.9150,167.775,-29.87580273,1237.934488
6.9200,167.9447014,-29.99785571,1237.894174
6.9250,168.1169009,-30.11633551,1237.853804
6.9300,168.2906244,-30.23146229,1237.813555
6.9350,168.4665364,-30.34356181,1237.773264
6.9400,168.6426532,-30.45135984,1237.733413
6.9450,168.8182058,-30.55456731,1237.69417
6.9500,168.9928303,-30.65328856,1237.655577
6.9550,169.1651526,-30.74817104,1237.617806
6.9600,169.3353896,-30.83681349,1237.58105
6.9650,169.5016483,-30.91875696,1237.545678
6.9700,169.6635222,-30.99395919,1237.511747
6.9750,169.819849,-31.06042062,1237.479639
6.9800,169.9693258,-31.11899843,1237.449491
6.9850,170.1108427,-31.16962502,1237.421488
6.9900,170.2457713,-31.21177549,1237.395435
6.9950,170.3721219,-31.24487302,1237.371708
7.0000,170.4895193,-31.26843046,1237.350428
7.0050,170.5967797,-31.28206955,1237.331803
7.0100,170.6935394,-31.28539152,1237.315928
7.0150,170.7792056,-31.2781236,1237.302925
7.0200,170.8534617,-31.2600497,1237.292866
7.0250,170.9164718,-31.2300638,1237.285821
7.0300,170.9689898,-31.18904055,1237.281579
7.0350,171.0106954,-31.13642138,1237.280251
7.0400,171.042289,-31.07169255,1237.28177
7.0450,171.0633057,-30.99580955,1237.286136
7.0500,171.0745589,-30.90880563,1237.293217
7.0550,171.077362,-30.81073074,1237.302809
7.0600,171.0715381,-30.70260619,1237.314861
7.0650,171.0580572,-30.58461542,1237.329191
7.0700,171.037403,-30.45646648,1237.345772
7.0750,171.0099552,-30.31941861,1237.364438
7.0800,170.9751473,-30.17474126,1237.385174
7.0850,170.9347463,-30.02187852,1237.407743
7.0900,170.8882424,-29.86176328,1237.432172
7.0950,170.8353566,-29.69532446,1237.45844
7.1000,170.7759047,-29.52299226,1237.486533
7.1050,170.7107137,-29.34629567,1237.516187
7.1100,170.6407522,-29.16484266,1237.547288
7.1150,170.5653077,-28.98013444,1237.579816
7.1200,170.4866066,-28.79191111,1237.613431
7.1250,170.4054463,-28.60176456,1237.64785
7.1300,170.3221937,-28.40982792,1237.682996
7.1350,170.238162,-28.21726631,1237.718513
7.1400,170.154677,-28.02468564,1237.754121
7.1450,170.0713433,-27.8326742,1237.789831
7.1500,169.9896848,-27.64335212,1237.825143
7.1550,169.9091433,-27.45579071,1237.860251
7.1600,169.8303036,-27.27111177,1237.894918
7.1650,169.7526283,-27.08985354,1237.929179
7.1700,169.6777996,-26.91366053,1237.962548
7.1750,169.6048358,-26.74365314,1237.995055
7.1800,169.5351984,-26.57987903,1238.026434
7.1850,169.4690805,-26.42231191,1238.056646
7.1900,169.4061806,-26.27133508,1238.08568
7.1950,169.3469027,-26.12727761,1238.11342
7.2000,169.291081,-25.98982568,1238.139906
7.2050,169.2401337,-25.86008295,1238.164747
7.2100,169.1927999,-25.73845851,1238.188111
7.2150,169.150178,-25.62480149,1238.209799
7.2200,169.1115728,-25.51827932,1238.230006
7.2250,169.0758623,-25.42036205,1238.248758
7.2300,169.0420841,-25.33049375,1238.266265
7.2350,169.0092297,-25.24849973,1238.282714
7.2400,168.9764821,-25.17411105,1238.298259
7.2450,168.9418654,-25.10696171,1238.313283
7.2500,168.9048879,-25.04626295,1238.327955
7.2550,168.8640534,-24.99002522,1238.342763
7.2600,168.8188723,-24.93984921,1238.35761
7.2650,168.7673507,-24.89424295,1238.373014
7.2700,168.7099599,-24.85289002,1238.38893
7.2750,168.6450902,-24.81490752,1238.405757
7.2800,168.5724405,-24.77955837,1238.423627
7.2850,168.4920041,-24.74561374,1238.44269
7.2900,168.402759,-24.71201593,1238.463241
7.2950,168.3059011,-24.67871215,1238.485098
7.3000,168.2021965,-24.64546591,1238.508155
7.3050,168.0922374,-24.61104039,1238.53247
7.3100,167.9778225,-24.57643221,1238.557603
7.3150,167.860461,-24.54130647,1238.583337
7.3200,167.7421837,-24.50551211,1238.609323
7.3250,167.6245065,-24.46995377,1238.63519
7.3300,167.5087511,-24.43528847,1238.660627
7.3350,167.3977751,-24.40180382,1238.685084
7.3400,167.293723,-24.37086293,1238.708014
7.3450,167.1993135,-24.342895,1238.728853
7.3500,167.1159466,-24.31837759,1238.747281
7.3550,167.0456759,-24.29780324,1238.762864
7.3600,166.9901795,-24.28256169,1238.775121
7.3650,166.9517248,-24.27207656,1238.783697
7.3700,166.9301707,-24.26846492,1238.788367
7.3750,166.9259846,-24.27178739,1238.789039
7.3800,166.9400687,-24.28154841,1238.785606
7.3850,166.9713326,-24.2989388,1238.778136
7.3900,167.0193552,-24.32412228,1238.766674
7.3950,167.0830119,-24.35600183,1238.751574
7.4000,167.1620641,-24.39545549,1238.732798
7.4050,167.2537874,-24.4400165,1238.711145
7.4100,167.3550361,-24.49111904,1238.687028
7.4150,167.4651983,-24.54726473,1238.660749
7.4200,167.5805219,-24.60817604,1238.63304
7.4250,167.6990181,-24.67169617,1238.604503
7.4300,167.8172784,-24.73801219,1238.57575
7.4350,167.9341672,-24.80641986,1238.547079
7.4400,168.0468407,-24.87520192,1238.519189
7.4450,168.1558935,-24.9443518,1238.491977
7.4500,168.2593869,-25.01176573,1238.466034
7.4550,168.3574585,-25.07898766,1238.441149
7.4600,168.4501674,-25.14419258,1238.417525
7.4650,168.5378858,-25.20860385,1238.394938
7.4700,168.6192159,-25.27188293,1238.373676
7.4750,168.6957119,-25.33341235,1238.353528
7.4800,168.7665844,-25.3935339,1238.334581
7.4850,168.8326407,-25.45267077,1238.316642
7.4900,168.8959551,-25.51136724,1238.299269
7.4950,168.956316,-25.56957903,1238.282504
7.5000,169.0147837,-25.62835411,1238.266044
7.5050,169.0713774,-25.68677191,1238.249982
7.5100,169.1276386,-25.74441341,1238.234094
7.5150,169.1833482,-25.80231948,1238.21829
7.5200,169.239394,-25.86103634,1238.202362
7.5250,169.2958032,-25.91954217,1238.186416
7.5300,169.3525567,-25.97733059,1238.170505
7.5350,169.4100278,-26.03478527,1238.154525
7.5400,169.4674841,-26.09227056,1238.138564
7.5450,169.5260937,-26.14875146,1238.122523
7.5500,169.5854683,-26.20406586,1238.106491
7.5550,169.6457901,-26.26011829,1238.090214
7.5600,169.7062467,-26.31479255,1238.074071
7.5650,169.7675669,-26.3700375,1238.057712
7.5700,169.8294698,-26.42441541,1238.04135
7.5750,169.8919122,-26.47851787,1238.02492
7.5800,169.9552956,-26.53208606,1238.008382
7.5850,170.019936,-26.58589521,1237.991596
7.5900,170.0870393,-26.63940633,1237.974419
7.5950,170.158355,-26.69371242,1237.956428
7.6000,170.2351673,-26.74882301,1237.937389
7.6050,170.3190185,-26.80648008,1237.916852
7.6100,170.4100604,-26.865347,1237.894948
7.6150,170.5099852,-26.92718046,1237.871195
7.6200,170.6204611,-26.99275502,1237.845218
7.6250,170.742466,-27.06280701,1237.816784
7.6300,170.8782506,-27.13812873,1237.785436
7.6350,171.0274158,-27.22040769,1237.751075
7.6400,171.1925249,-27.31140598,1237.713093
7.6450,171.3734517,-27.41133656,1237.671511
7.6500,171.5707002,-27.52227663,1237.626054
7.6550,171.7849901,-27.64384061,1237.576662
7.6600,172.0165395,-27.77655068,1237.523285
7.6650,172.2648361,-27.92128388,1237.465953
7.6700,172.5296566,-28.07739803,1237.404819
7.6750,172.8106613,-28.2445985,1237.340005
7.6800,173.1078403,-28.42299997,1237.27156
7.6850,173.418944,-28.61153592,1237.200012
7.6900,173.7431937,-28.80899327,1237.125664
7.6950,174.0799753,-29.01553973,1237.04862
7.7000,174.4269895,-29.22914673,1236.96951
7.7050,174.7836345,-29.44972684,1236.888468
7.7100,175.1483648,-29.67550115,1236.805954
7.7150,175.519224,-29.9061009,1236.722342
7.7200,175.8951788,-30.14013239,1236.637949
7.7250,176.2739523,-30.37768384,1236.553135
7.7300,176.6556778,-30.61798187,1236.467955
7.7350,177.0377247,-30.85970438,1236.382949
7.7400,177.4192896,-31.10270396,1236.298251
7.7450,177.7992037,-31.34684384,1236.214043
7.7500,178.1762466,-31.59268582,1236.130437
7.7550,178.5508346,-31.83793909,1236.047577
7.7600,178.9209253,-32.08379669,1235.965643
7.7650,179.2853216,-32.32951783,1235.884862
7.7700,179.6447252,-32.57445568,1235.805177
7.7750,179.9997028,-32.81840259,1235.726511
7.7800,180.349414,-33.06099467,1235.648995
7.7850,180.692739,-33.30077463,1235.572899
7.7900,181.0290417,-33.53765774,1235.498309
7.7950,181.3585583,-33.77045608,1235.425259
7.8000,181.679787,-33.99739041,1235.354097
7.8050,181.9929008,-34.21861346,1235.284747
7.8100,182.296621,-34.43327916,1235.217439
7.8150,182.5890148,-34.64056054,1235.152467
7.8200,182.8691211,-34.83973187,1235.089984
7.8250,183.1354578,-35.02975943,1235.030237
7.8300,183.3877013,-35.21122206,1234.973178
7.8350,183.6244612,-35.38340303,1234.919005
7.8400,183.8444978,-35.5458031,1234.867875
7.8450,184.046941,-35.70006938,1234.81974
7.8500,184.22987,-35.84552374,1234.77487
7.8550,184.393608,-35.9811912,1234.733267
7.8600,184.5376838,-36.10868517,1234.694821
7.8650,184.6617419,-36.22771208,1234.659581
7.8700,184.765101,-36.33898652,1234.627542
7.8750,184.8492331,-36.44277856,1234.598466
7.8800,184.9150004,-36.53985467,1234.572162
7.8850,184.9615804,-36.63095469,1234.548652
7.8900,184.9911105,-36.71778514,1234.527515
7.8950,185.0029472,-36.80054138,1234.508802
7.9000,184.9991699,-36.87997106,1234.492177
7.9050,184.9797642,-36.95674129,1234.477587
7.9100,184.9469296,-37.03308245,1234.464563
7.9150,184.9022369,-37.10970699,1234.452846
7.9200,184.8464847,-37.18686608,1234.442316
7.9250,184.7816693,-37.26533695,1234.432655
7.9300,184.7092431,-37.34590177,1234.423604
7.9350,184.6303895,-37.42788185,1234.415058
7.9400,184.5459111,-37.51204366,1234.406843
7.9450,184.4577771,-37.59816603,1234.398721
7.9500,184.3673724,-37.68591998,1234.390535
7.9550,184.2754436,-37.77687353,1234.382062
7.9600,184.1828564,-37.86999601,1234.373246
7.9650,184.0895803,-37.96561423,1234.364079
7.9700,183.9966144,-38.06388718,1234.354397
7.9750,183.904288,-38.16582145,1234.344088
7.9800,183.8126236,-38.27179481,1234.333093
7.9850,183.7223242,-38.38105104,1234.321382
7.9900,183.6346793,-38.49512803,1234.308666
7.9950,183.5502011,-38.61251565,1234.295007
8.0000,183.4679682,-38.73357711,1234.280486
8.0050,183.3886244,-38.85714681,1234.265105
8.0100,183.3131669,-38.98298904,1234.248745
8.0150,183.2429482,-39.10941646,1234.231346
8.0200,183.1777272,-39.2372284,1234.212863
8.0250,183.1191739,-39.36377365,1234.193271
8.0300,183.0655171,-39.48944192,1234.172775
8.0350,183.0186724,-39.61263599,1234.151216
8.0400,182.9781337,-39.73329651,1234.128673
8.0450,182.9438815,-39.84992427,1234.105243
8.0500,182.9163444,-39.96200691,1234.080895
8.0550,182.8934079,-40.07007779,1234.055873
8.0600,182.8765288,-40.17265518,1234.030072
8.0650,182.8653574,-40.26832017,1234.003637
8.0700,182.8597878,-40.3576516,1233.976523
8.0750,182.8574632,-40.44078444,1233.949034
8.0800,182.857872,-40.5168644,1233.921313
8.0850,182.8612285,-40.58613783,1233.893311
8.0900,182.865628,-40.64840268,1233.865302
8.0950,182.8711044,-40.70400444,1233.83726
8.1000,182.8772368,-40.75241682,1233.809267
8.1050,182.884199,-40.79368706,1233.781304
8.1100,182.8921035,-40.82742218,1233.753367
8.1150,182.9012146,-40.85182679,1233.725561
8.1200,182.9103311,-40.86764555,1233.697998
8.1250,182.9197193,-40.87560332,1233.670606
8.1300,182.9302822,-40.87394011,1233.643386
8.1350,182.9410799,-40.86147135,1233.616565
8.1400,182.9529464,-40.8393947,1233.589952
8.1450,182.9649171,-40.80648934,1233.563776
8.1500,182.9781144,-40.76398291,1233.537784
8.1550,182.990969,-40.71216716,1233.512192
8.1600,183.0043388,-40.64975125,1233.486972
8.1650,183.0183695,-40.57795734,1233.46202
8.1700,183.0324445,-40.49650775,1233.437462
8.1750,183.0461896,-40.40706112,1233.413256
8.1800,183.0589778,-40.30929044,1233.389505
8.1850,183.0713218,-40.20380783,1233.366129
8.1900,183.0815574,-40.09027252,1233.343384
8.1950,183.0901191,-39.96827029,1233.321258
8.2000,183.09574,-39.83837655,1233.299885
8.2050,183.0994344,-39.69960532,1233.279208
8.2100,183.1015121,-39.55192289,1233.2592
8.2150,183.1009258,-39.39531022,1233.240014
8.2200,183.0986824,-39.22960847,1233.221568
8.2250,183.0938911,-39.05516962,1233.203954
8.2300,183.0863845,-38.87075523,1233.187331
8.2350,183.0772632,-38.67701496,1233.171511
8.2400,183.0669652,-38.47261764,1233.156565
8.2450,183.0554251,-38.2576734,1233.142532
8.2500,183.0424887,-38.03235291,1233.129438
8.2550,183.0280933,-37.79628391,1233.117362
8.2600,183.0135261,-37.55013562,1233.10611
8.2650,182.9991094,-37.29270447,1233.095753
8.2700,182.9847214,-37.02437235,1233.086318
8.2750,182.9713553,-36.74457024,1233.077733
8.2800,182.9583506,-36.45342014,1233.070111
8.2850,182.9457024,-36.15154517,1233.063439
8.2900,182.932507,-35.8382504,1233.057935
8.2950,182.9181944,-35.51527183,1233.053563
8.3000,182.9041554,-35.1828104,1233.050153
8.3050,182.8900943,-34.84109474,1233.047737
8.3100,182.8748846,-34.49139979,1233.046418
8.3150,182.8580099,-34.13396093,1233.046275
8.3200,182.8402095,-33.76794052,1233.047312
8.3250,182.8214244,-33.3944856,1233.049467
8.3300,182.8010228,-33.01323138,1233.052894
8.3350,182.7786308,-32.62430767,1233.057702
8.3400,182.7538068,-32.22827363,1233.063933
8.3450,182.7261634,-31.8258008,1233.071622
8.3500,182.6951755,-31.41604625,1233.080962
8.3550,182.6624554,-30.99958951,1233.091725
8.3600,182.6264844,-30.57618667,1233.104169
8.3650,182.5873578,-30.14799524,1233.118107
8.3700,182.5451184,-29.71272198,1233.133806
8.3750,182.5002007,-29.27051308,1233.151223
8.3800,182.4531604,-28.8230897,1233.170122
8.3850,182.4037803,-28.37015652,1233.190594
8.3900,182.3516778,-27.91091516,1233.212771
8.3950,182.2966838,-27.44464364,1233.236773
8.4000,182.2382776,-26.97455356,1233.262348
8.4050,182.1755588,-26.49933349,1233.289793
8.4100,182.1074982,-26.01925817,1233.319252
8.4150,182.0343404,-25.53596933,1233.350522
8.4200,181.956895,-25.0486519,1233.383586
8.4250,181.8739403,-24.5579542,1233.418587
8.4300,181.7837697,-24.06513354,1233.45562
8.4350,181.6857747,-23.57218691,1233.494587
8.4400,181.5803926,-23.07718871,1233.535685
8.4450,181.4665181,-22.58064139,1233.579051
8.4500,181.3429595,-22.08292467,1233.624847
8.4550,181.2105785,-21.58334119,1233.673055
8.4600,181.0675461,-21.08222616,1233.723936
8.4650,180.9146104,-20.57779947,1233.777602
8.4700,180.7518909,-20.07174397,1233.833841
8.4750,180.5796002,-19.56228267,1233.892843
8.4800,180.3975402,-19.0490939,1233.95471
8.4850,180.206004,-18.53138986,1234.019507
8.4900,180.0050103,-18.00838943,1234.087373
8.4950,179.7948314,-17.48023804,1234.15826
8.5000,179.5757676,-16.94671938,1234.232226
8.5050,179.3468969,-16.41005674,1234.309162
8.5100,179.1066915,-15.8702584,1234.389354
8.5150,178.8549041,-15.32761692,1234.472888
8.5200,178.5887223,-14.78379522,1234.559957
8.5250,178.3089787,-14.23771974,1234.650682
8.5300,178.0143977,-13.68950068,1234.745269
8.5350,177.7063759,-13.13912821,1234.843595
8.5400,177.3845869,-12.58562725,1234.945867
8.5450,177.0503256,-12.02809595,1235.052044
8.5500,176.706599,-11.46485111,1235.161946
8.5550,176.3548142,-10.89493893,1235.275497
8.5600,175.9958261,-10.31837432,1235.392608
8.5650,175.6299603,-9.736592418,1235.513054
8.5700,175.2591833,-9.150451712,1235.636425
8.5750,174.8824121,-8.561478963,1235.762691
8.5800,174.4992578,-7.970617772,1235.891791
8.5850,174.1100092,-7.378895662,1236.023536
8.5900,173.7163082,-6.787500555,1236.157444
8.5950,173.3186557,-6.195028065,1236.293681
8.6000,172.9190321,-5.601259099,1236.431947
8.6050,172.51869,-5.00675516,1236.571956
8.6100,172.1204738,-4.409362938,1236.713598
8.6150,171.7247167,-3.810601858,1236.856552
8.6200,171.3332035,-3.210500811,1237.000553
8.6250,170.9456055,-2.609298568,1237.145629
8.6300,170.5645772,-2.005561873,1237.291593
8.6350,170.1895226,-1.400951876,1237.438269
8.6400,169.8219036,-0.7952522673,1237.585464
8.6450,169.4630695,-0.187574846,1237.733147
8.6500,169.1131268,0.4214691555,1237.881216
8.6550,168.7718098,1.03227552,1238.029811
8.6600,168.4416713,1.646036764,1238.178708
8.6650,168.1239709,2.263382277,1238.327803
8.6700,167.8193363,2.883078057,1238.476781
8.6750,167.5276869,3.504600928,1238.625583
8.6800,167.2495458,4.128380986,1238.774208
8.6850,166.9848053,4.753279719,1238.922479
8.6900,166.7334923,5.378287187,1239.070185
8.6950,166.4941372,6.001240627,1239.217174
8.7000,166.2648768,6.622051416,1239.363808
8.7050,166.0436083,7.238031663,1239.509957
8.7100,165.8276321,7.847545464,1239.655806
8.7150,165.6148846,8.450482111,1239.80168
8.7200,165.402785,9.046441587,1239.947977
8.7250,165.1906642,9.636916437,1240.095072
8.7300,164.9769806,10.22412869,1240.243721
8.7350,164.7608471,10.81016337,1240.394454
8.7400,164.5412756,11.39487191,1240.547413
8.7450,164.3179286,11.97847985,1240.702632
8.7500,164.0907065,12.56226909,1240.860435
8.7550,163.856512,13.14464009,1241.02105
8.7600,163.6146376,13.72508613,1241.184505
8.7650,163.3626827,14.30454349,1241.351469
8.7700,163.0998682,14.88549121,1241.522667
8.7750,162.8255622,15.46794711,1241.69823
8.7800,162.5395306,16.05182061,1241.878205
8.7850,162.2409516,16.63794836,1242.063
8.7900,161.9291137,17.2246733,1242.252393
8.7950,161.601857,17.81128166,1242.446731
8.8000,161.2573904,18.39823196,1242.646526
8.8050,160.8945701,18.98654385,1242.852305
8.8100,160.5139986,19.57606137,1243.063977
8.8150,160.1157134,20.16733937,1243.281704
8.8200,159.6993798,20.76347312,1243.506405
8.8250,159.2660368,21.36414101,1243.737805
8.8300,158.8165621,21.97013079,1243.976006
8.8350,158.3504125,22.58174963,1244.221258
8.8400,157.8681207,23.19841567,1244.473421
8.8450,157.3697502,23.81937588,1244.732392
8.8500,156.8534412,24.4443534,1244.998611
8.8550,156.3192901,25.07205262,1245.27184
8.8600,155.7649565,25.70302302,1245.552863
8.8650,155.1928655,26.33846663,1245.841525
8.8700,154.6032452,26.97902182,1246.138074
8.8750,153.999362,27.62479815,1246.441892
8.8800,153.3836452,28.27636633,1246.752683
8.8850,152.7590662,28.93279623,1247.069629
8.8900,152.1256085,29.59234772,1247.392364
8.8950,151.4846734,30.25310758,1247.720113
8.9000,150.8350802,30.91339722,1248.052763
8.9050,150.1765869,31.57047166,1248.389698
8.9100,149.5087789,32.22053603,1248.730018
8.9150,148.8312119,32.86346758,1249.073875
8.9200,148.141875,33.49775002,1249.421343
8.9250,147.4425036,34.12334361,1249.772032
8.9300,146.7331477,34.73934109,1250.125701
8.9350,146.0156785,35.34758939,1250.482389
8.9400,145.2907804,35.94932699,1250.842316
8.9450,144.557932,36.54342176,1251.205302
8.9500,143.8184981,37.12927006,1251.570889
8.9550,143.0728151,37.70722825,1251.939116
8.9600,142.3210721,38.27739892,1252.309941
8.9650,141.5656169,38.84124875,1252.68313
8.9700,140.8064523,39.39888267,1253.058675
8.9750,140.044528,39.95019572,1253.436241
8.9800,139.281048,40.49660322,1253.815886
8.9850,138.5181002,41.03858087,1254.19707
8.9900,137.758721,41.57584156,1254.578757
8.9950,137.0050085,42.10813689,1254.960254
9.0000,136.2583373,42.63471707,1255.340821
9.0050,135.5200182,43.15469997,1255.719659
9.0100,134.7921762,43.66834912,1256.096081
9.0150,134.0755835,44.17421992,1256.469308
9.0200,133.3710956,44.67107687,1256.83855
9.0250,132.6797392,45.15713622,1257.202762
9.0300,132.0035365,45.63286924,1257.561354
9.0350,131.3439321,46.0962081,1257.91302
9.0400,130.7026362,46.54749789,1258.25718
9.0450,130.0807356,46.98759133,1258.593595
9.0500,129.4788369,47.41663781,1258.921902
9.0550,128.8992341,47.83608642,1259.241674
9.0600,128.3433756,48.24750661,1259.552743
9.0650,127.8130339,48.65110877,1259.854488
9.0700,127.3108138,49.04808273,1260.146237
9.0750,126.8377642,49.43915685,1260.427707
9.0800,126.3941596,49.82632329,1260.699325
9.0850,125.9812099,50.20825222,1260.960096
9.0900,125.6007029,50.58654491,1261.209829
9.0950,125.252385,50.96253248,1261.448932
9.1000,124.9379863,51.33594237,1261.676601
9.1050,124.6575479,51.70728562,1261.892914
9.1100,124.4092567,52.07616608,1262.098281
9.1150,124.1929815,52.44239912,1262.29265
9.1200,124.0089831,52.80367058,1262.475122
9.1250,123.853747,53.1601099,1262.646962
9.1300,123.7248108,53.50985558,1262.808319
9.1350,123.6195611,53.85241958,1262.959936
9.1400,123.535583,54.18888463,1263.10305
9.1450,123.4698381,54.51867528,1263.238476
9.1500,123.4216595,54.84390841,1263.367191
9.1550,123.3887563,55.16558119,1263.490392
9.1600,123.3692549,55.48433311,1263.608952
9.1650,123.360335,55.80111881,1263.724234
9.1700,123.3590096,56.11576153,1263.837204
9.1750,123.362551,56.42949491,1263.949255
9.1800,123.3666658,56.74032882,1264.061145
9.1850,123.3677317,57.04959756,1264.174537
9.1900,123.3626931,57.358842,1264.291015
9.1950,123.3495172,57.66904106,1264.411541
9.2000,123.3284189,57.9789747,1264.535558
9.2050,123.2971603,58.2899508,1264.664245
9.2100,123.2537034,58.60291857,1264.798555
9.2150,123.196824,58.91827119,1264.939006
9.2200,123.1257547,59.23525221,1265.085602
9.2250,123.0366075,59.55243376,1265.239117
9.2300,122.9272425,59.86892015,1265.399943
9.2350,122.7955678,60.18361389,1265.568432
9.2400,122.6402687,60.49666321,1265.745065
9.2450,122.4602424,60.80672254,1265.929737
9.2500,122.2549379,61.11435033,1266.122853
9.2550,122.0231608,61.41967632,1266.324942
9.2600,121.7632355,61.72128284,1266.536105
9.2650,121.4739374,62.01961741,1266.757059
9.2700,121.1562289,62.31624296,1266.988134
9.2750,120.8108885,62.61319369,1267.229938
9.2800,120.4384787,62.90985808,1267.482148
9.2850,120.037577,63.20813346,1267.746155
9.2900,119.6092661,63.50939111,1268.022275
9.2950,119.1531331,63.81453731,1268.3111
9.3000,118.6706791,64.1262482,1268.613295
9.3050,118.1647034,64.44626863,1268.928713
9.3100,117.6366766,64.77431748,1269.256837
9.3150,117.0884405,65.10967825,1269.596874
9.3200,116.5220959,65.45321253,1269.94858
9.3250,115.9386482,65.80410555,1270.311418
9.3300,115.33986,66.15971228,1270.683827
9.3350,114.727344,66.52144957,1271.065875
9.3400,114.1009855,66.88757619,1271.456999
9.3450,113.4618976,67.25739293,1271.856625
9.3500,112.8115112,67.6304433,1272.264126
9.3550,112.1520018,68.0071657,1272.678951
9.3600,111.4853947,68.3862828,1273.099912
9.3650,110.813057,68.7668771,1273.526117
9.3700,110.1348601,69.14648446,1273.956698
9.3750,109.4505001,69.52381031,1274.391321
9.3800,108.7621137,69.89785299,1274.828736
9.3850,108.070159,70.26863361,1275.268779
9.3900,107.3744239,70.63492104,1275.711049
9.3950,106.6769189,70.9956163,1276.154253
9.4000,105.9777945,71.349736,1276.597929
9.4050,105.2793111,71.69665914,1277.040833
9.4100,104.5827681,72.0366413,1277.48248
9.4150,103.889654,72.36901144,1277.921887
9.4200,103.1996948,72.69354379,1278.358966
9.4250,102.5145018,73.00926098,1278.792555
9.4300,101.8351253,73.31731067,1279.222642
9.4350,101.1622648,73.61757879,1279.64879
9.4400,100.496349,73.90917777,1280.070328
9.4450,99.83851461,74.19323912,1280.487167
9.4500,99.18842377,74.46677525,1280.898076
9.4550,98.54609723,74.7297072,1281.302904
9.4600,97.91257011,74.98317942,1281.701625
9.4650,97.28848423,75.22617159,1282.093391
9.4700,96.67447338,75.45892515,1282.477883
9.4750,96.06983003,75.68180559,1282.855464
9.4800,95.47611403,75.89602444,1283.225831
9.4850,94.89233457,76.10051982,1283.588865
9.4900,94.31885172,76.29467485,1283.94402
9.4950,93.75400869,76.47786539,1284.291706
9.5000,93.19694941,76.65120068,1284.632702
9.5050,92.64728433,76.8149804,1284.967251
9.5100,92.10493736,76.96961604,1285.295493
9.5150,91.56992184,77.11364359,1285.616744
9.5200,91.04081617,77.24870806,1285.932325
9.5250,90.51877221,77.37524026,1286.241808
9.5300,90.00274543,77.49374018,1286.545885
9.5350,89.49267862,77.6044586,1286.844623
9.5400,88.98787678,77.70652305,1287.13789
9.5450,88.48869614,77.80153143,1287.426223
9.5500,87.99444767,77.88989563,1287.710091
9.5550,87.50535846,77.97215975,1287.989598
9.5600,87.02213854,78.05015237,1288.265229
9.5650,86.54374971,78.12401952,1288.537517
9.5700,86.0689988,78.1937006,1288.807038
9.5750,85.59821592,78.26015613,1289.074045
9.5800,85.13159614,78.32438359,1289.338915
9.5850,84.67032734,78.38620345,1289.600933
9.5900,84.21348355,78.44595533,1289.860712
9.5950,83.7620031,78.50466219,1290.118215
9.6000,83.31533019,78.56164675,1290.373401
9.6050,82.8733084,78.61743266,1290.626556
9.6100,82.43505465,78.6715916,1290.87794
9.6150,82.00011412,78.72516036,1291.128283
9.6200,81.56708023,78.77718268,1291.377821
9.6250,81.13566641,78.82872283,1291.62723
9.6300,80.70486824,78.87967428,1291.876944
9.6350,80.27320377,78.92824409,1292.127012
9.6400,79.84029472,78.97503554,1292.377939
9.6450,79.40674666,79.02003226,1292.62942
9.6500,78.97171792,79.0624124,1292.881523
9.6550,78.53431445,79.10313021,1293.135214
9.6600,78.09439147,79.14144427,1293.39023
9.6650,77.65065844,79.17753249,1293.64742
9.6700,77.20238719,79.21063766,1293.906808
9.6750,76.74968308,79.24103756,1294.168514
9.6800,76.2915024,79.26845603,1294.432997
9.6850,75.82729592,79.29267069,1294.700432
9.6900,75.35700657,79.31320933,1294.970645
9.6950,74.88105498,79.32968941,1295.24328
9.7000,74.39795372,79.34228592,1295.519243
9.7050,73.90886738,79.35096335,1295.797879
9.7100,73.41327342,79.35552361,1296.079398
9.7150,72.91042124,79.35500521,1296.363768
9.7200,72.4006365,79.3503777,1296.651308
9.7250,71.88562142,79.34188908,1296.941166
9.7300,71.3661334,79.32853384,1297.232411
9.7350,70.84345209,79.31120225,1297.524752
9.7400,70.31792472,79.28931965,1297.817694
9.7450,69.79026037,79.26217027,1298.110523
9.7500,69.26071841,79.23034909,1298.403347
9.7550,68.73138872,79.1941381,1298.695073
9.7600,68.20300532,79.15293066,1298.984944
9.7650,67.67542647,79.10620451,1299.272766
9.7700,67.15011088,79.05456329,1299.558
9.7750,66.6274861,78.99842481,1299.840565
9.7800,66.10912858,78.93798254,1300.119585
9.7850,65.59681078,78.87406669,1300.394385
9.7900,65.09187057,78.80759234,1300.664598
9.7950,64.59605667,78.73810041,1300.928907
9.8000,64.10880699,78.6671008,1301.188395
9.8050,63.63240239,78.59541122,1301.442044
9.8100,63.16817126,78.52429939,1301.689652
9.8150,62.71633969,78.45531586,1301.931691
9.8200,62.27980646,78.38872028,1302.166472
9.8250,61.85873031,78.32567289,1302.394385
9.8300,61.4539867,78.26650594,1302.614995
9.8350,61.0662751,78.21212736,1302.828243
9.8400,60.69640784,78.16319927,1303.033878
9.8450,60.3431553,78.12119615,1303.233279
9.8500,60.00687331,78.08708638,1303.426651
9.8550,59.68704985,78.06127582,1303.614427
9.8600,59.38374189,78.04377067,1303.796542
9.8650,59.0964636,78.03597412,1303.973959
9.8700,58.8254724,78.03800878,1304.1465
9.8750,58.56971601,78.0487222,1304.314194
9.8800,58.32931163,78.06884027,1304.477263
9.8850,58.10298889,78.098533,1304.636565
9.8900,57.89023486,78.13737994,1304.792203
9.8950,57.68929176,78.18454345,1304.944842
9.9000,57.50058322,78.24091885,1305.09463
9.9050,57.32143656,78.30450566,1305.242301
9.9100,57.1512315,78.3763688,1305.388778
9.9150,56.98939615,78.45601791,1305.534154
9.9200,56.835824,78.54301207,1305.678246
9.9250,56.69004273,78.63726841,1305.821301
9.9300,56.55097489,78.73763136,1305.963445
9.9350,56.41841235,78.84402293,1306.104722
9.9400,56.29251687,78.95560562,1306.244606
9.9450,56.1713765,79.07135667,1306.383786
9.9500,56.05572371,79.19210567,1306.522218
9.9550,55.94404752,79.31563467,1306.659717
9.9600,55.83493514,79.44184398,1306.797109
9.9650,55.72934796,79.57079294,1306.93376
9.9700,55.62769148,79.70264545,1307.069539
9.9750,55.52875962,79.83573351,1307.204299
9.9800,55.43165329,79.96912907,1307.33814
9.9850,55.33707615,80.10268395,1307.470564
9.9900,55.24486628,80.23643935,1307.601671
9.9950,55.15437135,80.3697768,1307.731574
10.0000,55.06665389,80.50307654,1307.859743
10.0050,54.97983274,80.63482191,1307.986631
10.0100,54.8951268,80.76452709,1308.111186
10.0150,54.81334459,80.89352819,1308.233536
10.0200,54.73571274,81.01960731,1308.351749
10.0250,54.66192878,81.14261783,1308.4659
10.0300,54.59276762,81.26219361,1308.575263
10.0350,54.52747154,81.3766971,1308.679445
10.0400,54.46675541,81.48614129,1308.777976
10.0450,54.4110317,81.5890435,1308.869754
10.0500,54.36080885,81.68609073,1308.954789
10.0550,54.31380793,81.77594605,1309.033884
10.0600,54.27163798,81.85872447,1309.106039
10.0650,54.23459664,81.93435728,1309.170992
10.0700,54.202629,82.00360527,1309.229179
10.0750,54.17686652,82.06564571,1309.279426
10.0800,54.15752561,82.12211713,1309.322428
10.0850,54.14501078,82.17272848,1309.357787
10.0900,54.1407167,82.21852713,1309.385105
10.0950,54.14455256,82.26029779,1309.404865
10.1000,54.15829885,82.29787111,1309.41578
10.1050,54.18138667,82.33097206,1309.418091
10.1100,54.21250781,82.35893133,1309.412286
10.1150,54.25288537,82.38237525,1309.397962
10.1200,54.30137862,82.40081704,1309.375615
10.1250,54.35827933,82.41471587,1309.345339
10.1300,54.42493624,82.42571854,1309.307095
10.1350,54.49991435,82.43301808,1309.261402
10.1400,54.58357257,82.43817653,1309.2089
10.1450,54.67647198,82.44028334,1309.148764
10.1500,54.77761521,82.4401792,1309.082094
10.1550,54.88880978,82.43926392,1309.008465
10.1600,55.00927639,82.43781637,1308.928543
10.1650,55.13814325,82.43409606,1308.842001
10.1700,55.27560336,82.42963165,1308.749513
10.1750,55.42169724,82.42543556,1308.651615
10.1800,55.57438288,82.42064343,1308.549154
10.1850,55.73482898,82.41558219,1308.441585
10.1900,55.90042043,82.40970148,1308.330309
10.1950,56.07186567,82.40459352,1308.215701
10.2000,56.24796709,82.3995486,1308.098188
10.2050,56.42868327,82.39618107,1307.978621
10.2100,56.61447675,82.39393105,1307.856433
10.2150,56.80396296,82.39294229,1307.73258
10.2200,56.99707297,82.39371433,1307.607404
10.2250,57.19294941,82.39522852,1307.480938
10.2300,57.39146108,82.39775941,1307.35342
10.2350,57.59234332,82.4006086,1307.224659
10.2400,57.79449244,82.40284449,1307.094876
10.2450,57.9988749,82.40517954,1306.963827
10.2500,58.20471491,82.40604311,1306.831195
10.2550,58.41230324,82.40570441,1306.696949
10.2600,58.62063797,82.40370688,1306.561471
10.2650,58.82865426,82.39815142,1306.424468
10.2700,59.03548208,82.38896336,1306.286415
10.2750,59.24159865,82.37626955,1306.147113
10.2800,59.44661325,82.35948411,1306.006487
10.2850,59.65028647,82.33865656,1305.864688
10.2900,59.85168414,82.31296508,1305.72191
10.2950,60.05078463,82.2820446,1305.577943
10.3000,60.24753097,82.24586735,1305.432843
10.3050,60.44278046,82.20418268,1305.285922
10.3100,60.63672473,82.15746988,1305.137304
10.3150,60.82954142,82.10412881,1304.986083
10.3200,61.02060129,82.04492559,1304.832996
10.3250,61.20982603,81.97884762,1304.677623
10.3300,61.39712394,81.906137,1304.520127
10.3350,61.58321957,81.82696294,1304.360184
10.3400,61.76837305,81.74110676,1304.197487
10.3450,61.95277314,81.64919078,1304.03228
10.3500,62.13692999,81.55040166,1303.863844
10.3550,62.32246488,81.44605066,1303.691854
10.3600,62.50868424,81.33455501,1303.515979
10.3650,62.69588142,81.21752287,1303.336873
10.3700,62.88472026,81.09300601,1303.153189
10.3750,63.07489755,80.96187031,1302.96557
10.3800,63.26708261,80.82387843,1302.773531
10.3850,63.46129533,80.67958835,1302.577382
10.3900,63.65725675,80.52822453,1302.376913
10.3950,63.85499445,80.37045589,1302.172477
10.4000,64.05392064,80.2070816,1301.964839
10.4050,64.25512049,80.03889326,1301.753773
10.4100,64.45934526,79.8669328,1301.539375
10.4150,64.66619859,79.69267768,1301.322655
10.4200,64.87635044,79.51669291,1301.103518
10.4250,65.08990204,79.33984945,1300.882363
10.4300,65.30652044,79.16289544,1300.659802
10.4350,65.52731119,78.98630658,1300.435477
10.4400,65.75178474,78.8101286,1300.209702
10.4450,65.9807031,78.63602303,1299.982905
10.4500,66.21446362,78.46386263,1299.754774
10.4550,66.45247707,78.29272044,1299.525193
10.4600,66.69418114,78.12369412,1299.295037
10.4650,66.94070901,77.95732465,1299.063885
10.4700,67.19170048,77.79283081,1298.831599
10.4750,67.44550276,77.63008598,1298.599058
10.4800,67.70345038,77.4701501,1298.366067
10.4850,67.96332977,77.31147999,1298.133124
10.4900,68.22657104,77.15491374,1297.899832
10.4950,68.49136047,77.00003153,1297.667055
10.5000,68.75750718,76.84661512,1297.434809
10.5050,69.02461123,76.69455332,1297.203297
10.5100,69.29185362,76.54329817,1296.972732
10.5150,69.55981703,76.39268933,1296.742696
10.5200,69.82745739,76.24229121,1296.513585
10.5250,70.0946654,76.09111951,1296.284965
10.5300,70.36072563,75.93947223,1296.057395
10.5350,70.62533993,75.78649461,1295.830614
10.5400,70.88879736,75.63348656,1295.605033
10.5450,71.14953537,75.47920424,1295.380946
10.5500,71.40639276,75.32342227,1295.158857
10.5550,71.66002456,75.1661626,1294.938403
10.5600,71.91089176,75.00700802,1294.71913
10.5650,72.15897196,74.84624883,1294.501209
10.5700,72.40499175,74.68411618,1294.284331
10.5750,72.64879688,74.52024669,1294.06841
10.5800,72.89139388,74.35428332,1293.852755
10.5850,73.13175338,74.18558802,1293.63761
10.5900,73.37075248,74.01402415,1293.422431
10.5950,73.60871132,73.84016054,1293.207283
10.6000,73.84568004,73.66229005,1292.991324
10.6050,74.08088153,73.48051297,1292.775033
10.6100,74.31473798,73.29489712,1292.558227
10.6150,74.5468759,73.10574477,1292.341236
10.6200,74.77985056,72.91417381,1292.123189
10.6250,75.01304164,72.71986593,1291.904261
10.6300,75.24669444,72.52232786,1291.684135
10.6350,75.48193953,72.32153372,1291.462204
10.6400,75.71919547,72.11819253,1291.238616
10.6450,75.95847396,71.91231443,1291.013386
10.6500,76.19996292,71.70437453,1290.786674
10.6550,76.44372614,71.49364869,1290.558127
10.6600,76.69086211,71.28090479,1290.327492
10.6650,76.94183813,71.06689412,1290.094891
10.6700,77.19712974,70.85232717,1289.86038
10.6750,77.45667385,70.63723929,1289.62405
10.6800,77.72001482,70.42092295,1289.385829
10.6850,77.98794926,70.20436721,1289.145717
10.6900,78.26067416,69.98821216,1288.903939
10.6950,78.53905178,69.77236932,1288.659973
10.7000,78.82311483,69.55681458,1288.413843
10.7050,79.11174735,69.34094173,1288.165846
10.7100,79.40486593,69.12463309,1287.916041
10.7150,79.70265094,68.90727485,1287.664046
10.7200,80.00403022,68.68857907,1287.410349
10.7250,80.3094306,68.46888754,1287.15486
10.7300,80.61832847,68.24660099,1286.897153
10.7350,80.93002472,68.02296193,1286.638159
10.7400,81.24422608,67.79747324,1286.377823
10.7450,81.56099105,67.56972817,1286.115927
10.7500,81.88040795,67.34023767,1285.852731
10.7550,82.20175316,67.10973819,1285.588936
10.7600,82.52602008,66.87677071,1285.323416
10.7650,82.85254011,66.64268,1285.057116
10.7700,83.18114649,66.40732792,1284.790072
10.7750,83.51265103,66.17032727,1284.521774
10.7800,83.84553319,65.93149395,1284.252896
10.7850,84.18041112,65.69192484,1283.983603
10.7900,84.51622157,65.4518542,1283.714543
10.7950,84.85356538,65.20935448,1283.444603
10.8000,85.19128418,64.96449715,1283.174383
10.8050,85.52923239,64.71768167,1282.904096
10.8100,85.86660229,64.46901028,1282.634189
10.8150,86.20346382,64.21868048,1282.3647
10.8200,86.54022738,63.96691819,1282.095507
10.8250,86.87685615,63.71423551,1281.826841
10.8300,87.21346237,63.46002643,1281.558398
10.8350,87.54922795,63.20518447,1281.290941
10.8400,87.88421302,62.94880896,1281.024075
10.8450,88.21934596,62.69044275,1280.757154
10.8500,88.554937,62.43090153,1280.490413
10.8550,88.89039392,62.16892862,1280.223612
10.8600,89.22445704,61.90495864,1279.957604
10.8650,89.55701417,61.63869282,1279.692272
10.8700,89.88594874,61.37016175,1279.428641
10.8750,90.21288856,61.10046146,1279.166346
10.8800,90.53714281,60.829878,1278.905801
10.8850,90.86044829,60.55944636,1278.646606
10.8900,91.1821489,60.28915072,1278.38899
10.8950,91.50226423,60.01960493,1278.133243
10.9000,91.82014205,59.74992225,1277.879328
10.9050,92.13682832,59.4811638,1277.627187
10.9100,92.4522209,59.21350317,1277.376923
10.9150,92.76675438,58.94696106,1277.128344
10.9200,93.07963774,58.68044643,1276.881391
10.9250,93.39083516,58.41482332,1276.636443
10.9300,93.70072735,58.15013262,1276.393346
10.9350,94.00948794,57.88728685,1276.152331
10.9400,94.31719342,57.62665078,1275.913519
10.9450,94.62512412,57.367941,1275.676197
10.9500,94.93320658,57.11114424,1275.440336
10.9550,95.2423577,56.8559019,1275.205387
10.9600,95.55178716,56.6030445,1274.972042
10.9650,95.86206973,56.35041804,1274.739213
10.9700,96.17305565,56.09867863,1274.507224
10.9750,96.48607892,55.84760263,1274.275362
10.9800,96.80145919,55.5965623,1274.043241
10.9850,97.11853545,55.34412696,1273.810615
10.9900,97.4374359,55.09016407,1273.577396
10.9950,97.75903955,54.83405704,1273.342992
11.0000,98.08337873,54.57553475,1273.107299
11.0050,98.41107412,54.31532446,1272.870366
11.0100,98.7431773,54.05351959,1272.631762
11.0150,99.0788059,53.78919558,1272.391552
11.0200,99.41860037,53.52328163,1272.149838
11.0250,99.76154255,53.25491355,1271.906776
11.0300,100.1081057,52.98452734,1271.66237
11.0350,100.4589065,52.71138503,1271.416067
11.0400,100.8143573,52.43600087,1271.167946
11.0450,101.1742833,52.15842578,1270.91815
11.0500,101.5380988,51.87811738,1270.66671
11.0550,101.906485,51.59616191,1270.413792
11.0600,102.2787153,51.31172994,1270.15943
11.0650,102.6560038,51.02505949,1269.903226
11.0700,103.0382246,50.73680869,1269.64553
11.0750,103.4253274,50.44672122,1269.38628
11.0800,103.817843,50.15537896,1269.125517
11.0850,104.2147257,49.86175174,1268.863349
11.0900,104.6180688,49.5665142,1268.59916
11.0950,105.0273916,49.27144485,1268.333818
11.1000,105.4431184,48.97666592,1268.067221
11.1050,105.8652094,48.68226758,1267.799468
11.1100,106.2944249,48.3885817,1267.530396
11.1150,106.7302397,48.09554814,1267.260271
11.1200,107.1725009,47.80249202,1266.988944
11.1250,107.6214995,47.50962128,1266.71642
11.1300,108.0775334,47.21663003,1266.442463
11.1350,108.5411695,46.92417313,1266.167118
11.1400,109.0118382,46.6326824,1265.890818
11.1450,109.4888857,46.34208475,1265.613844
11.1500,109.9722591,46.05332419,1265.336549
11.1550,110.4623711,45.76633188,1265.058795
11.1600,110.9612354,45.48148912,1264.779918
11.1650,111.4687869,45.19970541,1264.500341
11.1700,111.9871921,44.92119665,1264.219342
11.1750,112.5153673,44.64584687,1263.937405
11.1800,113.0545449,44.3731532,1263.65397
11.1850,113.6035283,44.10269555,1263.369385
11.1900,114.1643303,43.83472817,1263.083107
11.1950,114.7377956,43.56809173,1262.794459
11.2000,115.3259587,43.30552788,1262.503678
11.2050,115.928688,43.046975,1262.210856
11.2100,116.5467395,42.79123997,1261.915381
11.2150,117.1805179,42.53746528,1261.616917
11.2200,117.8303025,42.28579116,1261.315477
11.2250,118.4973214,42.03541362,1261.010428
11.2300,119.1810263,41.78512682,1260.701669
11.2350,119.8799046,41.53387917,1260.38951
11.2400,120.5938263,41.28013673,1260.073583
11.2450,121.3215659,41.02303828,1259.754149
11.2500,122.0617324,40.7610541,1259.431303
11.2550,122.8130103,40.4932671,1259.10526
11.2600,123.575041,40.21805872,1258.77573
11.2650,124.3470434,39.9347902,1258.442847
11.2700,125.1266035,39.64219411,1258.107115
11.2750,125.9120133,39.33839316,1257.768575
11.2800,126.7021827,39.02367614,1257.427762
11.2850,127.4962493,38.69887077,1257.085291
11.2900,128.2932699,38.36252103,1256.741047
11.2950,129.0917771,38.0154359,1256.395832
11.3000,129.8899035,37.65765334,1256.050319
11.3050,130.685401,37.28900577,1255.705203
11.3100,131.476714,36.90931194,1255.360955
11.3150,132.2624051,36.51968206,1255.01839
11.3200,133.0427604,36.12103289,1254.677651
11.3250,133.8185029,35.71479976,1254.338955
11.3300,134.588567,35.30217067,1254.002917
11.3350,135.3529104,34.88552528,1253.67025
11.3400,136.1111328,34.46646821,1253.341521
11.3450,136.8636714,34.04550852,1253.016686
11.3500,137.6122573,33.62353643,1252.695467
11.3550,138.3573153,33.20136682,1252.377926
11.3600,139.0996713,32.78094429,1252.064368
11.3650,139.8382923,32.36257627,1251.755159
11.3700,140.5730642,31.94603756,1251.450173
11.3750,141.3017148,31.53217122,1251.150246
11.3800,142.0239982,31.12179515,1250.855589
11.3850,142.7402979,30.71643988,1250.566456
11.3900,143.4474889,30.31609201,1250.28362
11.3950,144.1447163,29.91939917,1250.006868
11.4000,144.8302506,29.52708804,1249.736802
11.4050,145.5043428,29.13922064,1249.473272
11.4100,146.1663668,28.75687563,1249.216636
11.4150,146.8175988,28.38095518,1248.966705
11.4200,147.4570651,28.01154859,1248.723644
11.4250,148.0847573,27.65181111,1248.488235
11.4300,148.7007786,27.30143927,1248.260248
11.4350,149.3050899,26.96094534,1248.039749
11.4400,149.8980859,26.63153053,1247.826867
11.4450,150.4801006,26.31461781,1247.62178
11.4500,151.0519488,26.00957256,1247.424037
11.4550,151.6142125,25.71785594,1247.233797
11.4600,152.1675695,25.43946425,1247.050811
11.4650,152.7122597,25.17450721,1246.874939
11.4700,153.2479635,24.92319646,1246.706247
11.4750,153.7768121,24.68436932,1246.543826
11.4800,154.2989296,24.45890446,1246.387777
11.4850,154.815841,24.2455781,1246.237398
11.4900,155.3274392,24.04297128,1246.092265
11.4950,155.8342542,23.85119938,1245.952221
11.5000,156.3351455,23.66698161,1245.816611
11.5050,156.8295884,23.48833637,1245.685021
11.5100,157.3166523,23.31297579,1245.557026
11.5150,157.7951316,23.14030349,1245.432723
11.5200,158.2617091,22.9673232,1245.312061
11.5250,158.7158587,22.79273377,1245.194804
11.5300,159.1576552,22.61690957,1245.080979
11.5350,159.585746,22.4386556,1244.970555
11.5400,159.9995434,22.25600373,1244.863105
11.5450,160.3973196,22.0692954,1244.759052
11.5500,160.7803491,21.87745818,1244.657808
11.5550,161.1489661,21.68115211,1244.559448
11.5600,161.5030593,21.47958548,1244.463736
11.5650,161.8437844,21.27256629,1244.370313
11.5700,162.17243,21.05974065,1244.278762
11.5750,162.489456,20.84132235,1244.188998
11.5800,162.795241,20.61598662,1244.100531
11.5850,163.0910585,20.38181439,1244.01259
11.5900,163.3745396,20.13821089,1243.925463
11.5950,163.6457359,19.88514882,1243.83906
11.6000,163.9051058,19.62213929,1243.753093
11.6050,164.1545519,19.35005601,1243.667342
11.6100,164.3949846,19.07018375,1243.581892
11.6150,164.629679,18.78340899,1243.496269
11.6200,164.8591104,18.49023715,1243.410551
11.6250,165.0837253,18.19016374,1243.324519
11.6300,165.3063473,17.88488318,1243.238088
11.6350,165.5276053,17.57285057,1243.150738
11.6400,165.7491926,17.25423551,1243.062162
11.6450,165.9704123,16.93011236,1242.972754
11.6500,166.1904616,16.60118982,1242.882827
11.6550,166.409333,16.26658564,1242.79215
11.6600,166.6263637,15.92584252,1242.700745
11.6650,166.8414116,15.57980925,1242.608804
11.6700,167.0551319,15.22840603,1242.516211
11.6750,167.2698918,14.8732506,1242.422848
11.6800,167.4856107,14.51303159,1242.328446
11.6850,167.7022177,14.14878754,1242.233279
11.6900,167.92071,13.77957299,1242.136948
11.6950,168.1417084,13.40736597,1242.039814
11.7000,168.3673283,13.03168288,1241.941355
11.7050,168.5972377,12.65435885,1241.842106
11.7100,168.8314992,12.27480407,1241.741954
11.7150,169.069083,11.89284369,1241.641102
11.7200,169.3118014,11.50919049,1241.539405
11.7250,169.5580189,11.12232983,1241.436851
11.7300,169.8080799,10.73362856,1241.333735
11.7350,170.0622059,10.34407246,1241.230261
11.7400,170.3207486,9.953136903,1241.126252
11.7450,170.5842111,9.561879637,1241.021881
11.7500,170.8514408,9.171728961,1240.91768
11.7550,171.1229181,8.782106719,1240.813445
11.7600,171.3992265,8.394911444,1240.709517
11.7650,171.6803457,8.009788362,1240.605815
11.7700,171.9674165,7.627290273,1240.502275
11.7750,172.2593372,7.249166131,1240.399422
11.7800,172.5552259,6.873988791,1240.297137
11.7850,172.853901,6.502715498,1240.195784
11.7900,173.1550463,6.135214502,1240.095385
11.7950,173.4571934,5.769502401,1239.995776
11.8000,173.7595566,5.406424063,1239.897229
11.8050,174.0623715,5.045066102,1239.799496
11.8100,174.3629837,4.685701651,1239.703055
11.8150,174.6605992,4.327120769,1239.607744
11.8200,174.955447,3.969139166,1239.513471
11.8250,175.245546,3.612099076,1239.420591
11.8300,175.529012,3.254452349,1239.32911
11.8350,175.8062292,2.895933517,1239.238887
11.8400,176.0758045,2.537741852,1239.150406
11.8450,176.3390847,2.179672769,1239.063394
11.8500,176.5970068,1.822144962,1238.977783
11.8550,176.8489653,1.464826207,1238.893618
11.8600,177.0945154,1.108958014,1238.811187
11.8650,177.3320497,0.7550776238,1238.73086
11.8700,177.5613551,0.4038475006,1238.652771
11.8750,177.7826607,0.05705087605,1238.577228
11.8800,177.9963905,-0.284595654,1238.504279
11.8850,178.2016375,-0.6189718383,1238.434431
11.8900,178.4001469,-0.9453233103,1238.367518
11.8950,178.5917301,-1.263871246,1238.303507
11.9000,178.777081,-1.573923497,1238.242387
11.9050,178.9560705,-1.875968361,1238.184039
11.9100,179.1274955,-2.171560014,1238.12832
11.9150,179.2911302,-2.461176307,1238.075136
11.9200,179.4461397,-2.746007979,1238.024321
11.9250,179.5930202,-3.025318437,1237.975879
11.9300,179.7301895,-3.300992906,1237.929662
11.9350,179.8575147,-3.57322577,1237.885635
11.9400,179.9742748,-3.84242081,1237.843819
11.9450,180.0821404,-4.109207768,1237.80384
11.9500,180.1826983,-4.373677895,1237.765447
11.9550,180.2765836,-4.634899896,1237.72871
11.9600,180.3643727,-4.891960495,1237.69369
11.9650,180.4482713,-5.144118353,1237.660194
11.9700,180.5291908,-5.390102399,1237.628285
11.9750,180.6088683,-5.630121324,1237.597681
11.9800,180.6882547,-5.862735905,1237.568478
11.9850,180.7693688,-6.089289851,1237.540134
11.9900,180.8534452,-6.308354329,1237.512684
11.9950,180.9414145,-6.520033878,1237.485955
12.0000,181.0336685,-6.723804956,1237.459972
12.0050,181.1306548,-6.920415982,1237.434506
12.0100,181.2321543,-7.110142933,1237.409505
12.0150,181.3387798,-7.292892536,1237.384874
12.0200,181.4484219,-7.467905946,1237.361027
12.0250,181.5623276,-7.635593108,1237.337708
12.0300,181.6786539,-7.795484234,1237.315257
12.0350,181.7973688,-7.947840264,1237.293614
12.0400,181.9165201,-8.092675118,1237.27307
12.0450,182.0351925,-8.230314735,1237.253684
12.0500,182.1527072,-8.36215999,1237.235323
12.0550,182.268313,-8.487505398,1237.218214
12.0600,182.3801957,-8.608614944,1237.202236
12.0650,182.4885118,-8.725569211,1237.187359
12.0700,182.5910413,-8.839493779,1237.173701
12.0750,182.6873582,-8.951928693,1237.161089
12.0800,182.7771787,-9.063327439,1237.149449
12.0850,182.8599164,-9.174673287,1237.138725
12.0900,182.9350377,-9.286011435,1237.128955
12.0950,183.0026514,-9.396423058,1237.120243
12.1000,183.0615779,-9.507617097,1237.112492
12.1050,183.1105412,-9.619916776,1237.10582
12.1100,183.1499053,-9.732993372,1237.100242
12.1150,183.1798896,-9.846262987,1237.095817
12.1200,183.2014949,-9.959070622,1237.092513
12.1250,183.2142489,-10.07191698,1237.09032
12.1300,183.2189486,-10.18418485,1237.08922
12.1350,183.2155738,-10.29625943,1237.089164
12.1400,183.2035369,-10.40808194,1237.090232
12.1450,183.1818329,-10.51996492,1237.092516
12.1500,183.1485696,-10.6313348,1237.096359
12.1550,183.1038213,-10.74245248,1237.101704
12.1600,183.0485133,-10.85397786,1237.108333
12.1650,182.9819272,-10.96666503,1237.116238
12.1700,182.9043103,-11.07986057,1237.125472
12.1750,182.8149091,-11.19632773,1237.135721
12.1800,182.7134387,-11.31600869,1237.147057
12.1850,182.5997305,-11.44070155,1237.159237
12.1900,182.4748782,-11.56973335,1237.172239
12.1950,182.3393782,-11.70493035,1237.185731
12.2000,182.1944259,-11.84689132,1237.199483
12.2050,182.0407413,-11.99567072,1237.213409
12.2100,181.8798431,-12.15007201,1237.22749
12.2150,181.7132951,-12.31026976,1237.2415
12.2200,181.5448043,-12.47512195,1237.255099
12.2250,181.3753972,-12.64389218,1237.268239
12.2300,181.2088529,-12.81606514,1237.280454
12.2350,181.0478604,-12.98910738,1237.291716
12.2400,180.8951424,-13.1627317,1237.301661
12.2450,180.7527184,-13.33480195,1237.310293
12.2500,180.6227222,-13.5039761,1237.317468
12.2550,180.5063665,-13.66959173,1237.32308
12.2600,180.4060506,-13.82997272,1237.327006
12.2650,180.3213038,-13.98468555,1237.329372
12.2700,180.2523482,-14.13347986,1237.330154
12.2750,180.1985755,-14.27732703,1237.329279
12.2800,180.1601455,-14.41445586,1237.326981
12.2850,180.136176,-14.5438498,1237.323526
12.2900,180.1249764,-14.66574147,1237.31914
12.2950,180.1251811,-14.78094866,1237.313891
12.3000,180.1344951,-14.88969722,1237.308084
12.3050,180.151204,-14.99218711,1237.301957
12.3100,180.1738172,-15.0887767,1237.295684
12.3150,180.1989248,-15.18141101,1237.289491
12.3200,180.2254574,-15.26994702,1237.283564
12.3250,180.2516411,-15.35582191,1237.277946
12.3300,180.2751839,-15.43973777,1237.272889
12.3350,180.2939783,-15.5223507,1237.268598
12.3400,180.3076094,-15.60412371,1237.265065
12.3450,180.3141228,-15.68630078,1237.262397
12.3500,180.3123811,-15.76799446,1237.260897
12.3550,180.3024242,-15.84961278,1237.260501
12.3600,180.2830339,-15.93049646,1237.261475
12.3650,180.2549763,-16.00987078,1237.263813
12.3700,180.2204062,-16.08825055,1237.267125
12.3750,180.1793681,-16.16524149,1237.271457
12.3800,180.1332835,-16.23944107,1237.276828
12.3850,180.0827533,-16.31038441,1237.283192
12.3900,180.0280863,-16.37778119,1237.290543
12.3950,179.9694506,-16.44177699,1237.298852
12.4000,179.9079625,-16.50116641,1237.308114
12.4050,179.8441232,-16.55475048,1237.31841
12.4100,179.7778692,-16.60247088,1237.329758
12.4150,179.7079939,-16.64521586,1237.34222
12.4200,179.6339494,-16.68298422,1237.355869
12.4250,179.5550833,-16.71624386,1237.370755
12.4300,179.4709566,-16.74496497,1237.386938
12.4350,179.3806722,-16.76921325,1237.404546
12.4400,179.2852936,-16.79001517,1237.423282
12.4450,179.1849721,-16.80757014,1237.443104
12.4500,179.0806234,-16.82298453,1237.463729
12.4550,178.9726809,-16.83699887,1237.485001
12.4600,178.8603813,-16.84954409,1237.507045
12.4650,178.7460858,-16.86143067,1237.529395
12.4700,178.6294804,-16.8737026,1237.551971
12.4750,178.5127203,-16.88594084,1237.574501
12.4800,178.3967302,-16.89825716,1237.596832
12.4850,178.2823828,-16.91036638,1237.61888
12.4900,178.1704316,-16.92393141,1237.640288
12.4950,178.0611864,-16.93803495,1237.661146
12.5000,177.9559533,-16.95331549,1237.68115
12.5050,177.8543404,-16.97063215,1237.700237
12.5100,177.7577589,-16.99029608,1237.718165
12.5150,177.6648667,-17.01243329,1237.735106
12.5200,177.5747121,-17.03748599,1237.751131
12.5250,177.4868255,-17.06522129,1237.766371
12.5300,177.4008704,-17.09430989,1237.781042
12.5350,177.3150563,-17.12524077,1237.795372
12.5400,177.228542,-17.15703224,1237.809613
12.5450,177.1404821,-17.18909004,1237.823978
12.5500,177.0491574,-17.22142297,1237.838754
12.5550,176.9540192,-17.25405142,1237.854018
12.5600,176.8539626,-17.28701374,1237.869951
12.5650,176.7473484,-17.32006341,1237.88683
12.5700,176.6331592,-17.35291693,1237.904868
12.5750,176.5126154,-17.3828697,1237.92426
12.5800,176.3867487,-17.41025879,1237.9448
12.5850,176.2555497,-17.43411783,1237.966619
12.5900,176.1202136,-17.45331717,1237.989701
12.5950,175.9805441,-17.46790917,1238.014076
12.6000,175.8368891,-17.4773526,1238.03978
12.6050,175.6896013,-17.48367739,1238.06646
12.6100,175.5386686,-17.48740358,1238.09406
12.6150,175.3865443,-17.48800678,1238.122258
12.6200,175.2338431,-17.48604309,1238.150868
12.6250,175.082884,-17.48201987,1238.179469
12.6300,174.9370609,-17.475999,1238.207486
12.6350,174.7976807,-17.46905199,1238.234569
12.6400,174.6655171,-17.46119694,1238.260576
12.6450,174.5427217,-17.45143135,1238.285303
12.6500,174.4300852,-17.44162205,1238.308346
12.6550,174.3269667,-17.4301683,1238.330015
12.6600,174.233761,-17.41627604,1238.350353
12.6650,174.1496873,-17.39911794,1238.369594
12.6700,174.0740746,-17.37674939,1238.388115
12.6750,174.007559,-17.3471312,1238.406095
12.6800,173.9500806,-17.31121514,1238.4234
12.6850,173.9014078,-17.26644767,1238.44042
12.6900,173.860408,-17.21268778,1238.457372
12.6950,173.8255986,-17.14988414,1238.474504
12.7000,173.7964216,-17.07839577,1238.491865
12.7050,173.7724246,-16.99818996,1238.509542
12.7100,173.7536163,-16.91025426,1238.527403
12.7150,173.7409807,-16.8142474,1238.545337
12.7200,173.7351767,-16.70990917,1238.563285
12.7250,173.7375425,-16.59774061,1238.580957
12.7300,172.7423046,-15.35743502,1239.167585
12.7350,172.9666476,-15.3428056,1239.101278
12.7400,173.1931619,-15.32375244,1239.036265
12.7450,173.4230329,-15.30005629,1238.972398
12.7500,173.6559746,-15.27171813,1238.909744
12.7550,173.8931092,-15.23924067,1238.848011
12.7600,174.1353635,-15.20329893,1238.78708
12.7650,174.3832194,-15.16354521,1238.726785
12.7700,174.6373358,-15.12096079,1238.66702
12.7750,174.8971118,-15.07567234,1238.607859
12.7800,175.1623345,-15.02837424,1238.549163
12.7850,175.4330941,-14.97929475,1238.490938
12.7900,175.7088142,-14.92920584,1238.433071
12.7950,175.9896508,-14.87773565,1238.375615
12.8000,176.2739345,-14.82483407,1238.318668
12.8050,176.5610071,-14.77082576,1238.26232
12.8100,176.8502647,-14.71598963,1238.206493
12.8150,177.1415885,-14.65996523,1238.151344
12.8200,177.4333191,-14.60291697,1238.096919
12.8250,176.2027631,-13.58425653,1238.658478
12.8300,176.3957315,-13.43585452,1238.651761
12.8350,176.5861288,-13.29101568,1238.645012
12.8400,176.7737144,-13.15010562,1238.63822
12.8450,176.9561305,-13.01496407,1238.631458
12.8500,177.134934,-12.88433793,1238.624649
12.8550,177.3085526,-12.75877177,1238.617944
12.8600,177.4775075,-12.63782552,1238.611318
12.8650,177.6442968,-12.52232719,1238.604259
12.8700,177.8101652,-12.41211707,1238.596588
12.8750,177.9736935,-12.30790152,1238.588406
12.8800,178.1328345,-12.20981644,1238.579992
12.8850,178.2872707,-12.11946151,1238.571143
12.8900,178.4364791,-12.03707045,1238.56187
12.8950,178.5809426,-11.96238612,1238.552145
12.9000,178.7207014,-11.89564007,1238.541912
12.9050,178.8562111,-11.83566986,1238.53128
12.9100,178.9870155,-11.78177367,1238.520413
12.9150,179.1109817,-11.73330008,1238.509716
12.9200,179.2277091,-11.69003758,1238.499281
12.9250,179.3344171,-11.65126456,1238.489609
12.9300,179.4281476,-11.61770222,1238.481012
12.9350,179.5074947,-11.58756963,1238.473961
12.9400,179.5708695,-11.56149752,1238.468579
12.9450,179.6166729,-11.53967584,1238.465062
12.9500,179.6439732,-11.52076315,1238.46375
12.9550,179.6526817,-11.50490367,1238.464624
12.9600,179.6432486,-11.49228654,1238.467592
12.9650,179.6140801,-11.4835343,1238.472789
12.9700,179.5646689,-11.47890572,1238.480255
12.9750,179.4939155,-11.47917504,1238.490024
12.9800,179.4004516,-11.48267953,1238.502575
12.9850,179.284602,-11.49183497,1238.517515
12.9900,179.1461497,-11.50664174,1238.534895
12.9950,178.9866636,-11.52617877,1238.554651
13.0000,178.8068143,-11.55009565,1238.576779
13.0050,178.6074521,-11.57853832,1238.601174
13.0100,178.389517,-11.61069715,1238.627847
13.0150,178.1542747,-11.64632784,1238.656697
13.0200,177.9009706,-11.68606036,1238.687772
13.0250,177.6319697,-11.72917231,1238.720881
13.0300,177.3478554,-11.77731885,1238.755714
13.0350,177.0495828,-11.83031557,1238.79221
13.0400,176.7384409,-11.88849707,1238.830145
13.0450,176.415728,-11.95357241,1238.869109
13.0500,176.0828548,-12.02501125,1238.909005
13.0550,175.7416558,-12.10323779,1238.949512
13.0600,175.3921177,-12.18727883,1238.990818
13.0650,175.0347626,-12.27822296,1239.032705
13.0700,174.6719299,-12.37524483,1239.07496
13.0750,174.3067698,-12.47904541,1239.116998
13.0800,173.9427582,-12.58895403,1239.158363
13.0850,173.5832146,-12.7055463,1239.198432
13.0900,173.2314301,-12.82745193,1239.236863
13.0950,172.8891138,-12.95515933,1239.273277
13.1000,172.5585562,-13.08851711,1239.307291
13.1050,172.2414775,-13.22780698,1239.338556
13.1100,171.9381207,-13.37352417,1239.366912
13.1150,171.6483432,-13.52566007,1239.392359
13.1200,171.3742624,-13.68540095,1239.41433
13.1250,171.1161294,-13.85347658,1239.432643
13.1300,170.873877,-14.02889874,1239.447429
13.1350,170.6472993,-14.21201713,1239.458659
13.1400,170.4355675,-14.40262679,1239.46649
13.1450,170.2392333,-14.59832445,1239.471152
13.1500,170.0569533,-14.79968015,1239.472793
13.1550,169.8881369,-15.00471334,1239.471787
13.1600,169.7307032,-15.21182988,1239.468725
13.1650,169.5824815,-15.41989889,1239.464139
13.1700,169.4409022,-15.62674888,1239.4588
13.1750,169.3024529,-15.83119843,1239.453479
13.1800,169.1663859,-16.03207312,1239.448475
13.1850,169.0299632,-16.22816199,1239.444437
13.1900,168.8905296,-16.41734848,1239.442128
13.1950,168.7456861,-16.59853349,1239.442114
13.2000,168.5943445,-16.77086367,1239.444697
13.2050,168.4333531,-16.93457394,1239.450398
13.2100,168.2630147,-17.08875817,1239.459286
13.2150,168.0821351,-17.23368044,1239.471526
13.2200,167.8898915,-17.37050502,1239.487114
13.2250,167.6874021,-17.4995598,1239.505786
13.2300,167.4743326,-17.62151409,1239.527522
13.2350,167.2523424,-17.73872278,1239.551684
13.2400,167.0224406,-17.85129531,1239.578077
13.2450,166.7845818,-17.96041536,1239.606537
13.2500,166.5407598,-18.06682275,1239.636602
13.2550,166.2911464,-18.17226063,1239.667998
13.2600,166.0371172,-18.27683942,1239.700453
13.2650,165.7811059,-18.3814578,1239.733395
13.2700,165.5249218,-18.48636627,1239.766437
13.2750,165.2695762,-18.59214064,1239.7993
13.2800,165.0173909,-18.70054368,1239.8313
13.2850,164.7691956,-18.81078616,1239.862363
13.2900,164.5259655,-18.92182612,1239.892441
13.2950,164.2877855,-19.03363225,1239.921501
13.3000,164.0550449,-19.14707052,1239.949334
13.3050,163.827772,-19.26203683,1239.975936
13.3100,163.6061321,-19.37845698,1240.001273
13.3150,163.3895942,-19.49676963,1240.025387
13.3200,163.1790722,-19.61754498,1240.048015
13.3250,162.9731669,-19.74140595,1240.069332
13.3300,162.7714754,-19.86761365,1240.089512
13.3350,162.5741379,-19.9969482,1240.108407
13.3400,162.3806767,-20.13015453,1240.126018
13.3450,162.1917883,-20.26615012,1240.142332
13.3500,162.0090256,-20.40722831,1240.15673
13.3550,161.8327231,-20.55224478,1240.169281
13.3600,161.6665848,-20.70332104,1240.178959
13.3650,161.5126267,-20.86154062,1240.1852
13.3700,161.3716486,-21.02760915,1240.187748
13.3750,161.2451087,-21.2015401,1240.18628
13.3800,161.1342023,-21.38391579,1240.180467
13.3850,161.0409218,-21.57384333,1240.169999
13.3900,160.96674,-21.77279254,1240.154385
13.3950,160.9132262,-21.9797857,1240.133419
13.4000,160.8840943,-22.19667268,1240.106126
13.4050,160.8816256,-22.42258833,1240.072133
13.4100,160.9078617,-22.65805932,1240.030976
13.4150,160.9645033,-22.90225616,1239.98242
13.4200,161.0513554,-23.15553794,1239.926489
13.4250,161.1701636,-23.41666683,1239.863009
13.4300,161.3202936,-23.68505187,1239.792227
13.4350,161.5036081,-23.96093131,1239.713787
13.4400,161.7197794,-24.24320448,1239.627939
13.4450,161.9699399,-24.53257218,1239.534439
13.4500,162.2528196,-24.82831442,1239.433713
13.4550,162.5698298,-25.13044757,1239.325558
13.4600,162.9218126,-25.43848445,1239.209959
13.4650,163.3083425,-25.75237653,1239.087119
13.4700,163.731824,-26.0723546,1238.95666
13.4750,164.1932294,-26.39751694,1238.818639
13.4800,164.6927148,-26.72837349,1238.673123
13.4850,165.2301631,-27.06283736,1238.520549
13.4900,165.8067223,-27.40210417,1238.360757
13.4950,166.42406,-27.7448945,1238.193774
13.5000,167.0822601,-28.09041379,1238.019904
13.5050,167.7833437,-28.43581862,1237.839323
13.5100,168.5254814,-28.78095703,1237.652639
13.5150,169.310082,-29.1235715,1237.460102
13.5200,170.1364651,-29.46249955,1237.262233
13.5250,171.0015108,-29.79638102,1237.060004
13.5300,171.9033399,-30.12324695,1236.854221
13.5350,172.8366348,-30.44205358,1236.646151
13.5400,173.7967978,-30.75119035,1236.436967
13.5450,174.7797969,-31.05009425,1236.227586
13.5500,175.7790478,-31.33794589,1236.019295
13.5550,176.7886595,-31.61422678,1235.81321
13.5600,177.8006242,-31.87912577,1235.6106
13.5650,178.8075082,-32.13227469,1235.412616
13.5700,179.8020548,-32.37379014,1235.22025
13.5750,180.776533,-32.60384032,1235.034507
13.5800,181.7238419,-32.82059368,1234.85636
13.5850,182.6370423,-33.02420526,1234.686524
13.5900,183.5106721,-33.21529979,1234.525386
13.5950,184.3408234,-33.39391881,1234.373161
13.6000,185.1244069,-33.56006995,1234.229915
13.6050,185.856233,-33.71292485,1234.096075
13.6100,186.5343514,-33.85237895,1233.971568
13.6150,187.1558613,-33.97837743,1233.856422
13.6200,187.7196212,-34.08963252,1233.750592
13.6250,188.2254794,-34.18619578,1233.653804
13.6300,188.6745725,-34.2668998,1233.565772
13.6350,189.0687421,-34.32991123,1233.486202
13.6400,189.4101148,-34.37328802,1233.414831
13.6450,189.7017357,-34.39685366,1233.351143
13.6500,189.9471618,-34.39793414,1233.294827
13.6550,190.1499916,-34.37635904,1233.245384
13.6600,190.3128901,-34.33107027,1233.202517
13.6650,190.4396295,-34.25959168,1233.165933
13.6700,190.5349177,-34.1609575,1233.135144
13.6750,190.6009846,-34.03569284,1233.109844
13.6800,190.6402652,-33.8844601,1233.089711
13.6850,190.6541935,-33.70829431,1233.074533
13.6900,190.6453236,-33.5064,1233.064106
13.6950,190.6165281,-33.28112884,1233.057932
13.7000,190.5694255,-33.03129014,1233.055974
13.7050,190.505285,-32.75829085,1233.058038
13.7100,190.4270148,-32.46160358,1233.0639
13.7150,190.3372951,-32.14327317,1233.073135
13.7200,190.2395188,-31.80337631,1233.085427
13.7250,190.1358706,-31.44405617,1233.100412
13.7300,190.0283119,-31.06750668,1233.117731
13.7350,189.9191346,-30.67427272,1233.137153
13.7400,189.8100197,-30.26641425,1233.158331
13.7450,189.702234,-29.84542635,1233.181061
13.7500,189.5972141,-29.41366428,1233.204985
13.7550,189.4943873,-28.97204124,1233.230153
13.7600,189.3941413,-28.52331133,1233.256282
13.7650,189.2982857,-28.06707339,1233.283228
13.7700,189.2058853,-27.60447879,1233.311018
13.7750,189.1188551,-27.13548527,1233.339463
13.7800,189.0371207,-26.66013111,1233.368577
