type,name,time_units,begin_time,frequency,count,units
signal_3d,"Noraxon MyoMotion-Trajectories-Radial styloid process RT","s",0.0000,200,5068,"mm"

time,x,y,z
0.0000,150.4918319,82.66364378,994.7311078
0.0050,150.5300971,82.68155154,994.726952
0.0100,150.568359,82.69946473,994.7228023
0.0150,150.6066177,82.71738333,994.7186587
0.0200,150.6559519,82.7355562,994.7129815
0.0250,150.7177011,82.75367294,994.7055703
0.0300,150.7931816,82.77142603,994.696235
0.0350,150.8836486,82.78853719,994.6848059
0.0400,150.9902514,82.80477817,994.6711454
0.0450,151.1139906,82.8199814,994.6551545
0.0500,151.2556866,82.83404778,994.6367778
0.0550,151.4159575,82.84695132,994.6160055
0.0600,151.5951962,82.85873031,994.5928729
0.0650,151.7935453,82.86947223,994.5674593
0.0700,152.0108743,82.87930934,994.5398878
0.0750,152.2467638,82.88842126,994.5103269
0.0800,152.5004921,82.89703437,994.4789909
0.0850,152.7710261,82.90542093,994.4461389
0.0900,153.0570229,82.91389901,994.4120721
0.0950,153.3568448,82.92282558,994.3771279
0.1000,153.6685789,82.93258615,994.3416732
0.1050,153.9900633,82.94359087,994.3060992
0.1100,154.3189177,82.95627211,994.2708154
0.1150,154.6525743,82.97107379,994.2362424
0.1200,154.9883122,82.98843367,994.2028021
0.1250,155.3232998,83.00876406,994.1709064
0.1300,155.654644,83.03243366,994.1409465
0.1350,155.9794437,83.05974854,994.1132818
0.1400,156.2948475,83.09093067,994.0882285
0.1450,156.5981144,83.12609839,994.0660485
0.1500,156.8866716,83.16525577,994.0469408
0.1550,157.2466037,83.21653276,994.0234241
0.1600,157.5825835,83.26905665,994.0031253
0.1650,157.892001,83.32378482,993.9867372
0.1700,158.1736127,83.37888905,993.9737158
0.1750,158.4267351,83.43454598,993.9640564
0.1800,158.6502354,83.48939774,993.9574715
0.1850,158.8445838,83.54268621,993.95353
0.1900,159.0081572,83.59488359,993.9523181
0.1950,159.140364,83.64444663,993.9537873
0.2000,159.2417545,83.68940802,993.9571896
0.2050,159.3118047,83.72954891,993.9624933
0.2100,159.3521733,83.76526219,993.9697018
0.2150,159.3629917,83.7941869,993.9781344
0.2200,159.3443847,83.81500031,993.9875559
0.2250,159.298747,83.82765714,993.9977394
0.2300,159.2264538,83.83189046,994.0085939
0.2350,159.1289636,83.82674818,994.019842
0.2400,159.0064695,83.81300983,994.0315968
0.2450,158.8606114,83.79140326,994.0438367
0.2500,158.6929511,83.76095047,994.0562525
0.2550,158.5032965,83.72179736,994.0690871
0.2600,158.2963363,83.67623833,994.0821906
0.2650,158.0729324,83.62410741,994.0956237
0.2700,157.8346579,83.56628374,994.1094994
0.2750,157.5833148,83.50377179,994.1238629
0.2800,157.3212479,83.43673428,994.1385525
0.2850,157.0503473,83.36713569,994.1538577
0.2900,156.7719175,83.29596994,994.1699898
0.2950,156.4899808,83.22382688,994.1865037
0.3000,156.2068139,83.15087522,994.2031721
0.3050,155.9221228,83.0777498,994.2202393
0.3100,155.6400112,83.00621779,994.2375383
0.3150,155.3620884,82.93592572,994.2546934
0.3200,155.0913032,82.86694231,994.2714972
0.3250,154.8292508,82.80011858,994.2879903
0.3300,154.5767735,82.73422552,994.3038617
0.3350,154.3354287,82.67099412,994.3192669
0.3400,154.1071285,82.60842868,994.3333961
0.3450,153.8921279,82.54806043,994.3465906
0.3500,153.6926898,82.49043166,994.3585965
0.3550,153.5070584,82.43388493,994.3693084
0.3600,153.3359898,82.37837177,994.3787069
0.3650,153.1789635,82.32460658,994.3868781
0.3700,153.0364548,82.27220339,994.3937606
0.3750,152.9071121,82.22033895,994.3990698
0.3800,152.790437,82.16907709,994.4029889
0.3850,152.685712,82.11895765,994.4055505
0.3900,152.5908337,82.06996266,994.4071441
0.3950,152.5058327,82.01998934,994.4070355
0.4000,152.4286243,81.97057968,994.406068
0.4050,152.358817,81.92037597,994.4037303
0.4100,152.2961587,81.8690175,994.4000901
0.4150,152.2388248,81.81601751,994.3950829
0.4200,152.1867985,81.76212336,994.3889023
0.4250,152.139024,81.70677414,994.3817017
0.4300,152.0949206,81.64928488,994.373392
0.4350,152.0539171,81.59003401,994.3639847
0.4400,152.016435,81.52731113,994.3531152
0.4450,151.9815127,81.46100473,994.34099
0.4500,151.9491378,81.3917422,994.3277282
0.4550,151.9191376,81.31873637,994.3130742
0.4600,151.8924656,81.24052252,994.2968681
0.4650,151.8675189,81.15669004,994.2791684
0.4700,151.8443455,81.06899782,994.2603675
0.4750,151.8224501,80.9756204,994.2402748
0.4800,151.8018531,80.87771918,994.2190438
0.4850,151.7813395,80.77498517,994.1967129
0.4900,151.7625304,80.6677375,994.1733583
0.4950,151.7441562,80.55723674,994.1491901
0.5000,151.7253662,80.44378939,994.1245244
0.5050,151.7064272,80.32823955,994.0994436
0.5100,151.6874285,80.20957601,994.0736653
0.5150,151.6679285,80.08799793,994.0475264
0.5200,151.6490658,79.9640927,994.0207043
0.5250,151.6302092,79.83796011,993.9933019
0.5300,151.6136915,79.70991254,993.9650933
0.5350,151.5987518,79.58062732,993.9364127
0.5400,151.5863674,79.45052544,993.9072227
0.5450,151.5759971,79.31920702,993.8775452
0.5500,151.5695875,79.18673943,993.8472137
0.5550,151.5669155,79.055422,993.8165415
0.5600,151.5668562,78.92372587,993.7855497
0.5650,151.5690262,78.792252,993.7543228
0.5700,151.572881,78.66179329,993.7231329
0.5750,151.5799606,78.53340178,993.6920282
0.5800,151.5889009,78.40763991,993.6610598
0.5850,151.5998104,78.28387558,993.6302594
0.5900,151.6131796,78.16274789,993.5994394
0.5950,151.627367,78.04444267,993.5687458
0.6000,151.641754,77.93102836,993.5389254
0.6050,151.6574638,77.82195342,993.5093643
0.6100,151.6733576,77.71724106,993.4802278
0.6150,151.6895903,77.6175819,993.4516997
0.6200,151.7049372,77.52253089,993.4235787
0.6250,151.7200639,77.43273859,993.3959404
0.6300,151.734453,77.34740759,993.3685851
0.6350,151.7475585,77.26650552,993.3413457
0.6400,151.759048,77.19047345,993.3144764
0.6450,151.7696681,77.11857586,993.2876386
0.6500,151.7764531,77.04894308,993.2608046
0.6550,151.7804895,76.9829345,993.2339382
0.6600,151.781917,76.91940087,993.206951
0.6650,151.7789648,76.8580569,993.1798925
0.6700,151.771425,76.79836558,993.1529562
0.6750,151.7585973,76.73963536,993.1260632
0.6800,151.7398018,76.68115799,993.0992217
0.6850,151.7154497,76.62179936,993.0722612
0.6900,151.6850831,76.56076812,993.0451192
0.6950,151.6483731,76.49760154,993.0181115
0.7000,151.6040161,76.4313319,992.991076
0.7050,151.5516714,76.36315078,992.9645551
0.7100,151.4910331,76.29136627,992.9383314
0.7150,151.4222606,76.21615272,992.912448
0.7200,151.3446001,76.13580506,992.8867668
0.7250,151.2595174,76.05082634,992.861346
0.7300,151.165766,75.96159426,992.8363878
0.7350,151.0644367,75.86718634,992.8116793
0.7400,150.9542408,75.76769773,992.787526
0.7450,150.8375433,75.66362209,992.7637539
0.7500,150.7132788,75.55376904,992.7402494
0.7550,150.5820719,75.43893176,992.7172797
0.7600,150.4438126,75.3206543,992.695131
0.7650,150.3003632,75.19849329,992.6733082
0.7700,150.1520882,75.07237681,992.6518744
0.7750,149.9988805,74.94360853,992.6309557
0.7800,149.8411734,74.81231887,992.6105923
0.7850,149.6796698,74.6790451,992.5908606
0.7900,149.5140226,74.54329283,992.5715433
0.7950,149.3451873,74.40493928,992.5525234
0.8000,149.1742103,74.26437251,992.5337142
0.8050,149.0020055,74.12317496,992.5154013
0.8100,148.8282386,73.98183479,992.4975842
0.8150,148.6548921,73.84090326,992.4800344
0.8200,148.4804588,73.70054851,992.4631169
0.8250,148.3051872,73.56146499,992.4468176
0.8300,148.1280064,73.4239284,992.4315046
0.8350,147.9494072,73.28836472,992.4171414
0.8400,147.7700813,73.15387195,992.4034215
0.8450,147.5897612,73.02322396,992.3911013
0.8500,147.4079139,72.89520528,992.3798796
0.8550,147.2239005,72.77081114,992.3701164
0.8600,147.0372551,72.65002434,992.3618236
0.8650,146.8489171,72.53429859,992.355304
0.8700,146.6587343,72.42352741,992.3503564
0.8750,146.465226,72.31697011,992.3470007
0.8800,146.2685707,72.2165974,992.3457193
0.8850,146.0698236,72.12255607,992.3462833
0.8900,145.8674864,72.03498968,992.3489357
0.8950,145.662226,71.9543796,992.3539411
0.9000,145.4541007,71.87959986,992.3609072
0.9050,145.2437439,71.81084143,992.3697793
0.9100,145.0302671,71.74787158,992.3806926
0.9150,144.8139487,71.6909236,992.3934964
0.9200,144.5954894,71.64038217,992.4080825
0.9250,144.3755875,71.59634216,992.4243843
0.9300,144.1544451,71.55874798,992.4420767
0.9350,143.9330304,71.52740886,992.4613125
0.9400,143.7113524,71.50287775,992.4819934
0.9450,143.4912491,71.48510142,992.5038331
0.9500,143.2735855,71.47369057,992.5265225
0.9550,143.0571673,71.46830894,992.5504494
0.9600,142.8425126,71.46885984,992.5750387
0.9650,142.6307498,71.4752338,992.6003986
0.9700,142.4205424,71.48736367,992.6265618
0.9750,142.2107617,71.50498317,992.6538072
0.9800,142.0019964,71.52803039,992.6819623
0.9850,141.7914289,71.55786882,992.7118375
0.9900,141.5788219,71.59365022,992.7431896
0.9950,141.363097,71.63619174,992.7763455
1.0000,141.1428936,71.68509585,992.8115785
1.0050,140.9172575,71.74049945,992.8489962
1.0100,140.6868839,71.80195103,992.888386
1.0150,140.4488479,71.86943531,992.9303723
1.0200,140.2039769,71.94458118,992.975239
1.0250,139.9506766,72.026216,993.0230215
1.0300,139.6890002,72.11131119,993.0731769
1.0350,139.4172581,72.20102151,993.1262952
1.0400,139.1365396,72.29557248,993.1824942
1.0450,138.8447267,72.39264067,993.2416609
1.0500,138.542239,72.49189226,993.3037357
1.0550,138.2280566,72.59231048,993.3688799
1.0600,137.9034139,72.69410114,993.436933
1.0650,137.5660635,72.79549255,993.5081284
1.0700,137.2176486,72.89647206,993.5821664
1.0750,136.858389,72.99628696,993.659059
1.0800,136.4875648,73.09448358,993.7389742
1.0850,136.1057669,73.19043049,993.821796
1.0900,135.7133816,73.2842692,993.9077583
1.0950,135.309644,73.37531164,993.9968214
1.1000,134.893983,73.46468245,994.0895914
1.1050,134.4661515,73.5501275,994.1856729
1.1100,134.0252701,73.63223853,994.2854827
1.1150,133.5708208,73.71231768,994.3896088
1.1200,133.1042396,73.78938778,994.4976139
1.1250,132.6234761,73.86365883,994.6102701
1.1300,132.1291909,73.93447689,994.7273235
1.1350,131.6207949,74.00164788,994.8489391
1.1400,131.0979394,74.06525349,994.9753207
1.1450,130.5611289,74.12423017,995.1062432
1.1500,130.0105468,74.18038319,995.2423514
1.1550,129.4469675,74.23131999,995.3831216
1.1600,128.8710574,74.27721285,995.5285285
1.1650,128.2819057,74.31872323,995.6788932
1.1700,127.6806573,74.35597128,995.8343386
1.1750,127.0677113,74.3891773,995.9950104
1.1800,126.4428628,74.41627293,996.160563
1.1850,125.8064562,74.43826054,996.3312945
1.1900,125.1583997,74.45494674,996.5073763
1.1950,124.4992553,74.46723473,996.6888985
1.2000,123.8294817,74.47418286,996.8757108
1.2050,123.1501393,74.47779863,997.0681353
1.2100,122.4611308,74.47778842,997.2660397
1.2150,121.7625032,74.47509053,997.4698774
1.2200,121.0543799,74.46985213,997.6796999
1.2250,120.3341891,74.46138554,997.8958686
1.2300,119.6044841,74.45262052,998.1187028
1.2350,118.8638541,74.44277796,998.3483398
1.2400,118.1122065,74.43188898,998.5850326
1.2450,117.3469053,74.42041666,998.8293986
1.2500,116.5690723,74.40971791,999.0816238
1.2550,115.7776408,74.39943051,999.3419981
1.2600,114.9724087,74.38974969,999.6108629
1.2650,114.1529053,74.38196429,999.8885651
1.2700,113.3183088,74.37593295,1000.175332
1.2750,112.4695762,74.37357348,1000.471672
1.2800,111.6069922,74.37477181,1000.777585
1.2850,110.7303443,74.37928084,1001.09326
1.2900,109.839768,74.38804929,1001.419351
1.2950,108.9346584,74.40076379,1001.756052
1.3000,108.0150775,74.41790313,1002.103746
1.3050,107.0802947,74.43893807,1002.462774
1.3100,106.1298238,74.46443117,1002.833665
1.3150,105.164507,74.49340363,1003.216315
1.3200,104.1831992,74.5257293,1003.61103
1.3250,103.185962,74.56149274,1004.01799
1.3300,102.1730055,74.60299922,1004.43785
1.3350,101.1444736,74.64844751,1004.870654
1.3400,100.0998833,74.69772449,1005.316432
1.3450,99.03976253,74.75218903,1005.775807
1.3500,97.96409196,74.81076344,1006.248812
1.3550,96.87462069,74.87570239,1006.735413
1.3600,95.77071607,74.94477139,1007.235728
1.3650,94.65394627,75.0199128,1007.749762
1.3700,93.52357897,75.10037143,1008.277974
1.3750,92.38105566,75.18751134,1008.820531
1.3800,91.22590816,75.28132691,1009.37744
1.3850,90.06000548,75.38224195,1009.948715
1.3900,88.88283937,75.49010572,1010.534677
1.3950,87.69548915,75.60552634,1011.135319
1.4000,86.4979203,75.72771358,1011.750519
1.4050,85.29140473,75.85714988,1012.380219
1.4100,84.07604019,75.99453929,1013.024447
1.4150,82.8521226,76.13797795,1013.682819
1.4200,81.61843223,76.28860975,1014.355861
1.4250,80.37775192,76.4468353,1015.042727
1.4300,79.13001581,76.61177901,1015.74343
1.4350,77.87553929,76.78419671,1016.45775
1.4400,76.61354374,76.96351634,1017.186087
1.4450,75.34531091,77.15060883,1017.928407
1.4500,74.07086853,77.34441627,1018.683728
1.4550,72.78911435,77.54604484,1019.452876
1.4600,71.501172,77.75566819,1020.235784
1.4650,70.20758091,77.97221795,1021.032033
1.4700,68.90829877,78.19523011,1021.841511
1.4750,67.60303998,78.4239724,1022.664177
1.4800,66.29137614,78.6596566,1023.500813
1.4850,64.97317408,78.90110089,1024.351281
1.4900,63.64966792,79.1499264,1025.215618
1.4950,62.32098351,79.40357486,1026.092896
1.5000,60.98726703,79.66370492,1026.983997
1.5050,59.64805982,79.9301219,1027.889081
1.5100,58.30397134,80.20322658,1028.807969
1.5150,56.95485286,80.48355175,1029.741171
1.5200,55.60086462,80.77097397,1030.688743
1.5250,54.24326428,81.06691099,1031.65104
1.5300,52.88084748,81.36854125,1032.628189
1.5350,51.51269692,81.6778277,1033.620898
1.5400,50.13890134,81.99464612,1034.629074
1.5450,48.76043056,82.31978375,1035.653009
1.5500,47.37760676,82.65262528,1036.692923
1.5550,45.99110818,82.99463475,1037.748591
1.5600,44.60100083,83.34548643,1038.820632
1.5650,43.20781493,83.70498534,1039.908695
1.5700,41.81188808,84.07228261,1041.012941
1.5750,40.41429032,84.44696905,1042.133095
1.5800,39.01376064,84.82895763,1043.269575
1.5850,37.61096213,85.21746216,1044.422464
1.5900,36.20550165,85.6124947,1045.5913
1.5950,34.79892265,86.01318911,1046.776048
1.6000,33.39326981,86.42068208,1047.976143
1.6050,31.98898417,86.83442684,1049.192001
1.6100,30.58516435,87.25465894,1050.423945
1.6150,29.18435273,87.68272137,1051.672009
1.6200,27.78610056,88.11607695,1052.935883
1.6250,26.39164169,88.55721198,1054.215627
1.6300,25.00103038,89.00557302,1055.511791
1.6350,23.61490677,89.46102342,1056.823354
1.6400,22.23374438,89.92458553,1058.150779
1.6450,20.8585676,90.39586988,1059.493199
1.6500,19.48993467,90.87616965,1060.850615
1.6550,18.12600089,91.36422688,1062.223661
1.6600,16.76836725,91.8604533,1063.611602
1.6650,15.41703625,92.36409993,1065.014278
1.6700,14.07105986,92.87576107,1066.432198
1.6750,12.73079044,93.39385974,1067.865091
1.6800,11.3976957,93.91942706,1069.312514
1.6850,10.07073837,94.45187833,1070.775052
1.6900,8.750896142,94.99011709,1072.252061
1.6950,7.438168165,95.53303348,1073.743701
1.7000,6.132645759,96.07951818,1075.249194
1.7050,4.834006965,96.62929917,1076.768979
1.7100,3.543192259,97.18020461,1078.30166
1.7150,2.259214981,97.73213092,1079.847611
1.7200,0.9842158527,98.28289804,1081.405824
1.7250,-0.2822762063,98.83157087,1082.975931
1.7300,-1.540341476,99.37728775,1084.558027
1.7350,-2.789692963,99.91750775,1086.151368
1.7400,-4.029372679,100.4534261,1087.755736
1.7450,-5.259086841,100.9832033,1089.370445
1.7500,-6.478801788,101.5059598,1090.996128
1.7550,-7.686329802,102.0204815,1092.631898
1.7600,-8.882851944,102.5265824,1094.278008
1.7650,-10.06802934,103.0232325,1095.934273
1.7700,-11.24252498,103.5101053,1097.600264
1.7750,-12.40509156,103.9869648,1099.276566
1.7800,-13.55418316,104.4539546,1100.962617
1.7850,-14.68904961,104.9107458,1102.658612
1.7900,-15.81067452,105.3545232,1104.364432
1.7950,-16.91836355,105.7867483,1106.081305
1.8000,-18.01190704,106.2069626,1107.808072
1.8050,-19.0914547,106.6132507,1109.545394
1.8100,-20.15640683,107.0064652,1111.293841
1.8150,-21.20664339,107.38479,1113.052582
1.8200,-22.24264645,107.7473598,1114.821516
1.8250,-23.26521839,108.0942857,1116.600614
1.8300,-24.27597197,108.4249041,1118.389735
1.8350,-25.27403326,108.7402855,1120.18951
1.8400,-26.26045554,109.0400013,1121.999695
1.8450,-27.23581906,109.3231093,1123.819957
1.8500,-28.20207935,109.5907664,1125.65072
1.8550,-29.15999636,109.8420119,1127.49184
1.8600,-30.11086442,110.0773389,1129.342506
1.8650,-31.05699583,110.2970858,1131.203414
1.8700,-31.99879781,110.5024174,1133.074413
1.8750,-32.93898628,110.6926164,1134.95569
1.8800,-33.87660884,110.8691944,1136.847121
1.8850,-34.81245291,111.0333318,1138.748012
1.8900,-35.74627467,111.185375,1140.658708
1.8950,-36.67985281,111.3271066,1142.58017
1.9000,-37.61461903,111.4568022,1144.511536
1.9050,-38.55122566,111.577178,1146.452401
1.9100,-39.48807784,111.688877,1148.402866
1.9150,-40.426197,111.7914254,1150.361995
1.9200,-41.3639586,111.8879075,1152.329895
1.9250,-42.29999588,111.9762358,1154.305737
1.9300,-43.23466742,112.0576078,1156.289346
1.9350,-44.16703634,112.1331074,1158.281437
1.9400,-45.0968214,112.2031938,1160.281281
1.9450,-46.02364805,112.2672998,1162.288356
1.9500,-46.94576971,112.3259755,1164.30225
1.9550,-47.86041191,112.3811514,1166.321976
1.9600,-48.76892242,112.4333593,1168.348628
1.9650,-49.66982326,112.4838096,1170.382029
1.9700,-50.56331175,112.5329692,1172.421715
1.9750,-51.45017037,112.5832022,1174.468036
1.9800,-52.32949238,112.6329107,1176.520024
1.9850,-53.20284774,112.6814419,1178.576893
1.9900,-54.06985773,112.7318546,1180.639078
1.9950,-54.93106001,112.7829477,1182.705879
2.0000,-55.7850629,112.8370769,1184.777376
2.0050,-56.63304795,112.8938707,1186.853506
2.0100,-57.47394723,112.953339,1188.934707
2.0150,-58.3068895,113.0148293,1191.019694
2.0200,-59.13188612,113.0801655,1193.108902
2.0250,-59.94842884,113.1490437,1195.203035
2.0300,-60.75511181,113.2213056,1197.300078
2.0350,-61.55134631,113.2984196,1199.401428
2.0400,-62.33739087,113.3781456,1201.506255
2.0450,-63.11294183,113.4597381,1203.614689
2.0500,-63.87915999,113.5439055,1205.725734
2.0550,-64.63568813,113.6291663,1207.83913
2.0600,-65.38166786,113.714763,1209.954054
2.0650,-66.11756954,113.8011844,1212.070662
2.0700,-66.84195991,113.886997,1214.188877
2.0750,-67.55447905,113.9733198,1216.308222
2.0800,-68.25634315,114.0594958,1218.42857
2.0850,-68.94760078,114.1451235,1220.550011
2.0900,-69.62719744,114.231812,1222.673191
2.0950,-70.29494506,114.3196233,1224.798143
2.1000,-70.95085267,114.4068282,1226.924753
2.1050,-71.593958,114.4946637,1229.0531
2.1100,-72.22612888,114.5809338,1231.18228
2.1150,-72.84735751,114.6659387,1233.312627
2.1200,-73.45714766,114.7498506,1235.444596
2.1250,-74.05708593,114.8303417,1237.577816
2.1300,-74.64716813,114.9091121,1239.711706
2.1350,-75.22979965,114.983535,1241.845056
2.1400,-75.80507487,115.0549761,1243.978011
2.1450,-76.37451384,115.1232423,1246.110371
2.1500,-76.9376687,115.1874371,1248.242323
2.1550,-77.49485626,115.2486248,1250.372726
2.1600,-78.04690556,115.3082274,1252.502193
2.1650,-78.59313677,115.3669159,1254.630106
2.1700,-79.1330225,115.4248777,1256.755392
2.1750,-79.66684572,115.483536,1258.878093
2.1800,-80.19508932,115.5432876,1260.998216
2.1850,-80.71790216,115.6040354,1263.115855
2.1900,-81.23715135,115.6670434,1265.231595
2.1950,-81.75198446,115.7328554,1267.34413
2.2000,-82.26064249,115.8045914,1269.454806
2.2050,-82.76336419,115.8796399,1271.564407
2.2100,-83.26093044,115.958553,1273.671656
2.2150,-83.75203761,116.0434462,1275.7777
2.2200,-84.23674619,116.1313339,1277.882808
2.2250,-84.71532928,116.2226425,1279.98789
2.2300,-85.18624198,116.3175896,1282.092227
2.2350,-85.64938011,116.4152882,1284.196085
2.2400,-86.10343451,116.5127769,1286.298811
2.2450,-86.54952103,116.6104719,1288.400902
2.2500,-86.98753634,116.707606,1290.502548
2.2550,-87.41923385,116.8009972,1292.603161
2.2600,-87.84521633,116.8894158,1294.701549
2.2650,-88.26606844,116.972598,1296.797344
2.2700,-88.68225516,117.0500175,1298.890471
2.2750,-89.09276679,117.1205855,1300.980067
2.2800,-89.4975905,117.1865788,1303.066483
2.2850,-89.89556173,117.2503212,1305.14916
2.2900,-90.28598339,117.3102494,1307.227523
2.2950,-90.66853524,117.3680382,1309.301078
2.3000,-91.04492811,117.421992,1311.368994
2.3050,-91.41434326,117.4732146,1313.430337
2.3100,-91.778452,117.5228159,1315.486187
2.3150,-92.13716658,117.570617,1317.535793
2.3200,-92.49065844,117.6155759,1319.579002
2.3250,-92.83798615,117.656871,1321.614335
2.3300,-93.17907389,117.6946025,1323.642119
2.3350,-93.51546199,117.726052,1325.660957
2.3400,-93.84807634,117.7517498,1327.671111
2.3450,-94.17942009,117.7710066,1329.672361
2.3500,-94.50966566,117.7823889,1331.664879
2.3550,-94.84024004,117.7859904,1333.648203
2.3600,-95.17150187,117.7825849,1335.622685
2.3650,-95.50380842,117.7705873,1337.587025
2.3700,-95.83661206,117.7515817,1339.541489
2.3750,-96.172131,117.7248842,1341.485828
2.3800,-96.50798567,117.6909174,1343.420129
2.3850,-96.84480333,117.6510932,1345.343076
2.3900,-97.18222995,117.604252,1347.254654
2.3950,-97.52103898,117.5501209,1349.154327
2.4000,-97.86122889,117.4903776,1351.043236
2.4050,-98.20369227,117.4266513,1352.922279
2.4100,-98.54570524,117.3603787,1354.791488
2.4150,-98.88743255,117.2936825,1356.650989
2.4200,-99.22674447,117.2266298,1358.501065
2.4250,-99.56365713,117.1600398,1360.341497
2.4300,-99.89614039,117.0931352,1362.173063
2.4350,-100.221691,117.0264838,1363.995086
2.4400,-100.5393557,116.9596419,1365.807339
2.4450,-100.8484809,116.891375,1367.610162
2.4500,-101.1481829,116.8227148,1369.403521
2.4550,-101.4367184,116.75313,1371.186954
2.4600,-101.7130495,116.6823362,1372.960727
2.4650,-101.9760135,116.6077409,1374.724097
2.4700,-102.2263451,116.5285334,1376.477753
2.4750,-102.4624963,116.4456078,1378.221937
2.4800,-102.684122,116.3566169,1379.955438
2.4850,-102.8917491,116.2632104,1381.678601
2.4900,-103.0839928,116.1644406,1383.390441
2.4950,-103.2621528,116.0594347,1385.091697
2.5000,-103.426939,115.9470596,1386.781056
2.5050,-103.5792423,115.8283695,1388.45876
2.5100,-103.7191844,115.7032338,1390.125103
2.5150,-103.8475616,115.5707625,1391.779525
2.5200,-103.9637668,115.4335759,1393.423346
2.5250,-104.0675317,115.2933562,1395.05607
2.5300,-104.1594011,115.1489208,1396.677832
2.5350,-104.2386978,115.0012811,1398.288936
2.5400,-104.3050533,114.8530726,1399.889276
2.5450,-104.3583773,114.7038509,1401.479015
2.5500,-104.3995401,114.551667,1403.058032
2.5550,-104.4298382,114.3967713,1404.626588
2.5600,-104.4490198,114.2400389,1406.185243
2.5650,-104.4577044,114.0807349,1407.734734
2.5700,-104.4555037,113.9186315,1409.27386
2.5750,-104.4448148,113.7534781,1410.803505
2.5800,-104.4263115,113.5833739,1412.323193
2.5850,-104.3995342,113.4080963,1413.833209
2.5900,-104.3654525,113.2277972,1415.334073
2.5950,-104.3241239,113.0434772,1416.82579
2.6000,-104.2744145,112.8554472,1418.309585
2.6050,-104.2157833,112.6634896,1419.785043
2.6100,-104.147735,112.4678706,1421.250942
2.6150,-104.0710576,112.2692019,1422.709009
2.6200,-103.9868456,112.0670643,1424.158937
2.6250,-103.8960306,111.8619486,1425.60202
2.6300,-103.8004799,111.6531764,1427.040155
2.6350,-103.7000476,111.4428228,1428.473469
2.6400,-103.5936893,111.2303584,1429.901553
2.6450,-103.4795546,111.0161497,1431.325224
2.6500,-103.3565566,110.8015747,1432.744091
2.6550,-103.2235387,110.5879977,1434.15813
2.6600,-103.0792755,110.3746582,1435.567432
2.6650,-102.9227584,110.1626938,1436.972258
2.6700,-102.7543829,109.9495271,1438.372754
2.6750,-102.572535,109.7358056,1439.768986
2.6800,-102.3793394,109.5194729,1441.159974
2.6850,-102.1750124,109.2992713,1442.547325
2.6900,-101.9595141,109.0757815,1443.929732
2.6950,-101.7343556,108.8483848,1445.307745
2.7000,-101.4980171,108.6162978,1446.681393
2.7050,-101.2508428,108.3786919,1448.049736
2.7100,-100.9942938,108.1359384,1449.412451
2.7150,-100.7280749,107.8868815,1450.769776
2.7200,-100.4550711,107.6314232,1452.122101
2.7250,-100.1743473,107.3706895,1453.468666
2.7300,-99.8861314,107.1052343,1454.809456
2.7350,-99.59176357,106.8353443,1456.144002
2.7400,-99.29201183,106.5605122,1457.473066
2.7450,-98.98623594,106.2808131,1458.795935
2.7500,-98.67634501,105.997226,1460.111974
2.7550,-98.36221318,105.7104679,1461.422417
2.7600,-98.04398236,105.4187005,1462.725498
2.7650,-97.7237824,105.1234687,1464.022194
2.7700,-97.40127413,104.8259406,1465.311896
2.7750,-97.07772994,104.525116,1466.594425
2.7800,-96.7540431,104.2231254,1467.870601
2.7850,-96.42970952,103.9188089,1469.139791
2.7900,-96.10564167,103.6131044,1470.40254
2.7950,-95.7812897,103.3079765,1471.658905
2.8000,-95.45734409,103.0033559,1472.909286
2.8050,-95.13297674,102.7009183,1474.15283
2.8100,-94.807152,102.4015508,1475.389519
2.8150,-94.48155738,102.1042427,1476.619749
2.8200,-94.15497807,101.8094953,1477.842225
2.8250,-93.82734414,101.5174518,1479.057394
2.8300,-93.49885744,101.2304168,1480.266046
2.8350,-93.16931015,100.9471011,1481.466731
2.8400,-92.83941658,100.6671998,1482.660449
2.8450,-92.50873505,100.389876,1483.846863
2.8500,-92.17792926,100.1167671,1485.026972
2.8550,-91.84626026,99.84757509,1486.200166
2.8600,-91.51261391,99.58308144,1487.366045
2.8650,-91.17772855,99.32335866,1488.524094
2.8700,-90.84132741,99.06921759,1489.674671
2.8750,-90.50287977,98.82008513,1490.816802
2.8800,-90.16145766,98.57734801,1491.950727
2.8850,-89.81712167,98.34020089,1493.07651
2.8900,-89.47038335,98.10843355,1494.194169
2.8950,-89.12133927,97.88058208,1495.304039
2.9000,-88.77022733,97.65767633,1496.405044
2.9050,-88.41756847,97.43838819,1497.497624
2.9100,-88.06347103,97.2222342,1498.581518
2.9150,-87.70744508,97.00888775,1499.656523
2.9200,-87.34985467,96.7998964,1500.723154
2.9250,-86.99193018,96.59427154,1501.782014
2.9300,-86.63257248,96.39328313,1502.832272
2.9350,-86.27177989,96.19612362,1503.873472
2.9400,-85.90898048,96.0044787,1504.906029
2.9450,-85.54478438,95.8185386,1505.928729
2.9500,-85.17817397,95.63799053,1506.941405
2.9550,-84.80858436,95.46217846,1507.944962
2.9600,-84.4372287,95.29061054,1508.939066
2.9650,-84.06368587,95.12280836,1509.923263
2.9700,-83.68925002,94.96052628,1510.897203
2.9750,-83.31380224,94.80197938,1511.860662
2.9800,-82.93734533,94.64721328,1512.813574
2.9850,-82.55878899,94.49636357,1513.755131
2.9900,-82.17957443,94.34817163,1514.685618
2.9950,-81.79786526,94.20397921,1515.604931
3.0000,-81.41557068,94.06253838,1516.512296
3.0050,-81.03417673,93.92342486,1517.408031
3.0100,-80.65206416,93.78651585,1518.292155
3.0150,-80.26976517,93.65106472,1519.164201
3.0200,-79.88724156,93.51810211,1520.024411
3.0250,-79.50361567,93.38714285,1520.872683
3.0300,-79.12069331,93.25690134,1521.70847
3.0350,-78.73730568,93.12707411,1522.533635
3.0400,-78.35335865,92.9979038,1523.346757
3.0450,-77.96921208,92.86975797,1524.14824
3.0500,-77.58449382,92.74235175,1524.938321
3.0550,-77.20006136,92.61401415,1525.716738
3.0600,-76.81727549,92.48653357,1526.484175
3.0650,-76.4353423,92.35971562,1527.239511
3.0700,-76.05536031,92.23279787,1527.983722
3.0750,-75.6772164,92.1063498,1528.716572
3.0800,-75.29993315,91.98126171,1529.438181
3.0850,-74.92355909,91.85773556,1530.14832
3.0900,-74.54822709,91.7347131,1530.846479
3.0950,-74.1730436,91.61277824,1531.53222
3.1000,-73.79834184,91.49186179,1532.204998
3.1050,-73.42349818,91.371646,1532.864844
3.1100,-73.0496688,91.25112439,1533.512224
3.1150,-72.67461501,91.13042001,1534.146584
3.1200,-72.30056196,91.01002938,1534.768884
3.1250,-71.92707316,90.88847638,1535.378569
3.1300,-71.55453511,90.76552641,1535.975831
3.1350,-71.18374817,90.64062062,1536.561924
3.1400,-70.81404944,90.51427246,1537.136511
3.1450,-70.44549814,90.38740525,1537.700353
3.1500,-70.0777451,90.25976983,1538.25288
3.1550,-69.70971169,90.13156514,1538.793951
3.1600,-69.34203125,90.00269468,1539.32468
3.1650,-68.97293008,89.87208101,1539.844355
3.1700,-68.60297302,89.74126825,1540.353489
3.1750,-68.22985681,89.60901523,1540.852559
3.1800,-67.85436404,89.47484433,1541.341713
3.1850,-67.47865355,89.33873424,1541.822236
3.1900,-67.10138654,89.20123177,1542.293669
3.1950,-66.72125176,89.06136318,1542.755501
3.2000,-66.33853009,88.91907641,1543.207687
3.2050,-65.95294132,88.77461754,1543.650762
3.2100,-65.56374543,88.62767856,1544.08461
3.2150,-65.17253664,88.47670174,1544.50919
3.2200,-64.77865191,88.32072354,1544.924868
3.2250,-64.3813025,88.16060258,1545.331031
3.2300,-63.98157565,87.99614919,1545.728512
3.2350,-63.57850561,87.82710746,1546.117906
3.2400,-63.17287642,87.65204228,1546.499217
3.2450,-62.76534395,87.47113836,1546.873596
3.2500,-62.35616512,87.28373367,1547.241276
3.2550,-61.94581833,87.09050366,1547.60248
3.2600,-61.53438764,86.89202883,1547.957297
3.2650,-61.1216402,86.68901523,1548.307031
3.2700,-60.70636844,86.48016975,1548.651739
3.2750,-60.28942558,86.26716799,1548.99147
3.2800,-59.86945705,86.05026148,1549.327533
3.2850,-59.4476067,85.82909932,1549.659409
3.2900,-59.02296485,85.60495811,1549.987671
3.2950,-58.59728151,85.37733296,1550.312495
3.3000,-58.17005134,85.14731264,1550.634601
3.3050,-57.74059781,84.91510159,1550.953448
3.3100,-57.30962952,84.68042773,1551.269912
3.3150,-56.87720184,84.44467171,1551.584491
3.3200,-56.44317326,84.20753657,1551.896512
3.3250,-56.00882951,83.96761548,1552.206423
3.3300,-55.57268583,83.7276878,1552.514791
3.3350,-55.13664392,83.48697433,1552.821276
3.3400,-54.70133442,83.24589986,1553.126786
3.3450,-54.2678918,83.00379525,1553.431556
3.3500,-53.8358135,82.75923836,1553.735607
3.3550,-53.40685756,82.51454737,1554.03991
3.3600,-52.97977102,82.26884224,1554.344919
3.3650,-52.55597782,82.0226337,1554.651939
3.3700,-52.13550011,81.77600801,1554.960787
3.3750,-51.71929044,81.52993784,1555.271795
3.3800,-51.3088785,81.2822907,1555.585531
3.3850,-50.90331712,81.03519454,1555.901686
3.3900,-50.50325902,80.78943189,1556.220301
3.3950,-50.10960347,80.54480807,1556.54243
3.4000,-49.72216478,80.30234206,1556.868076
3.4050,-49.34131728,80.06103109,1557.196536
3.4100,-48.96785047,79.82297891,1557.528872
3.4150,-48.60117387,79.58906129,1557.864471
3.4200,-48.24245605,79.35874949,1558.203504
3.4250,-47.89205326,79.13163859,1558.546333
3.4300,-47.55140909,78.90701847,1558.892857
3.4350,-47.21901635,78.68759291,1559.244156
3.4400,-46.89761743,78.47221638,1559.60122
3.4450,-46.58697015,78.26199123,1559.964731
3.4500,-46.28727951,78.05698449,1560.335268
3.4550,-45.99988218,77.85812539,1560.71443
3.4600,-45.72548147,77.66652123,1561.103441
3.4650,-45.46512177,77.48149889,1561.502809
3.4700,-45.21848486,77.30267668,1561.913711
3.4750,-44.9881946,77.13116519,1562.337378
3.4800,-44.77336553,76.96749519,1562.774832
3.4850,-44.57214946,76.8097823,1563.225804
3.4900,-44.38506037,76.65848665,1563.6917
3.4950,-44.21283718,76.51411455,1564.173215
3.5000,-44.05554593,76.37542834,1564.670863
3.5050,-43.91146602,76.2424743,1565.184632
3.5100,-43.7820015,76.11428736,1565.714952
3.5150,-43.66391012,75.99191607,1566.260638
3.5200,-43.55605951,75.87524442,1566.820878
3.5250,-43.4581488,75.76177788,1567.394626
3.5300,-43.36885275,75.65108947,1567.98079
3.5350,-43.28799802,75.5437033,1568.578297
3.5400,-43.21555894,75.43902406,1569.185924
3.5450,-43.14845622,75.33716659,1569.802017
3.5500,-43.08566616,75.23668599,1570.425243
3.5550,-43.02625297,75.13656672,1571.053727
3.5600,-42.96830788,75.03653276,1571.685772
3.5650,-42.91076097,74.93490802,1572.318988
3.5700,-42.85311582,74.83172178,1572.952756
3.5750,-42.79411798,74.72512897,1573.585519
3.5800,-42.7341435,74.61569929,1574.215965
3.5850,-42.67259085,74.50279301,1574.844163
3.5900,-42.6094226,74.38515919,1575.468813
3.5950,-42.54360493,74.26314777,1576.089212
3.6000,-42.47464818,74.13477824,1576.70497
3.6050,-42.40219104,74.00094677,1577.31533
3.6100,-42.3255851,73.86133689,1577.919715
3.6150,-42.24452274,73.71460491,1578.518036
3.6200,-42.15921428,73.56000022,1579.110103
3.6250,-42.06872284,73.39888258,1579.69505
3.6300,-41.97457699,73.22785794,1580.272745
3.6350,-41.87456344,73.04832414,1580.842181
3.6400,-41.76927798,72.85962307,1581.402905
3.6450,-41.6576454,72.66305696,1581.953974
3.6500,-41.5410947,72.45842456,1582.495491
3.6550,-41.41889043,72.24478713,1583.026242
3.6600,-41.29196243,72.02280151,1583.546375
3.6650,-41.15884295,71.79233222,1584.054055
3.6700,-41.02055821,71.55506015,1584.549223
3.6750,-40.87633689,71.30908335,1585.030543
3.6800,-40.72584178,71.05692331,1585.498258
3.6850,-40.5706428,70.79653505,1585.95164
3.6900,-40.4089547,70.52915541,1586.389989
3.6950,-40.24264987,70.25372227,1586.813043
3.7000,-40.07086399,69.97128398,1587.220588
3.7050,-39.89405826,69.68393496,1587.61338
3.7100,-39.71166762,69.38976478,1587.989692
3.7150,-39.52630171,69.08955833,1588.351599
3.7200,-39.33587329,68.78504486,1588.699084
3.7250,-39.14220306,68.47817003,1589.033447
3.7300,-38.94388324,68.17070372,1589.354639
3.7350,-38.7432978,67.86340843,1589.663001
3.7400,-38.5386059,67.55907063,1589.959156
3.7450,-38.33094874,67.2581624,1590.244209
3.7500,-38.1210242,66.96288038,1590.518613
3.7550,-37.90744519,66.67436066,1590.782405
3.7600,-37.69248822,66.39135116,1591.035183
3.7650,-37.47637153,66.11789627,1591.278289
3.7700,-37.2596238,65.85334225,1591.511626
3.7750,-37.04261481,65.60003421,1591.735221
3.7800,-36.82683367,65.35756898,1591.949471
3.7850,-36.61339604,65.12867535,1592.154135
3.7900,-36.40335646,64.91392011,1592.349256
3.7950,-36.19753907,64.71366068,1592.534982
3.8000,-35.99540951,64.52917738,1592.711501
3.8050,-35.79875481,64.36169486,1592.878047
3.8100,-35.60700397,64.21139482,1593.034429
3.8150,-35.42031154,64.07903429,1593.180474
3.8200,-35.24147311,63.96426396,1593.316869
3.8250,-35.07059719,63.86839475,1593.443277
3.8300,-34.90788466,63.7897471,1593.558471
3.8350,-34.75387567,63.72766783,1593.662284
3.8400,-34.60786779,63.68196972,1593.753537
3.8450,-34.47121061,63.65140324,1593.831765
3.8500,-34.34444156,63.63684412,1593.897242
3.8550,-34.22853223,63.63761638,1593.950046
3.8600,-34.12366607,63.65240461,1593.989891
3.8650,-34.03032524,63.68218911,1594.017783
3.8700,-33.94850491,63.72686589,1594.033211
3.8750,-33.87750121,63.7852509,1594.036521
3.8800,-33.81665593,63.8577446,1594.027554
3.8850,-33.76521658,63.94448404,1594.006339
3.8900,-33.72293513,64.04408166,1593.972939
3.8950,-33.68976418,64.15566025,1593.928057
3.9000,-33.66508358,64.27921222,1593.870587
3.9050,-33.64831776,64.41272349,1593.801339
3.9100,-33.6405305,64.55478885,1593.720946
3.9150,-33.64114633,64.70263004,1593.629476
3.9200,-33.65043107,64.85639297,1593.526773
3.9250,-33.66804232,65.01412106,1593.413704
3.9300,-33.69258366,65.17577761,1593.289904
3.9350,-33.72509972,65.34039335,1593.156842
3.9400,-33.7655328,65.50600032,1593.01515
3.9450,-33.81420634,65.6720916,1592.865842
3.9500,-33.86954268,65.83810203,1592.708696
3.9550,-33.93051021,66.00312653,1592.544178
3.9600,-33.99830227,66.16622152,1592.373124
3.9650,-34.07277792,66.32724072,1592.19669
3.9700,-34.15294953,66.48469393,1592.014248
3.9750,-34.23905177,66.63904987,1591.827418
3.9800,-34.33080654,66.78817218,1591.635218
3.9850,-34.42866807,66.93220609,1591.439131
3.9900,-34.5323374,67.07070499,1591.239649
3.9950,-34.64049716,67.2038658,1591.036656
4.0000,-34.75369331,67.33033245,1590.831122
4.0050,-34.87172776,67.44875163,1590.623145
4.0100,-34.99359509,67.56153857,1590.413761
4.0150,-35.11883358,67.66853437,1590.203506
4.0200,-35.24779735,67.76920325,1589.991965
4.0250,-35.37937184,67.8632622,1589.779083
4.0300,-35.51389568,67.95099109,1589.566077
4.0350,-35.650798,68.03222647,1589.35312
4.0400,-35.7903139,68.1059776,1589.140102
4.0450,-35.93152707,68.17353513,1588.926598
4.0500,-36.07484414,68.23315254,1588.71269
4.0550,-36.22095919,68.28494672,1588.498886
4.0600,-36.36790524,68.33076146,1588.28566
4.0650,-36.51674936,68.3695816,1588.072875
4.0700,-36.6674065,68.40221707,1587.860493
4.0750,-36.81984941,68.42730559,1587.64837
4.0800,-36.97326362,68.44553515,1587.436417
4.0850,-37.1280962,68.45784542,1587.225808
4.0900,-37.28447563,68.46380334,1587.016067
4.0950,-37.44155788,68.46464204,1586.807281
4.1000,-37.59984514,68.46069198,1586.599473
4.1050,-37.75899774,68.45089803,1586.39292
4.1100,-37.9189674,68.4367584,1586.187995
4.1150,-38.08104026,68.4177521,1585.984725
4.1200,-38.24445028,68.39438682,1585.782552
4.1250,-38.40843723,68.36611697,1585.581947
4.1300,-38.57397052,68.33408453,1585.383344
4.1350,-38.73956432,68.29924511,1585.186775
4.1400,-38.90522091,68.26097399,1584.992544
4.1450,-39.07158838,68.22075601,1584.801566
4.1500,-39.23758001,68.17822777,1584.613246
4.1550,-39.40394951,68.1336425,1584.428205
4.1600,-39.57120122,68.08936517,1584.247629
4.1650,-39.73865971,68.04417051,1584.070683
4.1700,-39.9054878,67.99928255,1583.897923
4.1750,-40.07298887,67.95492582,1583.72946
4.1800,-40.24128291,67.91047518,1583.56505
4.1850,-40.41096094,67.86577264,1583.404586
4.1900,-40.58089865,67.82314687,1583.248452
4.1950,-40.75193004,67.78045668,1583.096198
4.2000,-40.92374274,67.73901237,1582.947952
4.2050,-41.0968795,67.69894067,1582.803531
4.2100,-41.27088911,67.65989336,1582.66237
4.2150,-41.44618425,67.62389384,1582.523703
4.2200,-41.62177569,67.589396,1582.387516
4.2250,-41.79776036,67.55779052,1582.253759
4.2300,-41.9746264,67.52897076,1582.122211
4.2350,-42.15286181,67.5023582,1581.992589
4.2400,-42.33207732,67.47916606,1581.864334
4.2450,-42.51179732,67.45864599,1581.73692
4.2500,-42.69308696,67.44085236,1581.610159
4.2550,-42.87619133,67.42566628,1581.483671
4.2600,-43.05903328,67.41409982,1581.355535
4.2650,-43.24344768,67.40444794,1581.225917
4.2700,-43.42926075,67.39776784,1581.095006
4.2750,-43.61617754,67.39547373,1580.961745
4.2800,-43.80488019,67.39699253,1580.826002
4.2850,-43.9951274,67.40298875,1580.686686
4.2900,-44.18721453,67.41494133,1580.54341
4.2950,-44.37963472,67.43187556,1580.394963
4.3000,-44.57370535,67.45421733,1580.24024
4.3050,-44.7688188,67.48317647,1580.07822
4.3100,-44.96472724,67.51898981,1579.908603
4.3150,-45.16113039,67.56085156,1579.729441
4.3200,-45.35838851,67.60956129,1579.540754
4.3250,-45.55627413,67.66531035,1579.341768
4.3300,-45.75447055,67.72807111,1579.130996
4.3350,-45.95343148,67.79843478,1578.907767
4.3400,-46.15284249,67.87594635,1578.670625
4.3450,-46.35209492,67.96051507,1578.418025
4.3500,-46.55055813,68.0530307,1578.149825
4.3550,-46.74828932,68.15280195,1577.864469
4.3600,-46.94665625,68.25945558,1577.561178
4.3650,-47.14435126,68.37306022,1577.239327
4.3700,-47.34162645,68.49381491,1576.898893
4.3750,-47.53877931,68.62091906,1576.539087
4.3800,-47.73629165,68.75590759,1576.159304
4.3850,-47.93457566,68.89746222,1575.759668
4.3900,-48.13266389,69.0454021,1575.339422
4.3950,-48.3317067,69.19953324,1574.899077
4.4000,-48.53161377,69.35978089,1574.438035
4.4050,-48.73304935,69.52678047,1573.957028
4.4100,-48.93644677,69.70062743,1573.455469
4.4150,-49.14080954,69.88150017,1572.932529
4.4200,-49.34611507,70.06878066,1572.388674
4.4250,-49.55297535,70.26258595,1571.823184
4.4300,-49.76089017,70.46272068,1571.236484
4.4350,-49.97042894,70.66750278,1570.628086
4.4400,-50.18262419,70.87805932,1569.998851
4.4450,-50.39560709,71.09368155,1569.348502
4.4500,-50.61196406,71.31411557,1568.677754
4.4550,-50.8311957,71.53881336,1567.987126
4.4600,-51.05224143,71.76701971,1567.276396
4.4650,-51.27543264,71.99887685,1566.546529
4.4700,-51.50142083,72.23285928,1565.79682
4.4750,-51.72912535,72.46984241,1565.028065
4.4800,-51.95859158,72.70904467,1564.240491
4.4850,-52.18918194,72.94969447,1563.434728
4.4900,-52.42178078,73.19042696,1562.611511
4.4950,-52.65478124,73.43148238,1561.770995
4.5000,-52.89056077,73.67169985,1560.914693
4.5050,-53.12836164,73.91145579,1560.043161
4.5100,-53.3673736,74.15018092,1559.15752
4.5150,-53.60814897,74.38791774,1558.258875
4.5200,-53.85159252,74.62412311,1557.348791
4.5250,-54.09803554,74.85851337,1556.428911
4.5300,-54.34713284,75.09101743,1555.499952
4.5350,-54.59850822,75.32203709,1554.563172
4.5400,-54.85131136,75.55156709,1553.618583
4.5450,-55.10608975,75.78033637,1552.668385
4.5500,-55.36202562,76.00935903,1551.712608
4.5550,-55.6193742,76.23909949,1550.752329
4.5600,-55.87855351,76.46980622,1549.788928
4.5650,-56.13709868,76.70283871,1548.821635
4.5700,-56.39525818,76.93641078,1547.850565
4.5750,-56.65389444,77.17083872,1546.876874
4.5800,-56.91221212,77.40744661,1545.900077
4.5850,-57.17037586,77.64558209,1544.920141
4.5900,-57.42793193,77.884877,1543.937101
4.5950,-57.68666518,78.12684767,1542.950865
4.6000,-57.94439114,78.37151574,1541.9618
4.6050,-58.20285438,78.61789443,1540.970119
4.6100,-58.46216009,78.86602179,1539.974766
4.6150,-58.72205917,79.11649582,1538.975791
4.6200,-58.9821664,79.36977527,1537.972949
4.6250,-59.2423059,79.62581142,1536.965298
4.6300,-59.50289203,79.88423743,1535.952698
4.6350,-59.76333314,80.14431674,1534.934391
4.6400,-60.02391093,80.40635744,1533.91044
4.6450,-60.28454967,80.66970747,1532.879945
4.6500,-60.54567347,80.93471031,1531.842626
4.6550,-60.80761786,81.20148855,1530.798508
4.6600,-61.06954575,81.46926234,1529.747572
4.6650,-61.33259528,81.73863481,1528.688852
4.6700,-61.59623266,82.00906237,1527.622291
4.6750,-61.85970988,82.28234973,1526.547714
4.6800,-62.12437596,82.55745632,1525.465574
4.6850,-62.38689459,82.83570414,1524.373933
4.6900,-62.64822359,83.11802008,1523.273213
4.6950,-62.90790266,83.40459522,1522.163659
4.7000,-63.16669511,83.69537129,1521.04432
4.7050,-63.42305827,83.99004443,1519.91413
4.7100,-63.67613759,84.28875359,1518.773272
4.7150,-63.92692235,84.59032613,1517.621386
4.7200,-64.17529432,84.89493472,1516.457615
4.7250,-64.42054453,85.20317761,1515.28226
4.7300,-64.6640974,85.51350133,1514.094398
4.7350,-64.90598476,85.82747469,1512.894123
4.7400,-65.14697468,86.14383401,1511.681564
4.7450,-65.38784466,86.46241749,1510.455983
4.7500,-65.6274438,86.78369875,1509.217239
4.7550,-65.86469249,87.10666048,1507.964414
4.7600,-66.10122938,87.430315,1506.69812
4.7650,-66.33858558,87.75426565,1505.417762
4.7700,-66.57671228,88.07949861,1504.124452
4.7750,-66.81599301,88.40578459,1502.817169
4.7800,-67.05693682,88.73289995,1501.496656
4.7850,-67.29977481,89.05999649,1500.162641
4.7900,-67.54434655,89.3877429,1498.814647
4.7950,-67.79194687,89.71502983,1497.453448
4.8000,-68.04169405,90.04234379,1496.079462
4.8050,-68.29608581,90.36711147,1494.692962
4.8100,-68.55553832,90.69218089,1493.294524
4.8150,-68.82186479,91.01635923,1491.884527
4.8200,-69.09438804,91.34155601,1490.463299
4.8250,-69.37360593,91.66662701,1489.030463
4.8300,-69.66054575,91.99275478,1487.587689
4.8350,-69.95391036,92.32051733,1486.134232
4.8400,-70.2556512,92.65019251,1484.672023
4.8450,-70.56491843,92.98244561,1483.200433
4.8500,-70.880911,93.31595752,1481.719997
4.8550,-71.20304632,93.65122241,1480.230839
4.8600,-71.53029276,93.98876581,1478.732776
4.8650,-71.86517152,94.32838121,1477.22616
4.8700,-72.20616874,94.67152952,1475.7119
4.8750,-72.55228444,95.01721443,1474.189211
4.8800,-72.90283631,95.36663741,1472.658996
4.8850,-73.2567565,95.72111929,1471.122125
4.8900,-73.61424609,96.08099385,1469.578601
4.8950,-73.97344086,96.44673661,1468.028713
4.9000,-74.33481835,96.81940947,1466.471612
4.9050,-74.69532287,97.19955189,1464.907353
4.9100,-75.0561696,97.58684547,1463.335915
4.9150,-75.41606248,97.98241759,1461.757149
4.9200,-75.77430272,98.38444433,1460.169588
4.9250,-76.13004633,98.79392099,1458.574079
4.9300,-76.48292533,99.21087452,1456.969485
4.9350,-76.83247979,99.63629787,1455.356875
4.9400,-77.17934969,100.0683765,1453.734572
4.9450,-77.52412245,100.5074811,1452.103113
4.9500,-77.86669821,100.9533023,1450.462938
4.9550,-78.20692961,101.4048274,1448.812892
4.9600,-78.54445934,101.8623438,1447.151664
4.9650,-78.87993288,102.3253115,1445.480288
4.9700,-79.21256866,102.7931764,1443.79734
4.9750,-79.54134269,103.2664628,1442.103352
4.9800,-79.86494747,103.7439762,1440.397424
4.9850,-80.18380377,104.2250065,1438.678972
4.9900,-80.49727613,104.7082597,1436.948137
4.9950,-80.80431728,105.1915592,1435.20323
5.0000,-81.10361081,105.6754503,1433.44496
5.0050,-81.39601554,106.15874,1431.67247
5.0100,-81.68162251,106.640551,1429.886143
5.0150,-81.96143036,107.1211427,1428.085852
5.0200,-82.23422278,107.6005696,1426.271205
5.0250,-82.49984484,108.0769721,1424.442122
5.0300,-82.75677917,108.552054,1422.599501
5.0350,-83.00421232,109.0240515,1420.743555
5.0400,-83.24099531,109.4925651,1418.87377
5.0450,-83.46706696,109.9585919,1416.990103
5.0500,-83.68343682,110.4198418,1415.093033
5.0550,-83.88937322,110.8770202,1413.182515
5.0600,-84.08451627,111.3294228,1411.257571
5.0650,-84.26751875,111.7764413,1409.318648
5.0700,-84.43769588,112.2183897,1407.365823
5.0750,-84.5955262,112.6525861,1405.399989
5.0800,-84.74173026,113.0792483,1403.42072
5.0850,-84.87823839,113.4984911,1401.428596
5.0900,-85.004782,113.9092157,1399.424915
5.0950,-85.12246096,114.3117725,1397.408797
5.1000,-85.23003673,114.7067538,1395.380585
5.1050,-85.32734598,115.0951094,1393.340632
5.1100,-85.4144883,115.475991,1391.289367
5.1150,-85.49151453,115.8495259,1389.227454
5.1200,-85.55883647,116.2150824,1387.15526
5.1250,-85.61576281,116.5734954,1385.07291
5.1300,-85.66110683,116.9245164,1382.97997
5.1350,-85.69552824,117.26713,1380.877413
5.1400,-85.71867757,117.6016794,1378.765191
5.1450,-85.73042735,117.9274422,1376.64277
5.1500,-85.7325696,118.2463106,1374.511044
5.1550,-85.72632925,118.5574989,1372.369686
5.1600,-85.71231095,118.8617871,1370.218524
5.1650,-85.69063913,119.1596083,1368.059294
5.1700,-85.66045066,119.4508497,1365.890058
5.1750,-85.62246074,119.737312,1363.711592
5.1800,-85.57693108,120.0186435,1361.523263
5.1850,-85.52322412,120.2949135,1359.323888
5.1900,-85.46117064,120.5649695,1357.113055
5.1950,-85.38960558,120.8296886,1354.889881
5.2000,-85.30876004,121.08729,1352.654378
5.2050,-85.21779415,121.3387393,1350.40596
5.2100,-85.11438687,121.5838989,1348.143902
5.2150,-84.99815684,121.8239042,1345.867892
5.2200,-84.87003546,122.0578304,1343.57769
5.2250,-84.73069277,122.2840338,1341.272038
5.2300,-84.58078367,122.5027404,1338.951044
5.2350,-84.41954367,122.714136,1336.612811
5.2400,-84.24632247,122.9194944,1334.258549
5.2450,-84.06147106,123.118883,1331.886641
5.2500,-83.86558724,123.3122869,1329.496647
5.2550,-83.65788243,123.5011532,1327.087976
5.2600,-83.43822813,123.6852728,1324.660735
5.2650,-83.2045926,123.8639887,1322.21476
5.2700,-82.95753192,124.0375339,1319.750345
5.2750,-82.69715282,124.2039066,1317.267763
5.2800,-82.4230999,124.3627872,1314.767143
5.2850,-82.1364805,124.5111465,1312.249398
5.2900,-81.83706784,124.649962,1309.713769
5.2950,-81.52502112,124.7796516,1307.161499
5.3000,-81.2009397,124.8988891,1304.593332
5.3050,-80.86558262,125.0075757,1302.010697
5.3100,-80.51872961,125.1058499,1299.413443
5.3150,-80.15957595,125.1935435,1296.803015
5.3200,-79.78833725,125.2699309,1294.179953
5.3250,-79.40459986,125.3360103,1291.544348
5.3300,-79.00834128,125.3918768,1288.896375
5.3350,-78.59992152,125.4362398,1286.236195
5.3400,-78.17879552,125.4685921,1283.565207
5.3450,-77.74561398,125.4865258,1280.88474
5.3500,-77.29949292,125.4905532,1278.195848
5.3550,-76.84283149,125.4791256,1275.499043
5.3600,-76.37559705,125.4527046,1272.795849
5.3650,-75.89947413,125.4109122,1270.087894
5.3700,-75.41578552,125.3515378,1267.375596
5.3750,-74.92482229,125.2769101,1264.660028
5.3800,-74.42687335,125.1857971,1261.943043
5.3850,-73.92132585,125.0787381,1259.226824
5.3900,-73.40920715,124.9555093,1256.511811
5.3950,-72.89048809,124.8152637,1253.800138
5.4000,-72.36757757,124.6571451,1251.093158
5.4050,-71.83996472,124.479271,1248.393021
5.4100,-71.3103325,124.279743,1245.701219
5.4150,-70.77816429,124.0581061,1243.019106
5.4200,-70.24383671,123.8135323,1240.347579
5.4250,-69.70804868,123.5444306,1237.688052
5.4300,-69.17179078,123.2506935,1235.04228
5.4350,-68.63437664,122.9328328,1232.410773
5.4400,-68.09565716,122.5900774,1229.79419
5.4450,-67.55573299,122.2234777,1227.194304
5.4500,-67.01337313,121.8324236,1224.612263
5.4550,-66.46739743,121.4194238,1222.049516
5.4600,-65.91863628,120.9849702,1219.506356
5.4650,-65.36521502,120.5312346,1216.980502
5.4700,-64.80682252,120.0606763,1214.473081
5.4750,-64.24148889,119.5726812,1211.982919
5.4800,-63.6686127,119.0691683,1209.510899
5.4850,-63.08802237,118.5510987,1207.056803
5.4900,-62.49954786,118.0195427,1204.621517
5.4950,-61.90361475,117.4756251,1202.203802
5.5000,-61.30050757,116.920446,1199.803855
5.5050,-60.69065261,116.3559408,1197.42085
5.5100,-60.07476078,115.783001,1195.05474
5.5150,-59.45248296,115.2020881,1192.705634
5.5200,-58.82524241,114.6165648,1190.372907
5.5250,-58.19227238,114.0287263,1188.056322
5.5300,-57.55308685,113.4407256,1185.755762
5.5350,-56.90806084,112.8520999,1183.470576
5.5400,-56.25702012,112.2651415,1181.199465
5.5450,-55.60040546,111.6816157,1178.943533
5.5500,-54.93422567,111.1019602,1176.700805
5.5550,-54.26001802,110.5272975,1174.471708
5.5600,-53.57780885,109.9588697,1172.256017
5.5650,-52.88779582,109.3963144,1170.052876
5.5700,-52.18971009,108.8401912,1167.862893
5.5750,-51.48392068,108.2902351,1165.68506
5.5800,-50.77004469,107.7475079,1163.520588
5.5850,-50.04784822,107.2141774,1161.369337
5.5900,-49.31749549,106.6906036,1159.232798
5.5950,-48.57818287,106.1773661,1157.110318
5.6000,-47.82827839,105.6756947,1155.002059
5.6050,-47.06731161,105.1869325,1152.90829
5.6100,-46.29364763,104.711184,1150.82763
5.6150,-45.50623641,104.2495872,1148.760375
5.6200,-44.70414264,103.8018391,1146.706086
5.6250,-43.88916698,103.3672101,1144.665097
5.6300,-43.06060902,102.9440508,1142.636831
5.6350,-42.21896328,102.5327476,1140.621534
5.6400,-41.36511024,102.1321649,1138.619714
5.6450,-40.50005166,101.7401333,1136.631255
5.6500,-39.62296123,101.3559181,1134.656292
5.6550,-38.73527494,100.979698,1132.696284
5.6600,-37.83743587,100.6095872,1130.750984
5.6650,-36.92973737,100.2461013,1128.820156
5.6700,-36.01167054,99.88913281,1126.904057
5.6750,-35.08449225,99.53830792,1125.00389
5.6800,-34.14776276,99.1945823,1123.119555
5.6850,-33.20167482,98.85613754,1121.250275
5.6900,-32.24618338,98.52413056,1119.396402
5.6950,-31.28111582,98.19648231,1117.55831
5.7000,-30.306562,97.8715831,1115.735708
5.7050,-29.32331369,97.54951673,1113.928544
5.7100,-28.33071607,97.22924142,1112.136948
5.7150,-27.32936823,96.90962119,1110.361387
5.7200,-26.32093701,96.58889196,1108.603407
5.7250,-25.30541803,96.26751985,1106.862829
5.7300,-24.28421777,95.94357717,1105.140688
5.7350,-23.25832876,95.61608844,1103.437228
5.7400,-22.22652822,95.28531526,1101.753043
5.7450,-21.18977592,94.9511564,1100.088654
5.7500,-20.14722251,94.61335821,1098.442707
5.7550,-19.09892817,94.27107448,1096.815352
5.7600,-18.04311831,93.92392722,1095.206989
5.7650,-16.97974544,93.57034928,1093.618777
5.7700,-15.90954749,93.21036726,1092.051001
5.7750,-14.83152283,92.84444108,1090.503537
5.7800,-13.74568426,92.47220417,1088.976071
5.7850,-12.65188503,92.09397269,1087.469711
5.7900,-11.55040048,91.71026216,1085.983055
5.7950,-10.44150016,91.32127612,1084.517016
5.8000,-9.325263741,90.92796104,1083.071799
5.8050,-8.201354913,90.53049853,1081.646867
5.8100,-7.071149889,90.13028656,1080.243107
5.8150,-5.933578309,89.72773013,1078.859503
5.8200,-4.788764879,89.32375314,1077.497182
5.8250,-3.637323459,88.92010486,1076.156576
5.8300,-2.479688865,88.51697385,1074.837364
5.8350,-1.316967055,88.11576908,1073.540701
5.8400,-0.1498528163,87.71597882,1072.266228
5.8450,1.019732933,87.31718059,1071.014335
5.8500,2.188470508,86.9199234,1069.786185
5.8550,3.355917677,86.52434884,1068.581687
5.8600,4.52173928,86.13113614,1067.400444
5.8650,5.685101437,85.7417522,1066.242533
5.8700,6.844670223,85.35669998,1065.107849
5.8750,8.000158254,84.97757244,1063.995938
5.8800,9.149533801,84.60371366,1062.906084
5.8850,10.2929984,84.23710701,1061.838116
5.8900,11.42948099,83.87667831,1060.791018
5.8950,12.55861362,83.52430565,1059.765177
5.9000,13.67979116,83.18103422,1058.760064
5.9050,14.79305002,82.84536867,1057.774775
5.9100,15.8968566,82.51789025,1056.810251
5.9150,16.98957215,82.19745706,1055.865823
5.9200,18.0697683,81.88509417,1054.942132
5.9250,19.13739901,81.57960027,1054.03844
5.9300,20.19015235,81.28044233,1053.15529
5.9350,21.22797302,80.98792331,1052.292029
5.9400,22.25088923,80.7021754,1051.44754
5.9450,23.25741821,80.42448886,1050.622096
5.9500,24.24676548,80.15362321,1049.814389
5.9550,25.21996578,79.88953674,1049.023751
5.9600,26.17673929,79.63223787,1048.249702
5.9650,27.11672758,79.38194566,1047.492043
5.9700,28.03750724,79.13730183,1046.75076
5.9750,28.94047579,78.89924924,1046.024453
5.9800,29.82479232,78.66690478,1045.313101
5.9850,30.69156603,78.44229793,1044.616137
5.9900,31.54005401,78.22366609,1043.933287
5.9950,32.369648,78.01202564,1043.263943
6.0000,33.17974734,77.80727475,1042.60845
6.0050,33.97129677,77.60980744,1041.966308
6.0100,34.74543383,77.41858793,1041.336812
6.0150,35.50258557,77.23587671,1040.719986
6.0200,36.24294989,77.06092206,1040.11501
6.0250,36.96711845,76.89318249,1039.521864
6.0300,37.6763907,76.7334405,1038.939761
6.0350,38.37080334,76.58083092,1038.36845
6.0400,39.05197262,76.43589396,1037.807284
6.0450,39.72211152,76.29666798,1037.254762
6.0500,40.37971188,76.16375301,1036.711857
6.0550,41.02833663,76.03712554,1036.17696
6.0600,41.66670013,75.91615785,1035.650165
6.0650,42.29701498,75.80194591,1035.131154
6.0700,42.91954035,75.69361264,1034.619123
6.0750,43.5329199,75.59104694,1034.114879
6.0800,44.13785442,75.49262942,1033.617634
6.0850,44.73451689,75.39862006,1033.126981
6.0900,45.32470663,75.30757278,1032.642411
6.0950,45.90768341,75.21883166,1032.163451
6.1000,46.48601092,75.13302133,1031.689302
6.1050,47.05905661,75.04994778,1031.220404
6.1100,47.62886103,74.96933268,1030.755684
6.1150,48.19508423,74.89225446,1030.29547
6.1200,48.75910675,74.81905078,1029.839056
6.1250,49.3216385,74.74908084,1029.386159
6.1300,49.8851476,74.68165523,1028.936319
6.1350,50.44933946,74.6173851,1028.489407
6.1400,51.01354353,74.55575703,1028.045666
6.1450,51.57942962,74.49615657,1027.605119
6.1500,52.14851302,74.43917082,1027.167335
6.1550,52.72061251,74.38432063,1026.732706
6.1600,53.29458804,74.3303188,1026.301891
6.1650,53.87065214,74.27713629,1025.875088
6.1700,54.45022554,74.22394347,1025.451961
6.1750,55.03113366,74.17078354,1025.033795
6.1800,55.61487937,74.11804628,1024.620134
6.1850,56.20101075,74.06484734,1024.211116
6.1900,56.7897486,74.01238695,1023.807073
6.1950,57.38254275,73.96065863,1023.407166
6.2000,57.97840736,73.9089992,1023.011375
6.2050,58.57708982,73.85962036,1022.620421
6.2100,59.17830607,73.81265413,1022.234018
6.2150,59.78226683,73.76833479,1021.852194
6.2200,60.38884842,73.72621104,1021.474688
6.2250,60.99825922,73.68710809,1021.101672
6.2300,61.61077592,73.65197062,1020.733194
6.2350,62.22549318,73.61877462,1020.369077
6.2400,62.84228756,73.58882982,1020.009748
6.2450,63.46025833,73.56053554,1019.654791
6.2500,64.07844176,73.53515497,1019.305104
6.2550,64.69687129,73.51301652,1018.960357
6.2600,65.3138106,73.49485092,1018.621072
6.2650,65.92968534,73.47905888,1018.286992
6.2700,66.54570533,73.46789622,1017.958017
6.2750,67.16075558,73.45920027,1017.634321
6.2800,67.77551685,73.4538582,1017.315822
6.2850,68.38854495,73.45014229,1017.002505
6.2900,69.00070285,73.44858774,1016.694389
6.2950,69.61257577,73.44948141,1016.391517
6.3000,70.22499577,73.45179921,1016.093213
6.3050,70.83675693,73.45606131,1015.800113
6.3100,71.44594913,73.46148731,1015.512179
6.3150,72.05249,73.46700778,1015.229479
6.3200,72.65732878,73.47284726,1014.951805
6.3250,73.25825523,73.47886743,1014.679496
6.3300,73.85519603,73.48576975,1014.412793
6.3350,74.44753694,73.4929011,1014.151494
6.3400,75.03414891,73.50076144,1013.895632
6.3450,75.61434097,73.50875085,1013.645418
6.3500,76.18973835,73.51768244,1013.400197
6.3550,76.75839425,73.52790423,1013.160505
6.3600,77.32140122,73.53838719,1012.9256
6.3650,77.87715601,73.55042713,1012.695846
6.3700,78.42558406,73.56361349,1012.471327
6.3750,78.96741169,73.57795655,1012.251417
6.3800,79.50240657,73.59465837,1012.036086
6.3850,80.03025829,73.61339935,1011.825364
6.3900,80.55035203,73.63410661,1011.619059
6.3950,81.06273441,73.65700564,1011.417274
6.4000,81.56668706,73.68328496,1011.220114
6.4050,82.061754,73.71159532,1011.027127
6.4100,82.5478426,73.74298502,1010.838281
6.4150,83.02336508,73.77683993,1010.65375
6.4200,83.49024319,73.81238489,1010.472819
6.4250,83.9478527,73.85046038,1010.295434
6.4300,84.39534295,73.89130331,1010.121676
6.4350,84.8328725,73.93351185,1009.951001
6.4400,85.26073238,73.97787171,1009.783557
6.4450,85.67959517,74.02436392,1009.618702
6.4500,86.0882015,74.07264176,1009.45673
6.4550,86.48706971,74.12120205,1009.297095
6.4600,86.87685511,74.17118967,1009.139773
6.4650,87.25682526,74.22224129,1008.984833
6.4700,87.62601391,74.27341158,1008.832281
6.4750,87.98685248,74.32439056,1008.681334
6.4800,88.33750952,74.37512838,1008.532545
6.4850,88.67918873,74.42571963,1008.385702
6.4900,89.01192813,74.47510441,1008.240632
6.4950,89.33537207,74.52294492,1008.097676
6.5000,89.64909673,74.56832196,1007.956757
6.5050,89.95462489,74.61046823,1007.817352
6.5100,90.25301363,74.64877977,1007.679231
6.5150,90.54407837,74.68309146,1007.542449
6.5200,90.82790165,74.71227229,1007.40682
6.5250,91.10644576,74.73626034,1007.271765
6.5300,91.3800799,74.75350909,1007.137098
6.5350,91.64839812,74.76556374,1007.003389
6.5400,91.91273647,74.77109997,1006.870062
6.5450,92.174804,74.76999766,1006.736744
6.5500,92.43520557,74.76167393,1006.60332
6.5550,92.69492149,74.74435025,1006.469212
6.5600,92.95544756,74.71839309,1006.334367
6.5650,93.21726847,74.68347949,1006.198386
6.5700,93.47980059,74.6384258,1006.061454
6.5750,93.74392125,74.58346241,1005.923399
6.5800,94.0103935,74.51830902,1005.783996
6.5850,94.27993309,74.44274001,1005.643124
6.5900,94.55161203,74.35559467,1005.500493
6.5950,94.82533645,74.25719171,1005.356394
6.6000,95.10075499,74.14792568,1005.210925
6.6050,95.3787298,74.02741116,1005.063659
6.6100,95.66077154,73.89600028,1004.91454
6.6150,95.94553098,73.75341171,1004.763555
6.6200,96.2324746,73.59978697,1004.610874
6.6250,96.52266872,73.43503515,1004.456171
6.6300,96.81680883,73.25922427,1004.299269
6.6350,97.11446329,73.07409932,1004.140483
6.6400,97.41511872,72.87844472,1003.979815
6.6450,97.71947535,72.67448301,1003.817456
6.6500,98.0270033,72.4613748,1003.653257
6.6550,98.33774884,72.23923495,1003.487271
6.6600,98.65088318,72.00877277,1003.319901
6.6650,98.96654812,71.76945802,1003.150978
6.6700,99.28456046,71.52159465,1002.980442
6.6750,99.60536662,71.26525028,1002.808305
6.6800,99.92892197,71.00082824,1002.634735
6.6850,100.2566014,70.72882943,1002.459295
6.6900,100.5862542,70.45043563,1002.282746
6.6950,100.9187683,70.1658289,1002.104875
6.7000,101.2539006,69.87475419,1001.925868
6.7050,101.592565,69.57812588,1001.745682
6.7100,101.934787,69.27576827,1001.564444
6.7150,102.2817204,68.96866359,1001.382007
6.7200,102.6320514,68.65718918,1001.198872
6.7250,102.9875098,68.3399103,1001.014384
6.7300,103.346332,68.01852933,1000.829361
6.7350,103.7108133,67.69298498,1000.643412
6.7400,104.0803592,67.36367941,1000.456823
6.7450,104.4549564,67.03059289,1000.269621
6.7500,104.8352273,66.69358548,1000.081553
6.7550,105.2197284,66.35455339,999.8933631
6.7600,105.60862,66.01376413,999.7050765
6.7650,106.0014882,65.67013045,999.5165697
6.7700,106.3988235,65.32570742,999.3280864
6.7750,106.7991939,64.98089395,999.1400675
6.7800,107.2036746,64.63617197,998.9523085
6.7850,107.6108406,64.29060758,998.7649703
6.7900,108.0210635,63.94591454,998.5781813
6.7950,108.4344112,63.60229402,998.3919933
6.8000,108.8514986,63.25998829,998.2063427
6.8050,109.2711383,62.91915128,998.021557
6.8100,109.6935192,62.5798499,997.8374787
6.8150,110.1191533,62.24246759,997.6542731
6.8200,110.547091,61.90761575,997.4722644
6.8250,110.9764988,61.57485183,997.2917276
6.8300,111.4087092,61.24510619,997.1123856
6.8350,111.8436383,60.91701176,996.9339332
6.8400,112.28056,60.59033701,996.756634
6.8450,112.7200019,60.26766303,996.5811389
6.8500,113.1613094,59.94816121,996.407078
6.8550,113.6042836,59.63215942,996.2348474
6.8600,114.0483161,59.31891535,996.0644958
6.8650,114.494467,59.00970323,995.8961332
6.8700,114.9421989,58.70520224,995.7297749
6.8750,115.3919363,58.40511003,995.5652614
6.8800,115.8427573,58.10934319,995.4027686
6.8850,116.294774,57.81831299,995.2425834
6.8900,116.7481477,57.53269079,995.0847737
6.8950,117.2026274,57.25200036,994.9290666
6.9000,117.6583032,56.97687736,994.7756575
6.9050,118.1122507,56.70612792,994.6247243
6.9100,118.5649052,56.44160782,994.4766373
6.9150,119.01485,56.18339813,994.3315106
6.9200,119.4626344,55.93240571,994.189336
6.9250,119.9083937,55.6905194,994.0504274
6.9300,120.3500494,55.45600154,993.9145975
6.9350,120.7886533,55.22895172,993.7817429
6.9400,121.2228121,55.01053241,993.6521488
6.9450,121.651988,54.8005628,993.5257408
6.9500,122.0760699,54.59942974,993.4026692
6.9550,122.4942585,54.40662531,993.2830307
6.9600,122.9064909,54.22422553,993.1669118
6.9650,123.3127401,54.05247486,993.0542298
6.9700,123.7121965,53.89201403,992.9453181
6.9750,124.1041949,53.74491273,992.8404581
6.9800,124.4875183,53.61003041,992.739662
6.9850,124.8608736,53.48732252,992.6430975
6.9900,125.2259629,53.37705964,992.5504003
6.9950,125.5813937,53.28055114,992.4620834
7.0000,125.9278666,53.19683844,992.3775403
7.0050,126.2647344,53.12740322,992.2972721
7.0100,126.5913845,53.07222084,992.2212606
7.0150,126.9080309,53.03120895,992.1493518
7.0200,127.2152287,53.00400395,992.0812567
7.0250,127.5124791,52.99220759,992.0173265
7.0300,127.8022062,52.99438151,991.956869
7.0350,128.0832759,53.01107583,991.9001317
7.0400,128.3577849,53.04251193,991.8467034
7.0450,128.6251084,53.08728243,991.7964666
7.0500,128.8861397,53.14508646,991.7491899
7.0550,129.1427018,53.2147789,991.7042034
7.0600,129.3952867,53.29486261,991.6611937
7.0650,129.6445832,53.38577074,991.6202619
7.0700,129.8920712,53.48690548,991.5809078
7.0750,130.138555,53.59635351,991.5426928
7.0800,130.3842513,53.712761,991.5054742
7.0850,130.631856,53.83677168,991.4689147
7.0900,130.8804793,53.96618218,991.4326878
7.0950,131.1309883,54.09913673,991.3962975
7.1000,131.383291,54.23643157,991.3601821
7.1050,131.6388775,54.3751674,991.3235367
7.1100,131.8983761,54.51573266,991.2863326
7.1150,132.1609847,54.65664858,991.2486217
7.1200,132.4287352,54.79773149,991.2099745
7.1250,132.7019837,54.93667256,991.1699767
7.1300,132.9805246,55.07370048,991.1288045
7.1350,133.265582,55.20833101,991.0864046
7.1400,133.5578904,55.33925276,991.0423782
7.1450,133.8567102,55.46542106,990.9966683
7.1500,134.1628573,55.58524114,990.9491178
7.1550,134.4745749,55.69937447,990.9000213
7.1600,134.7918846,55.80722208,990.8494443
7.1650,135.1133382,55.90803127,990.7974998
7.1700,135.4398882,56.00062184,990.7440008
7.1750,135.7709545,56.08449348,990.6891628
7.1800,136.1060101,56.15920723,990.6328706
7.1850,136.4447468,56.22482046,990.575166
7.1900,136.7860683,56.28149962,990.5163435
7.1950,137.1294532,56.32881076,990.4563737
7.2000,137.4737323,56.36792992,990.3957165
7.2050,137.8194944,56.39831304,990.3342799
7.2100,138.1638869,56.4193787,990.2723589
7.2150,138.5080423,56.43188373,990.2099383
7.2200,138.8495973,56.43762114,990.147713
7.2250,139.186628,56.43472368,990.0856537
7.2300,139.5174604,56.42461997,990.0243151
7.2350,139.8403743,56.40787494,989.9640593
7.2400,140.1540238,56.38554315,989.9053294
7.2450,140.4556941,56.35820578,989.8486184
7.2500,140.7435705,56.32690555,989.7942797
7.2550,141.0159079,56.29348745,989.7427147
7.2600,141.272021,56.25635833,989.6938165
7.2650,141.5093653,56.21753072,989.6482758
7.2700,141.7286072,56.17704381,989.6058848
7.2750,141.9275003,56.13504847,989.5668093
7.2800,142.1069297,56.09289768,989.5312125
7.2850,142.2674896,56.0516285,989.4990653
7.2900,142.4088958,56.01327724,989.4708693
7.2950,142.5324104,55.97682065,989.4460383
7.3000,142.638061,55.94273233,989.4245902
7.3050,142.7282278,55.91146011,989.4060895
7.3100,142.8052601,55.88280048,989.3902906
7.3150,142.8712639,55.85658504,989.3767192
7.3200,142.928241,55.83358642,989.3652131
7.3250,142.9791347,55.8126006,989.3551471
7.3300,143.0248846,55.79276352,989.3461682
7.3350,143.069327,55.77379072,989.3376169
7.3400,143.1135827,55.75443646,989.3290792
7.3450,143.1614392,55.73511466,989.3201612
7.3500,143.2139004,55.71585492,989.3107366
7.3550,143.2720654,55.69596484,989.300386
7.3600,143.3373427,55.67451423,989.2888052
7.3650,143.4124903,55.65233087,989.275656
7.3700,143.4956949,55.62719062,989.2608431
7.3750,143.5876046,55.59899804,989.2442309
7.3800,143.6893783,55.56814329,989.2256389
7.3850,143.7988093,55.53324817,989.2051755
7.3900,143.9163426,55.49518032,989.1831435
7.3950,144.0405001,55.45436128,989.1596837
7.4000,144.1706209,55.40896018,989.1344848
7.4050,144.3048757,55.36092162,989.1080619
7.4100,144.4409621,55.30890435,989.08079
7.4150,144.5789018,55.2536892,989.05266
7.4200,144.7167555,55.19450929,989.0238857
7.4250,144.8530866,55.13414981,988.9952085
7.4300,144.985216,55.07107023,988.9667249
7.4350,145.1139924,55.00500547,988.9382213
7.4400,145.237505,54.9379219,988.9103789
7.4450,145.3578685,54.8690624,988.8827047
7.4500,145.4738493,54.79986976,988.8554854
7.4550,145.5869802,54.72888701,988.828428
7.4600,145.6976348,54.65725441,988.8014615
7.4650,145.8070527,54.58431294,988.7744874
7.4700,145.9141633,54.5099267,988.7476036
7.4750,146.0201639,54.43475278,988.720642
7.4800,146.1241746,54.35893934,988.6938677
7.4850,146.2265595,54.28203158,988.6671229
7.4900,146.328944,54.20422264,988.6402604
7.4950,146.4306209,54.1255743,988.6133728
7.5000,146.5327099,54.0446518,988.5860372
7.5050,146.6356901,53.96313508,988.5585458
7.5100,146.7399698,53.88114742,988.5306808
7.5150,146.844973,53.79880225,988.5027735
7.5200,146.9512027,53.71476451,988.4743976
7.5250,147.0566801,53.63066669,988.4460282
7.5300,147.1617965,53.54750721,988.4178391
7.5350,147.2654969,53.46470335,988.3897904
7.5400,147.3657466,53.38186906,988.3620806
7.5450,147.462709,53.30076004,988.3349278
7.5500,147.5556702,53.22127027,988.3083576
7.5550,147.6438924,53.14221341,988.2824526
7.5600,147.7258243,53.06547686,988.2575587
7.5650,147.800541,52.98961528,988.2336569
7.5700,147.8676373,52.91569404,988.2108324
7.5750,147.926086,52.84391667,988.189371
7.5800,147.9752058,52.77453728,988.1693242
7.5850,148.0141921,52.70713798,988.1507738
7.5900,148.0434649,52.64216196,988.1336096
7.5950,148.0642542,52.57863461,988.1175118
7.6000,148.0775346,52.51781622,988.1026984
7.6050,148.0838437,52.45788269,988.0888097
7.6100,148.0827157,52.39957915,988.0758404
7.6150,148.0745666,52.34193569,988.0637144
7.6200,148.0607817,52.28496267,988.0523746
7.6250,148.0402664,52.22831301,988.0419328
7.6300,148.015406,52.17150684,988.0320632
7.6350,147.9834719,52.11344545,988.0231275
7.6400,147.9471572,52.05303241,988.0147888
7.6450,147.9048687,51.99078121,988.0074995
7.6500,147.855723,51.92477475,988.0012532
7.6550,147.8000377,51.85688816,987.9965921
7.6600,147.7383137,51.78651177,987.9935023
7.6650,147.6678442,51.71351131,987.992578
7.6700,147.5893132,51.63845915,987.9939651
7.6750,147.5024532,51.56274968,987.9982591
7.6800,147.406528,51.48569225,988.0055233
7.6850,147.2998982,51.40857375,988.0164248
7.6900,147.1824571,51.33253883,988.0313064
7.6950,147.053729,51.25897865,988.050937
7.7000,146.9126781,51.18922765,988.0757185
7.7050,146.7586782,51.12409777,988.1061933
7.7100,146.5906159,51.06500293,988.14281
7.7150,146.406725,51.01242828,988.1861319
7.7200,146.2066384,50.96781966,988.2365905
7.7250,145.9882563,50.93119761,988.2947494
7.7300,145.753089,50.9039944,988.3609079
7.7350,145.4978993,50.88715519,988.4357384
7.7400,145.221833,50.88087911,988.5196034
7.7450,144.922708,50.88547858,988.6130927
7.7500,144.5999962,50.9008126,988.7166091
7.7550,144.2533235,50.92921903,988.8306354
7.7600,143.8806645,50.96910882,988.9554735
7.7650,143.481156,51.02120308,989.0915449
7.7700,143.0555133,51.08565689,989.2388767
7.7750,142.6043265,51.16222437,989.3974985
7.7800,142.1265843,51.25123133,989.5678311
7.7850,141.6223918,51.35385111,989.7501234
7.7900,141.0915315,51.4689129,989.9442258
7.7950,140.5347586,51.5978363,990.1504441
7.8000,139.9509864,51.74136472,990.3689455
7.8050,139.3396491,51.89920157,990.6000166
7.8100,138.7012764,52.07087574,990.8433721
7.8150,138.0348309,52.25702901,991.099343
7.8200,137.3400904,52.45788675,991.3680224
7.8250,136.6173614,52.67383896,991.6493323
7.8300,135.8666358,52.9037224,991.9431943
7.8350,135.0883326,53.14800866,992.2495897
7.8400,134.2814642,53.40726517,992.5688643
7.8450,133.4459602,53.67848986,992.9005219
7.8500,132.5807316,53.96175718,993.2446243
7.8550,131.6870197,54.25782847,993.6010713
7.8600,130.7636015,54.56504692,993.9701026
7.8650,129.8107517,54.88274664,994.3514429
7.8700,128.8271404,55.21065403,994.7456008
7.8750,127.8150056,55.54839676,995.1523222
7.8800,126.774373,55.89471156,995.571625
7.8850,125.7034637,56.24934567,996.0041761
7.8900,124.604713,56.61034074,996.4496245
7.8950,123.4766726,56.97786548,996.9086073
7.9000,122.3206397,57.35107741,997.3812157
7.9050,121.1353797,57.72915505,997.8679334
7.9100,119.922387,58.11042996,998.3690321
7.9150,118.6831044,58.49403589,998.8845498
7.9200,117.4175332,58.8796773,999.4149009
7.9250,116.1271,59.26613801,999.9601083
7.9300,114.8125877,59.65286244,1000.520585
7.9350,113.4755894,60.04071103,1001.096562
7.9400,112.1163422,60.42914468,1001.688542
7.9450,110.7372476,60.81788784,1002.296351
7.9500,109.33991,61.20724318,1002.920156
7.9550,107.9256027,61.59559645,1003.559978
7.9600,106.4941896,61.98478184,1004.216869
7.9650,105.0467584,62.37376827,1004.890575
7.9700,103.5845056,62.76309962,1005.58163
7.9750,102.1079623,63.15132155,1006.290106
7.9800,100.6176822,63.53939799,1007.016835
7.9850,99.11437275,63.92734367,1007.761911
7.9900,97.59909996,64.31341134,1008.525527
7.9950,96.07354969,64.69817944,1009.307329
8.0000,94.53752834,65.08188331,1010.107875
8.0050,92.9919406,65.46520749,1010.927299
8.0100,91.43862114,65.84846564,1011.76565
8.0150,89.8802605,66.23301506,1012.622608
8.0200,88.31639064,66.6186452,1013.498975
8.0250,86.74978136,67.00695979,1014.394181
8.0300,85.17921372,67.39758704,1015.308648
8.0350,83.60665172,67.79212677,1016.242636
8.0400,82.03296641,68.18974159,1017.195594
8.0450,80.45913545,68.59197839,1018.16759
8.0500,78.88538549,68.99922445,1019.159037
8.0550,77.31130214,69.41085267,1020.169735
8.0600,75.73904959,69.82883095,1021.199861
8.0650,74.16789009,70.25373033,1022.249692
8.0700,72.59872741,70.68543502,1023.319329
8.0750,71.02950668,71.12407836,1024.40946
8.0800,69.46092728,71.56989345,1025.519625
8.0850,67.89313064,72.02194844,1026.649821
8.0900,66.32464063,72.48048121,1027.800478
8.0950,64.75617535,72.94484994,1028.971395
8.1000,63.18748958,73.41558587,1030.16293
8.1050,61.61963705,73.89212831,1031.374622
8.1100,60.05263292,74.37537974,1032.607181
8.1150,58.48698703,74.86598983,1033.860246
8.1200,56.92194648,75.36321807,1035.134029
8.1250,55.35862088,75.86564436,1036.427871
8.1300,53.79764591,76.37468165,1037.74206
8.1350,52.23821893,76.89060053,1039.076512
8.1400,50.68258839,77.41235393,1040.430531
8.1450,49.12948324,77.94068936,1041.80456
8.1500,47.5797207,78.47486388,1043.199227
8.1550,46.03209541,79.01351525,1044.614177
8.1600,44.4881969,79.55816819,1046.049341
8.1650,42.94840212,80.10810068,1047.505128
8.1700,41.41224749,80.66236579,1048.9811
8.1750,39.87889741,81.21868666,1050.477511
8.1800,38.34843416,81.77815806,1051.994803
8.1850,36.8218055,82.33919445,1053.532248
8.1900,35.29732215,82.90189887,1055.090317
8.1950,33.77598195,83.466527,1056.668777
8.2000,32.25746479,84.03266484,1058.267448
8.2050,30.74274714,84.60105751,1059.886463
8.2100,29.23311141,85.17164764,1061.525227
8.2150,27.7274567,85.74423926,1063.184114
8.2200,26.22713127,86.31758363,1064.861997
8.2250,24.73257268,86.89258304,1066.558991
8.2300,23.24344957,87.46945345,1068.274877
8.2350,21.76156267,88.04780216,1070.009282
8.2400,20.28684372,88.62786735,1071.762174
8.2450,18.81957037,89.20952589,1073.533501
8.2500,17.36095463,89.79265483,1075.322211
8.2550,15.91079475,90.3772189,1077.128395
8.2600,14.47083145,90.96171775,1078.950921
8.2650,13.04149028,91.54748458,1080.790043
8.2700,11.62335013,92.13391376,1082.645016
8.2750,10.21728245,92.72134393,1084.515892
8.2800,8.823133147,93.31000393,1086.402693
8.2850,7.441592758,93.89958574,1088.305046
8.2900,6.072695977,94.49090613,1090.222294
8.2950,4.71516075,95.0818139,1092.155055
8.3000,3.37015439,95.67141707,1094.102968
8.3050,2.038014747,96.26032045,1096.066245
8.3100,0.7179782232,96.84657407,1098.04403
8.3150,-0.5902693289,97.43041631,1100.03674
8.3200,-1.885871594,98.01203724,1102.043733
8.3250,-3.168236895,98.5907129,1104.064612
8.3300,-4.43814775,99.16650696,1106.099562
8.3350,-5.695441517,99.73850516,1108.14717
8.3400,-6.940229864,100.3068163,1110.207756
8.3450,-8.173145648,100.8699887,1112.280969
8.3500,-9.394347958,101.4286549,1114.366247
8.3550,-10.60223033,101.981611,1116.46269
8.3600,-11.79819344,102.5292658,1118.570584
8.3650,-12.98172863,103.0696757,1120.68933
8.3700,-14.15329584,103.6044607,1122.819226
8.3750,-15.31203404,104.1336647,1124.959739
8.3800,-16.45742734,104.6552271,1127.110347
8.3850,-17.58973709,105.1690671,1129.270752
8.3900,-18.70900179,105.6765659,1131.441226
8.3950,-19.81535159,106.1779176,1133.621151
8.4000,-20.90858587,106.6706887,1135.809894
8.4050,-21.98939997,107.1560124,1138.007005
8.4100,-23.05917404,107.6332657,1140.212801
8.4150,-24.11721363,108.1013453,1142.42684
8.4200,-25.16268411,108.5612292,1144.649228
8.4250,-26.19664908,109.0122869,1146.87968
8.4300,-27.2202116,109.4539089,1149.117831
8.4350,-28.23422452,109.8839238,1151.363749
8.4400,-29.23846503,110.3033631,1153.616573
8.4450,-30.23368158,110.7117879,1155.875424
8.4500,-31.22076212,111.1090803,1158.139818
8.4550,-32.19924087,111.4956712,1160.410082
8.4600,-33.17100153,111.8709795,1162.685933
8.4650,-34.13508187,112.2366839,1164.96643
8.4700,-35.0911062,112.5917034,1167.251411
8.4750,-36.03891808,112.9376396,1169.540604
8.4800,-36.97863182,113.2745879,1171.832975
8.4850,-37.90965703,113.6038063,1174.128114
8.4900,-38.83225947,113.9257611,1176.425926
8.4950,-39.74521991,114.2415988,1178.725232
8.5000,-40.64877607,114.5508177,1181.025649
8.5050,-41.54344416,114.8519146,1183.326349
8.5100,-42.43047593,115.1454981,1185.627025
8.5150,-43.30995026,115.4315356,1187.926482
8.5200,-44.1844424,115.7093397,1190.225472
8.5250,-45.05347221,115.9794448,1192.522851
8.5300,-45.91815509,116.2425871,1194.819273
8.5350,-46.77780146,116.4976163,1197.11321
8.5400,-47.63181224,116.7475562,1199.404901
8.5450,-48.47915219,116.9933305,1201.694356
8.5500,-49.31711832,117.2369849,1203.983024
8.5550,-50.14416666,117.4801299,1206.271226
8.5600,-50.959261,117.7233329,1208.558476
8.5650,-51.76224888,117.9650961,1210.843944
8.5700,-52.55048654,118.2060808,1213.126794
8.5750,-53.32512425,118.4449253,1215.406244
8.5800,-54.08693008,118.6806042,1217.683214
8.5850,-54.83589374,118.9118204,1219.956457
8.5900,-55.57070205,119.1374115,1222.227339
8.5950,-56.29106482,119.3586285,1224.495009
8.6000,-56.99459351,119.5768154,1226.7594
8.6050,-57.68057154,119.7907783,1229.019818
8.6100,-58.34666227,120.0021425,1231.276467
8.6150,-58.9926363,120.2095318,1233.529209
8.6200,-59.61695953,120.412835,1235.777216
8.6250,-60.2207955,120.6106247,1238.021145
8.6300,-60.80204596,120.8036289,1240.261358
8.6350,-61.36126392,120.9905272,1242.498225
8.6400,-61.89794148,121.1699839,1244.732088
8.6450,-62.41112696,121.3423906,1246.962749
8.6500,-62.90147518,121.5058646,1249.19048
8.6550,-63.36936147,121.6606818,1251.41608
8.6600,-63.81293161,121.8066884,1253.640405
8.6650,-64.2308514,121.9446145,1255.863853
8.6700,-64.62310151,122.0720865,1258.085951
8.6750,-64.99008377,122.1879027,1260.306949
8.6800,-65.3312719,122.2924277,1262.526952
8.6850,-65.64665251,122.3847547,1264.74556
8.6900,-65.93611617,122.4638944,1266.962814
8.6950,-66.20082278,122.5280766,1269.179112
8.7000,-66.44289545,122.5768913,1271.393695
8.7050,-66.66477056,122.6070149,1273.606084
8.7100,-66.86885497,122.6181154,1275.813821
8.7150,-67.0570528,122.6103733,1278.017363
8.7200,-67.23222186,122.5832892,1280.215819
8.7250,-67.3944633,122.5394141,1282.409913
8.7300,-67.54551798,122.4810119,1284.599362
8.7350,-67.68574781,122.4114177,1286.784281
8.7400,-67.81582045,122.3312831,1288.964792
8.7450,-67.93529471,122.2422983,1291.141426
8.7500,-68.04466626,122.1461102,1293.312282
8.7550,-68.14634629,122.0428658,1295.477411
8.7600,-68.24117237,121.9323433,1297.636301
8.7650,-68.33132774,121.8161496,1299.789757
8.7700,-68.41779789,121.6964464,1301.938816
8.7750,-68.50081757,121.574877,1304.082701
8.7800,-68.58052969,121.4517168,1306.221786
8.7850,-68.65803415,121.327755,1308.356147
8.7900,-68.73375003,121.2024367,1310.485375
8.7950,-68.8103896,121.074042,1312.610138
8.8000,-68.88956127,120.9437481,1314.730959
8.8050,-68.9727616,120.8123376,1316.848046
8.8100,-69.0599788,120.6793186,1318.960447
8.8150,-69.15157402,120.5447082,1321.068298
8.8200,-69.24826412,120.4112499,1323.172351
8.8250,-69.34863637,120.2796967,1325.27243
8.8300,-69.45232129,120.1508572,1327.367685
8.8350,-69.55954915,120.026422,1329.45806
8.8400,-69.67058029,119.9055584,1331.542176
8.8450,-69.78543199,119.7879236,1333.619896
8.8500,-69.90617347,119.674399,1335.690469
8.8550,-70.0328958,119.5644404,1337.753112
8.8600,-70.16821537,119.4585086,1339.808732
8.8650,-70.30961044,119.3592093,1341.85662
8.8700,-70.45761293,119.2653964,1343.897687
8.8750,-70.60871789,119.1780277,1345.931686
8.8800,-70.761257,119.0982869,1347.956673
8.8850,-70.91243857,119.0257837,1349.971709
8.8900,-71.06307569,118.9597986,1351.974554
8.8950,-71.21198755,118.8985611,1353.964678
8.9000,-71.36059002,118.8409682,1355.941785
8.9050,-71.50961909,118.7848719,1357.904605
8.9100,-71.65950088,118.7270183,1359.852642
8.9150,-71.81192133,118.6669687,1361.784659
8.9200,-71.9689894,118.6039538,1363.70076
8.9250,-72.12995949,118.5377914,1365.599603
8.9300,-72.29578973,118.467173,1367.48019
8.9350,-72.46472812,118.3940453,1369.343055
8.9400,-72.63683842,118.3197796,1371.187773
8.9450,-72.81292906,118.2432769,1373.014462
8.9500,-72.99265553,118.1646858,1374.821223
8.9550,-73.17668879,118.0835323,1376.607735
8.9600,-73.36537998,118.0003426,1378.373549
8.9650,-73.55694992,117.9170657,1380.117934
8.9700,-73.75111311,117.8348034,1381.841555
8.9750,-73.94733018,117.7536815,1383.544044
8.9800,-74.14445765,117.6751326,1385.226109
8.9850,-74.34017029,117.5998931,1386.888124
8.9900,-74.53150709,117.5294166,1388.52862
8.9950,-74.71673044,117.4633697,1390.147178
9.0000,-74.89423952,117.401463,1391.743855
9.0050,-75.06248831,117.3436348,1393.318405
9.0100,-75.21882007,117.2897273,1394.871802
9.0150,-75.36263419,117.2382035,1396.403697
9.0200,-75.49288102,117.1882737,1397.913937
9.0250,-75.60817718,117.1380567,1399.4026
9.0300,-75.7069605,117.087046,1400.869436
9.0350,-75.78757811,117.0337745,1402.313617
9.0400,-75.8482612,116.9779178,1403.735449
9.0450,-75.88737906,116.9207384,1405.13567
9.0500,-75.90365553,116.8612439,1406.515746
9.0550,-75.89453332,116.799195,1407.876719
9.0600,-75.85825749,116.7365904,1409.218848
9.0650,-75.79338959,116.6712041,1410.542478
9.0700,-75.69727592,116.6051651,1411.84673
9.0750,-75.56846694,116.5373375,1413.132887
9.0800,-75.40620837,116.4692424,1414.402365
9.0850,-75.20881147,116.3987111,1415.655325
9.0900,-74.97405408,116.3266918,1416.892509
9.0950,-74.70202345,116.2537105,1418.114934
9.1000,-74.39142244,116.1791347,1419.321433
9.1050,-74.04183133,116.1027951,1420.51292
9.1100,-73.65481993,116.0226295,1421.690843
9.1150,-73.23025538,115.9380588,1422.855682
9.1200,-72.76914005,115.8455876,1424.005525
9.1250,-72.27501814,115.7434324,1425.14241
9.1300,-71.75012513,115.6294677,1426.266862
9.1350,-71.19698277,115.5023393,1427.380077
9.1400,-70.61849434,115.3616185,1428.483248
9.1450,-70.01782963,115.2062328,1429.577154
9.1500,-69.39565065,115.0379989,1430.662789
9.1550,-68.75509656,114.8572161,1431.74058
9.1600,-68.09840406,114.66452,1432.810908
9.1650,-67.42904402,114.4599897,1433.874676
9.1700,-66.75028818,114.2431371,1434.932585
9.1750,-66.06447924,114.0155575,1435.986265
9.1800,-65.3762521,113.774705,1437.036248
9.1850,-64.68859652,113.5229061,1438.084426
9.1900,-64.00452672,113.2613491,1439.13243
9.1950,-63.32513055,112.9928761,1440.181476
9.2000,-62.65074789,112.716151,1441.23037
9.2050,-61.98216628,112.4344347,1442.281076
9.2100,-61.32099262,112.1503224,1443.334331
9.2150,-60.66776795,111.8652088,1444.390948
9.2200,-60.0225913,111.5789169,1445.451406
9.2250,-59.3881518,111.2910765,1446.517304
9.2300,-58.76646067,111.0031371,1447.588394
9.2350,-58.15946042,110.7141882,1448.6651
9.2400,-57.56806483,110.4259584,1449.747752
9.2450,-56.99323583,110.1374914,1450.836236
9.2500,-56.43442123,109.8498179,1451.931814
9.2550,-55.89272035,109.5635491,1453.034931
9.2600,-55.36988435,109.2782102,1454.145321
9.2650,-54.8670491,108.9930543,1455.264062
9.2700,-54.38366149,108.7100672,1456.390899
9.2750,-53.91828494,108.4318056,1457.526844
9.2800,-53.47188156,108.1580335,1458.670037
9.2850,-53.04530763,107.8908171,1459.822315
9.2900,-52.63793584,107.6301205,1460.983875
9.2950,-52.25063917,107.3773249,1462.154701
9.3000,-51.88193822,107.1343901,1463.335537
9.3050,-51.52926586,106.9024702,1464.526123
9.3100,-51.19142225,106.6817831,1465.725549
9.3150,-50.86724239,106.4720055,1466.932343
9.3200,-50.55566425,106.2733208,1468.145536
9.3250,-50.25613082,106.0854153,1469.364143
9.3300,-49.967172,105.9062015,1470.586325
9.3350,-49.6871542,105.7381103,1471.811966
9.3400,-49.41640786,105.5797531,1473.040308
9.3450,-49.15401198,105.4303295,1474.27071
9.3500,-48.89900761,105.2900047,1475.502106
9.3550,-48.6500506,105.1596694,1476.733274
9.3600,-48.40588876,105.0375322,1477.96264
9.3650,-48.1646472,104.9239884,1479.189564
9.3700,-47.92667021,104.8157781,1480.413313
9.3750,-47.69249967,104.7124989,1481.633353
9.3800,-47.46040881,104.6140786,1482.848071
9.3850,-47.23090441,104.5209803,1484.056613
9.3900,-47.00471273,104.4319896,1485.258359
9.3950,-46.78011649,104.346258,1486.451906
9.4000,-46.55672793,104.2629488,1487.637126
9.4050,-46.33292972,104.1812688,1488.81248
9.4100,-46.10761113,104.1016038,1489.977472
9.4150,-45.88000797,104.0238782,1491.130665
9.4200,-45.64978734,103.9483372,1492.27247
9.4250,-45.41630152,103.8738442,1493.401255
9.4300,-45.17901856,103.8013336,1494.516845
9.4350,-44.93746034,103.730713,1495.618812
9.4400,-44.69140946,103.661091,1496.706524
9.4450,-44.43987406,103.5940284,1497.779889
9.4500,-44.18406099,103.5259049,1498.837411
9.4550,-43.92360301,103.4567113,1499.879335
9.4600,-43.65853432,103.3874019,1500.905134
9.4650,-43.38787283,103.3159664,1501.914504
9.4700,-43.11137172,103.2432169,1502.906953
9.4750,-42.83025043,103.1691131,1503.882731
9.4800,-42.54325932,103.0951866,1504.841448
9.4850,-42.25159654,103.0200707,1505.783085
9.4900,-41.95459171,102.9431904,1506.707466
9.4950,-41.6545216,102.8628962,1507.614929
9.5000,-41.35234198,102.7813508,1508.506199
9.5050,-41.0489182,102.6976659,1509.381536
9.5100,-40.743975,102.6128098,1510.241386
9.5150,-40.43691799,102.5239316,1511.085784
9.5200,-40.12997712,102.4331079,1511.915631
9.5250,-39.82267787,102.3414973,1512.730158
9.5300,-39.51610533,102.2481723,1513.530359
9.5350,-39.21005756,102.1534459,1514.316576
9.5400,-38.90486846,102.0566318,1515.089011
9.5450,-38.60081548,101.9581007,1515.848114
9.5500,-38.29820029,101.8582889,1516.594688
9.5550,-37.99682189,101.7570408,1517.329025
9.5600,-37.69605318,101.6553524,1518.051772
9.5650,-37.39722573,101.5532515,1518.763424
9.5700,-37.10115324,101.4491681,1519.465064
9.5750,-36.80742903,101.3437667,1520.157109
9.5800,-36.51485678,101.2375577,1520.840627
9.5850,-36.22224578,101.129472,1521.515087
9.5900,-35.9308937,101.0197445,1522.181014
9.5950,-35.63883568,100.9090253,1522.839003
9.6000,-35.34709064,100.7963619,1523.488902
9.6050,-35.05633119,100.6830557,1524.130724
9.6100,-34.76728377,100.5682332,1524.764956
9.6150,-34.48022312,100.4524092,1525.392549
9.6200,-34.19514318,100.3353375,1526.014442
9.6250,-33.91228385,100.2171814,1526.63148
9.6300,-33.63144059,100.0973836,1527.244766
9.6350,-33.35432044,99.97185476,1527.854574
9.6400,-33.08082355,99.84172996,1528.461627
9.6450,-32.81014899,99.70583361,1529.065857
9.6500,-32.54283819,99.56320753,1529.667525
9.6550,-32.2789203,99.41445484,1530.268061
9.6600,-32.01813752,99.25882985,1530.867407
9.6650,-31.76227496,99.09591928,1531.466262
9.6700,-31.51216394,98.9257594,1532.064533
9.6750,-31.2677488,98.74721997,1532.66245
9.6800,-31.03056493,98.56033177,1533.260234
9.6850,-30.8004755,98.36519083,1533.858331
9.6900,-30.57828166,98.16100216,1534.456266
9.6950,-30.36371115,97.94784779,1535.053611
9.7000,-30.15884817,97.72621433,1535.650979
9.7050,-29.96300332,97.49715873,1536.247426
9.7100,-29.7770369,97.26142621,1536.842961
9.7150,-29.60185251,97.01813132,1537.437515
9.7200,-29.43748315,96.76837263,1538.031267
9.7250,-29.28235448,96.51389995,1538.623214
9.7300,-29.13649262,96.25461224,1539.21207
9.7350,-28.99894794,95.99130779,1539.797451
9.7400,-28.86981806,95.72526616,1540.378602
9.7450,-28.74989703,95.45611269,1540.95426
9.7500,-28.63885369,95.18557057,1541.524541
9.7550,-28.53594594,94.91465118,1542.087824
9.7600,-28.43930836,94.64301814,1542.643879
9.7650,-28.35018872,94.37075096,1543.192125
9.7700,-28.26777463,94.09863474,1543.731864
9.7750,-28.19256804,93.827903,1544.262692
9.7800,-28.12373626,93.55888204,1544.78353
9.7850,-28.05965718,93.29201636,1545.293784
9.7900,-28.000674,93.02862666,1545.792537
9.7950,-27.94552963,92.76911616,1546.278371
9.8000,-27.89477996,92.51361975,1546.752588
9.8050,-27.84734081,92.26358968,1547.213807
9.8100,-27.80290898,92.01848172,1547.661684
9.8150,-27.7623303,91.78108386,1548.096292
9.8200,-27.72276251,91.55055579,1548.516123
9.8250,-27.68443434,91.32783914,1548.921559
9.8300,-27.64615659,91.1127763,1549.312439
9.8350,-27.60813981,90.90631784,1549.688485
9.8400,-27.57009635,90.70822755,1550.04942
9.8450,-27.5322278,90.5206576,1550.39703
9.8500,-27.49510566,90.3438443,1550.731335
9.8550,-27.45832467,90.1780933,1551.053187
9.8600,-27.42182166,90.02319821,1551.362644
9.8650,-27.38567268,89.88039868,1551.660909
9.8700,-27.34868352,89.75013632,1551.948184
9.8750,-27.31208671,89.6313824,1552.224508
9.8800,-27.27532058,89.52493953,1552.490306
9.8850,-27.23889577,89.43112039,1552.74676
9.8900,-27.20292758,89.34970928,1552.994169
9.8950,-27.16840822,89.27964504,1553.233532
9.9000,-27.13393105,89.22207822,1553.465356
9.9050,-27.10179641,89.17398995,1553.690641
9.9100,-27.07212368,89.13594355,1553.910531
9.9150,-27.04470969,89.10765677,1554.125398
9.9200,-27.01940045,89.08846069,1554.335182
9.9250,-26.99648606,89.07874323,1554.540194
9.9300,-26.9769848,89.07733205,1554.740631
9.9350,-26.96036804,89.08489052,1554.936758
9.9400,-26.94681137,89.09995216,1555.127989
9.9450,-26.93806123,89.12255688,1555.315048
9.9500,-26.93272581,89.15283482,1555.498159
9.9550,-26.93287343,89.18893275,1555.676951
9.9600,-26.93898041,89.23076907,1555.852561
9.9650,-26.95003362,89.27888553,1556.024349
9.9700,-26.96519617,89.33221714,1556.192414
9.9750,-26.98581351,89.39142014,1556.356461
9.9800,-27.01270283,89.45497328,1556.516663
9.9850,-27.04543043,89.5227646,1556.672456
9.9900,-27.08361225,89.59530534,1556.824102
9.9950,-27.12842302,89.67111222,1556.971592
10.0000,-27.17811737,89.75125304,1557.114589
10.0050,-27.23453469,89.83404874,1557.253591
10.0100,-27.29698146,89.91943436,1557.387365
10.0150,-27.36411203,90.00881214,1557.516196
10.0200,-27.43565973,90.10019418,1557.63786
10.0250,-27.51163629,90.19337458,1557.752521
10.0300,-27.59176072,90.28870226,1557.859255
10.0350,-27.67652654,90.38536235,1557.95773
10.0400,-27.7655183,90.48376489,1558.047357
10.0450,-27.85753021,90.58265464,1558.127283
10.0500,-27.95267106,90.68268675,1558.197307
10.0550,-28.05292409,90.78258801,1558.258337
10.0600,-28.15734216,90.88288524,1558.309144
10.0650,-28.26598561,90.98433296,1558.349293
10.0700,-28.37898607,91.08742428,1558.379196
10.0750,-28.49586898,91.19120571,1558.397464
10.0800,-28.61574528,91.29755443,1558.404976
10.0850,-28.73910188,91.40541043,1558.401062
10.0900,-28.8638976,91.5154836,1558.38552
10.0950,-28.9911055,91.62767622,1558.35855
10.1000,-29.1190225,91.74262795,1558.318778
10.1050,-29.24870144,91.85990952,1558.26627
10.1100,-29.38125805,91.9800993,1558.20149
10.1150,-29.51605561,92.10265058,1558.123883
10.1200,-29.65460912,92.22760091,1558.03376
10.1250,-29.79590059,92.35388319,1557.931503
10.1300,-29.93903074,92.48385726,1557.816822
10.1350,-30.0854571,92.61696067,1557.690179
10.1400,-30.23450272,92.75429383,1557.552305
10.1450,-30.38572923,92.89471028,1557.402312
10.1500,-30.53977754,93.03863152,1557.241379
10.1550,-30.69491628,93.18754272,1557.068997
10.1600,-30.8508911,93.34086166,1556.88617
10.1650,-31.00871023,93.49778677,1556.692445
10.1700,-31.16803618,93.65964761,1556.488478
10.1750,-31.3279968,93.8269098,1556.275066
10.1800,-31.48928267,93.99972107,1556.053418
10.1850,-31.65159968,94.17765123,1555.822675
10.1900,-31.81591955,94.36016267,1555.584764
10.1950,-31.98157095,94.54948177,1555.339949
10.2000,-32.14926272,94.74484247,1555.088792
10.2050,-32.31833564,94.94801409,1554.83231
10.2100,-32.48853251,95.15822382,1554.569842
10.2150,-32.66030603,95.37604545,1554.302601
10.2200,-32.8338304,95.60144397,1554.030883
10.2250,-33.00928855,95.83323794,1553.754946
10.2300,-33.18693791,96.07187535,1553.474927
10.2350,-33.36682284,96.31716364,1553.190644
10.2400,-33.54963862,96.56882271,1552.902386
10.2450,-33.73495807,96.82624341,1552.609734
10.2500,-33.92332337,97.08820709,1552.312403
10.2550,-34.11434988,97.35473378,1552.010369
10.2600,-34.30875242,97.62586179,1551.704041
10.2650,-34.50776556,97.89928986,1551.393057
10.2700,-34.7128747,98.17585288,1551.077527
10.2750,-34.92333406,98.45421315,1550.757411
10.2800,-35.13939825,98.73342695,1550.432654
10.2850,-35.36100034,99.01435928,1550.103409
10.2900,-35.5899234,99.29509739,1549.769584
10.2950,-35.82590135,99.5759733,1549.430965
10.3000,-36.06998788,99.8560789,1549.087238
10.3050,-36.32125776,100.1354763,1548.737652
10.3100,-36.57945683,100.4142376,1548.382318
10.3150,-36.84516841,100.6905872,1548.020004
10.3200,-37.11827142,100.9662269,1547.651571
10.3250,-37.40051095,101.2397857,1547.275916
10.3300,-37.69125587,101.5115357,1546.893405
10.3350,-37.99119106,101.7813105,1546.503095
10.3400,-38.29881186,102.0481465,1546.105165
10.3450,-38.61451751,102.3129094,1545.699527
10.3500,-38.93780462,102.5751212,1545.285364
10.3550,-39.26698463,102.8357973,1544.86231
10.3600,-39.60326004,103.0927853,1544.429818
10.3650,-39.94598652,103.3477896,1543.988585
10.3700,-40.29436369,103.5982691,1543.537331
10.3750,-40.64843297,103.845542,1543.076675
10.3800,-41.00854475,104.0894058,1542.605616
10.3850,-41.37418784,104.3304333,1542.124585
10.3900,-41.74583293,104.5677547,1541.633204
10.3950,-42.1222106,104.8012704,1541.132367
10.4000,-42.50427869,105.0323043,1540.622523
10.4050,-42.890298,105.2609199,1540.103734
10.4100,-43.2794157,105.4876847,1539.576113
10.4150,-43.67158671,105.7136547,1539.040833
10.4200,-44.06566907,105.9394396,1538.497942
10.4250,-44.46256791,106.1663101,1537.947254
10.4300,-44.86207828,106.3937828,1537.389699
10.4350,-45.26349133,106.6217916,1536.824746
10.4400,-45.66629738,106.8504281,1536.253098
10.4450,-46.07066937,107.0806722,1535.674762
10.4500,-46.47491602,107.3125279,1535.08995
10.4550,-46.87932381,107.5454192,1534.498589
10.4600,-47.28473481,107.7809791,1533.90127
10.4650,-47.68928225,108.0190252,1533.297949
10.4700,-48.09309601,108.2589941,1532.688534
10.4750,-48.49702708,108.5021942,1532.074039
10.4800,-48.9003542,108.7479688,1531.454162
10.4850,-49.30442902,108.9964983,1530.829529
10.4900,-49.70771851,109.2480645,1530.199826
10.4950,-50.11111214,109.5018285,1529.566404
10.5000,-50.5154169,109.7575578,1528.92893
10.5050,-50.91990704,110.0151545,1528.288154
10.5100,-51.32463482,110.2736783,1527.644727
10.5150,-51.72930469,110.5329703,1526.998052
10.5200,-52.134557,110.792156,1526.348784
10.5250,-52.54073007,111.0508286,1525.696254
10.5300,-52.94753338,111.3081889,1525.041714
10.5350,-53.35550923,111.5636315,1524.384715
10.5400,-53.76377117,111.818427,1523.725961
10.5450,-54.17390108,112.072036,1523.065622
10.5500,-54.58640088,112.3239338,1522.404591
10.5550,-55.00110626,112.5741754,1521.742223
10.5600,-55.41748615,112.8217038,1521.078219
10.5650,-55.83618086,113.067012,1520.41237
10.5700,-56.25592762,113.3094314,1519.744818
10.5750,-56.67693415,113.5493589,1519.07532
10.5800,-57.09896627,113.786185,1518.402801
10.5850,-57.52279396,114.0185739,1517.727761
10.5900,-57.94792156,114.2471235,1517.049295
10.5950,-58.37414152,114.4731967,1516.367221
10.6000,-58.80072567,114.6946617,1515.681163
10.6050,-59.22944088,114.9120389,1514.990909
10.6100,-59.66005838,115.1250062,1514.296211
10.6150,-60.09310145,115.3337921,1513.597285
10.6200,-60.52663428,115.5395787,1512.892834
10.6250,-60.96077199,115.7426532,1512.183175
10.6300,-61.39552668,115.9416436,1511.467999
10.6350,-61.8300792,116.1370835,1510.746364
10.6400,-62.26453672,116.3303906,1510.017907
10.6450,-62.69928455,116.5212413,1509.282409
10.6500,-63.1346872,116.7100795,1508.539627
10.6550,-63.57077643,116.8965921,1507.788993
10.6600,-64.00616222,117.0818394,1507.030286
10.6650,-64.44016037,117.266236,1506.263773
10.6700,-64.87275868,117.4514567,1505.4889
10.6750,-65.30436106,117.6369436,1504.70559
10.6800,-65.73422793,117.8220746,1503.91447
10.6850,-66.16173174,118.0086822,1503.115134
10.6900,-66.58643119,118.1968888,1502.308024
10.6950,-67.00751192,118.3877059,1501.492234
10.7000,-67.42477113,118.5812477,1500.667802
10.7050,-67.8390131,118.7773022,1499.835044
10.7100,-68.25038119,118.9751634,1498.99406
10.7150,-68.65853709,119.1754347,1498.144185
10.7200,-69.06478025,119.3768994,1497.285896
10.7250,-69.46768036,119.5802249,1496.419632
10.7300,-69.86795856,119.7846083,1495.54455
10.7350,-70.26557374,119.9907788,1494.662155
10.7400,-70.66149489,120.1982427,1493.771817
10.7450,-71.05470769,120.4072481,1492.873759
10.7500,-71.4463567,120.6173436,1491.967524
10.7550,-71.83671012,120.8287549,1491.054186
10.7600,-72.22547137,121.0399648,1490.132033
10.7650,-72.61242886,121.2525182,1489.202521
10.7700,-72.99785373,121.4663107,1488.265511
10.7750,-73.38201753,121.6797556,1487.319924
10.7800,-73.76547685,121.893653,1486.3668
10.7850,-74.14726555,122.1082617,1485.406712
10.7900,-74.52889249,122.3240828,1484.439793
10.7950,-74.90997091,122.5395046,1483.464587
10.8000,-75.29134717,122.7541284,1482.481968
10.8050,-75.67322935,122.9695693,1481.491611
10.8100,-76.05649598,123.1857698,1480.493839
10.8150,-76.44027669,123.4024173,1479.489385
10.8200,-76.82382255,123.6208458,1478.477966
10.8250,-77.2069388,123.8406631,1477.460178
10.8300,-77.58997475,124.0621734,1476.434955
10.8350,-77.97334474,124.2858571,1475.403411
10.8400,-78.3565494,124.510055,1474.365685
10.8450,-78.73824132,124.7348386,1473.321244
10.8500,-79.11844962,124.9616838,1472.269734
10.8550,-79.49694829,125.1890051,1471.211654
10.8600,-79.87580406,125.4167728,1470.147246
10.8650,-80.25460826,125.6453024,1469.07652
10.8700,-80.63575806,125.8743979,1468.000228
10.8750,-81.01785917,126.1048172,1466.917784
10.8800,-81.40076341,126.336887,1465.830235
10.8850,-81.78397048,126.5716853,1464.735925
10.8900,-82.16699342,126.8101589,1463.635637
10.8950,-82.55079919,127.0517443,1462.529083
10.9000,-82.93654421,127.2955358,1461.415649
10.9050,-83.32203747,127.5418299,1460.296542
10.9100,-83.70799388,127.7916688,1459.170825
10.9150,-84.09340883,128.0450194,1458.03876
10.9200,-84.47914005,128.3001171,1456.900378
10.9250,-84.86526614,128.5575771,1455.756012
10.9300,-85.25130988,128.8172106,1454.605589
10.9350,-85.63654021,129.0801028,1453.449688
10.9400,-86.02158383,129.3454554,1452.288096
10.9450,-86.40518154,129.612691,1451.120083
10.9500,-86.78681583,129.8824972,1449.945799
10.9550,-87.16602787,130.1541212,1448.764279
10.9600,-87.54365454,130.428658,1447.575938
10.9650,-87.9191848,130.7040006,1446.379494
10.9700,-88.29246384,130.9801085,1445.175769
10.9750,-88.66215357,131.2572157,1443.96371
10.9800,-89.02811494,131.5343991,1442.742729
10.9850,-89.39089482,131.8102251,1441.512577
10.9900,-89.75070454,132.0850333,1440.272426
10.9950,-90.10659545,132.3583592,1439.021548
11.0000,-90.45874203,132.6284317,1437.760146
11.0050,-90.80672759,132.8967544,1436.487521
11.0100,-91.14906733,133.1633226,1435.203596
11.0150,-91.48669836,133.4267094,1433.908466
11.0200,-91.81921187,133.688384,1432.601506
11.0250,-92.14783509,133.9479057,1431.282227
11.0300,-92.47203602,134.2047903,1429.950977
11.0350,-92.7909613,134.4591561,1428.606817
11.0400,-93.10429348,134.7103521,1427.250135
11.0450,-93.41275444,134.9585195,1425.880141
11.0500,-93.71603353,135.2034227,1424.497566
11.0550,-94.01379843,135.4461607,1423.101911
11.0600,-94.30622983,135.6854911,1421.693922
11.0650,-94.59190546,135.9212218,1420.273501
11.0700,-94.87129811,136.1536294,1418.840564
11.0750,-95.1440853,136.3822997,1417.395405
11.0800,-95.40981684,136.6066396,1415.938459
11.0850,-95.66980295,136.825858,1414.469141
11.0900,-95.92187852,137.0406926,1412.986648
11.0950,-96.16594886,137.2528055,1411.492488
11.1000,-96.4015386,137.462089,1409.986566
11.1050,-96.62869978,137.6679089,1408.469235
11.1100,-96.84636664,137.8713837,1406.940055
11.1150,-97.05587142,138.0718253,1405.398321
11.1200,-97.25749078,138.2682489,1403.843639
11.1250,-97.45063513,138.4608519,1402.276222
11.1300,-97.63466198,138.6491591,1400.696175
11.1350,-97.80893016,138.8336698,1399.103514
11.1400,-97.9743692,139.0149433,1397.497767
11.1450,-98.13169865,139.1915913,1395.879777
11.1500,-98.28070142,139.3640389,1394.250415
11.1550,-98.42109966,139.5321757,1392.609119
11.1600,-98.54986856,139.6966823,1390.956368
11.1650,-98.66786982,139.8573184,1389.291926
11.1700,-98.7719929,140.0143081,1387.616437
11.1750,-98.86408792,140.1670788,1385.929261
11.1800,-98.94335234,140.3144874,1384.229366
11.1850,-99.01006861,140.4565896,1382.518059
11.1900,-99.06326057,140.5918534,1380.794229
11.1950,-99.10127104,140.7192191,1379.058317
11.2000,-99.12206392,140.8418572,1377.309952
11.2050,-99.12587473,140.959606,1375.548822
11.2100,-99.11135103,141.0711014,1373.775328
11.2150,-99.07853999,141.1757202,1371.987775
11.2200,-99.02613965,141.27441,1370.187135
11.2250,-98.95250914,141.3665264,1368.373149
11.2300,-98.85800854,141.4522119,1366.544519
11.2350,-98.74353566,141.5305913,1364.70235
11.2400,-98.60878928,141.6012671,1362.845722
11.2450,-98.45443948,141.664089,1360.975037
11.2500,-98.28152735,141.718012,1359.090323
11.2550,-98.09026935,141.7631783,1357.192749
11.2600,-97.88089602,141.7985391,1355.281393
11.2650,-97.65361068,141.8246122,1353.356076
11.2700,-97.41049578,141.8412635,1351.416432
11.2750,-97.15251597,141.8468765,1349.463553
11.2800,-96.88026302,141.8428175,1347.497564
11.2850,-96.59451514,141.8293314,1345.519531
11.2900,-96.29529357,141.8057647,1343.530313
11.2950,-95.98383375,141.7729172,1341.530987
11.3000,-95.66177213,141.7312926,1339.521919
11.3050,-95.33149287,141.6802351,1337.50364
11.3100,-94.99463504,141.6196895,1335.475815
11.3150,-94.652494,141.5503029,1333.439847
11.3200,-94.30454165,141.4728222,1331.396288
11.3250,-93.95006184,141.3881734,1329.345622
11.3300,-93.58965199,141.2976787,1327.289179
11.3350,-93.22372462,141.2029528,1325.227211
11.3400,-92.85253687,141.1059556,1323.159736
11.3450,-92.47577809,141.0060112,1321.087591
11.3500,-92.09142215,140.9039266,1319.011228
11.3550,-91.69919375,140.7996359,1316.931186
11.3600,-91.29814882,140.6950799,1314.847831
11.3650,-90.88973386,140.5904674,1312.759724
11.3700,-90.47346939,140.485831,1310.667891
11.3750,-90.05176601,140.3820171,1308.572052
11.3800,-89.62436959,140.2804413,1306.472595
11.3850,-89.19107794,140.1817297,1304.370148
11.3900,-88.75437071,140.0868088,1302.265741
11.3950,-88.31541025,139.9942228,1300.157318
11.4000,-87.87552546,139.9056293,1298.044399
11.4050,-87.43456812,139.8205236,1295.926555
11.4100,-86.99322228,139.7393427,1293.804223
11.4150,-86.54974833,139.6634074,1291.677408
11.4200,-86.10460566,139.5931262,1289.547033
11.4250,-85.65826771,139.5304248,1287.413392
11.4300,-85.21015958,139.4751453,1285.277412
11.4350,-84.76073949,139.4266484,1283.138828
11.4400,-84.30954873,139.3857547,1280.998122
11.4450,-83.85583092,139.3544287,1278.855041
11.4500,-83.39901894,139.3312109,1276.708726
11.4550,-82.93838157,139.3172397,1274.560122
11.4600,-82.47353918,139.3116577,1272.408096
11.4650,-82.00352569,139.3154609,1270.253015
11.4700,-81.52872527,139.3285547,1268.09335
11.4750,-81.04670336,139.3497145,1265.928882
11.4800,-80.55690565,139.3800736,1263.760095
11.4850,-80.05813819,139.4172992,1261.586095
11.4900,-79.5497971,139.4608117,1259.406901
11.4950,-79.03105728,139.5108423,1257.221574
11.5000,-78.50286464,139.5638294,1255.030778
11.5050,-77.96505199,139.6187652,1252.832999
11.5100,-77.41849265,139.6728754,1250.628531
11.5150,-76.86361627,139.7266035,1248.418039
11.5200,-76.3032652,139.7774004,1246.200175
11.5250,-75.73746875,139.8243819,1243.974422
11.5300,-75.16586244,139.8678952,1241.741612
11.5350,-74.58948163,139.9067897,1239.501448
11.5400,-74.00828861,139.9397408,1237.253969
11.5450,-73.42341489,139.9676983,1234.999979
11.5500,-72.83377223,139.988698,1232.739604
11.5550,-72.23865707,140.0035612,1230.472841
11.5600,-71.63801407,140.0114205,1228.200934
11.5650,-71.03077304,140.0117154,1225.92571
11.5700,-70.41567565,140.0038101,1223.648
11.5750,-69.79245331,139.9874188,1221.368987
11.5800,-69.16074946,139.9611754,1219.089876
11.5850,-68.5191217,139.9233847,1216.810462
11.5900,-67.87048877,139.8725856,1214.532761
11.5950,-67.21458761,139.8089319,1212.25659
11.6000,-66.55136736,139.7314688,1209.983456
11.6050,-65.87938498,139.6406705,1207.714959
11.6100,-65.19818717,139.5374635,1205.452711
11.6150,-64.5045096,139.422859,1203.19637
11.6200,-63.79882253,139.2962095,1200.947169
11.6250,-63.08136879,139.1562815,1198.705866
11.6300,-62.34961508,139.0041515,1196.471318
11.6350,-61.60376803,138.8376084,1194.244777
11.6400,-60.84320688,138.6557566,1192.027483
11.6450,-60.06904167,138.4592867,1189.819878
11.6500,-59.28228374,138.2487726,1187.622073
11.6550,-58.48339312,138.023286,1185.434808
11.6600,-57.67404927,137.781238,1183.25878
11.6650,-56.85502374,137.5236866,1181.096052
11.6700,-56.02664832,137.2493956,1178.946631
11.6750,-55.18663247,136.9612487,1176.812055
11.6800,-54.33571469,136.6573234,1174.691955
11.6850,-53.47401023,136.3393494,1172.586836
11.6900,-52.60117709,136.0057201,1170.496145
11.6950,-51.71772104,135.6577839,1168.421456
11.7000,-50.82275515,135.29481,1166.364305
11.7050,-49.91677112,134.9190265,1164.324948
11.7100,-48.99996394,134.5300294,1162.303048
11.7150,-48.07403674,134.1268513,1160.298218
11.7200,-47.13791829,133.7098402,1158.310585
11.7250,-46.19362857,133.2775005,1156.340083
11.7300,-45.24117306,132.8309651,1154.386434
11.7350,-44.28100164,132.3708514,1152.449953
11.7400,-43.31292815,131.8972533,1150.530761
11.7450,-42.33668018,131.4114293,1148.628843
11.7500,-41.35360348,130.9153277,1146.744916
11.7550,-40.36294704,130.408833,1144.877905
11.7600,-39.36380026,129.8943557,1143.027221
11.7650,-38.35685524,129.3716158,1141.193577
11.7700,-37.34161023,128.8408296,1139.377031
11.7750,-36.31857516,128.3054763,1137.578261
11.7800,-35.28876206,127.7637537,1135.796221
11.7850,-34.25264723,127.2181133,1134.031011
11.7900,-33.21039647,126.6689162,1132.282301
11.7950,-32.16375226,126.1144113,1130.55012
11.8000,-31.11249847,125.5574264,1128.834508
11.8050,-30.05658296,124.997195,1127.135188
11.8100,-28.99712506,124.436321,1125.451863
11.8150,-27.9351272,123.8736466,1123.784391
11.8200,-26.87056811,123.3087803,1122.132377
11.8250,-25.80494823,122.7433676,1120.496271
11.8300,-24.73966845,122.1761339,1118.875111
11.8350,-23.67418993,121.6074809,1117.268793
11.8400,-22.60983064,121.0384681,1115.67711
11.8450,-21.54561481,120.4689058,1114.100042
11.8500,-20.48017681,119.9000646,1112.537275
11.8550,-19.41465192,119.3307185,1110.988484
11.8600,-18.34984011,118.7622375,1109.454291
11.8650,-17.28665987,118.1950624,1107.933606
11.8700,-16.22516223,117.630197,1106.426374
11.8750,-15.16541806,117.0684018,1104.932142
11.8800,-14.10717889,116.5103247,1103.450914
11.8850,-13.0512847,115.9581973,1101.98297
11.8900,-11.99575598,115.4128885,1100.527721
11.8950,-10.94096755,114.8741639,1099.085181
11.9000,-9.884808951,114.3439429,1097.654288
11.9050,-8.827315895,113.8222155,1096.235098
11.9100,-7.76886779,113.3080942,1094.826857
11.9150,-6.71034082,112.800849,1093.430036
11.9200,-5.652134436,112.3001871,1092.044604
11.9250,-4.594153295,111.8070209,1090.671128
11.9300,-3.538096888,111.32,1089.309943
11.9350,-2.484511371,110.8385333,1087.961078
11.9400,-1.433606613,110.3625019,1086.624026
11.9450,-0.384701536,109.8912014,1085.299399
11.9500,0.6628146159,109.4236937,1083.987279
11.9550,1.709142838,108.9607376,1082.687908
11.9600,2.755251351,108.5033935,1081.400831
11.9650,3.802465133,108.051128,1080.125738
11.9700,4.851803711,107.605322,1078.862495
11.9750,5.903632925,107.1644724,1077.611215
11.9800,6.959165397,106.7297584,1076.371349
11.9850,8.019759661,106.2992283,1075.142501
11.9900,9.085002439,105.8740521,1073.926085
11.9950,10.15641021,105.4545078,1072.721391
12.0000,11.23399822,105.0401128,1071.527958
12.0050,12.31817332,104.6301306,1070.345476
12.0100,13.40760123,104.2243679,1069.174915
12.0150,14.5028712,103.8228852,1068.015996
12.0200,15.60132576,103.4261242,1066.869262
12.0250,16.70508326,103.0345973,1065.734017
12.0300,17.81314613,102.6485525,1064.609479
12.0350,18.92598091,102.2690727,1063.495845
12.0400,20.04139666,101.8954682,1062.393034
12.0450,21.15902965,101.5283003,1061.301032
12.0500,22.2792257,101.1667207,1060.21901
12.0550,23.40171089,100.8120403,1059.147021
12.0600,24.52335566,100.4614424,1058.085692
12.0650,25.64548687,100.1154896,1057.03424
12.0700,26.76666576,99.77421305,1055.992736
12.0750,27.88650593,99.43554485,1054.960575
12.0800,29.00448291,99.10053841,1053.938746
12.0850,30.12065551,98.76747626,1052.926131
12.0900,31.2339777,98.43613315,1051.923055
12.0950,32.34472448,98.10832832,1050.92996
12.1000,33.45164156,97.78107692,1049.946009
12.1050,34.55342188,97.45436211,1048.971475
12.1100,35.64996687,97.12728713,1048.005965
12.1150,36.74116561,96.80101786,1047.050061
12.1200,37.82787554,96.47638836,1046.103861
12.1250,38.90934395,96.15269938,1045.167386
12.1300,39.98513571,95.83017956,1044.241241
12.1350,41.05598692,95.50855785,1043.324788
12.1400,42.12080511,95.18803732,1042.418485
12.1450,43.17945413,94.86876664,1041.52197
12.1500,44.22914865,94.55109285,1040.636032
12.1550,45.27043229,94.2358932,1039.760819
12.1600,46.30466217,93.92199649,1038.895468
12.1650,47.33106208,93.60846412,1038.039855
12.1700,48.34873301,93.29696243,1037.19528
12.1750,49.35790143,92.9852766,1036.361
12.1800,50.35787073,92.67274746,1035.536901
12.1850,51.34788865,92.35769983,1034.723128
12.1900,52.3301003,92.04084332,1033.918907
12.1950,53.30431345,91.7197872,1033.124015
12.2000,54.27054596,91.39321293,1032.338518
12.2050,55.22946569,91.0603279,1031.561906
12.2100,56.18162587,90.72266793,1030.79483
12.2150,57.12843774,90.378871,1030.036472
12.2200,58.07252726,90.02901029,1029.286505
12.2250,59.01488343,89.67388231,1028.54485
12.2300,59.95754754,89.31259858,1027.811264
12.2350,60.90285212,88.94771105,1027.085809
12.2400,61.85190092,88.57861728,1026.368477
12.2450,62.80625614,88.20680412,1025.659058
12.2500,63.76695396,87.8335378,1024.957824
12.2550,64.73405839,87.459137,1024.26496
12.2600,65.70931716,87.08534055,1023.580518
12.2650,66.69132664,86.71175176,1022.904507
12.2700,67.67969324,86.33960704,1022.237484
12.2750,68.67424767,85.9684239,1021.579172
12.2800,69.67483115,85.59986218,1020.929674
12.2850,70.68079472,85.2359202,1020.289369
12.2900,71.69118817,84.87603733,1019.657736
12.2950,72.70461773,84.520593,1019.035225
12.3000,73.71984239,84.17019663,1018.42181
12.3050,74.73461453,83.82406831,1017.817524
12.3100,75.74922709,83.48259877,1017.221852
12.3150,76.76077777,83.14418201,1016.634792
12.3200,77.7695258,82.80935607,1016.055941
12.3250,78.77380707,82.47755134,1015.485578
12.3300,79.7726215,82.1480213,1014.923222
12.3350,80.76393141,81.8205536,1014.369158
12.3400,81.74871423,81.49532463,1013.822957
12.3450,82.72539149,81.17148458,1013.284668
12.3500,83.6926091,80.84964513,1012.754477
12.3550,84.65045858,80.52915143,1012.232129
12.3600,85.59921976,80.21164344,1011.717613
12.3650,86.53901982,79.89779326,1011.211094
12.3700,87.47242396,79.58732617,1010.712074
12.3750,88.39884189,79.28056824,1010.220777
12.3800,89.32014417,78.97760067,1009.736394
12.3850,90.23594336,78.67988833,1009.259661
12.3900,91.14697581,78.38843206,1008.790637
12.3950,92.05318564,78.10229652,1008.32898
12.4000,92.95547639,77.82323217,1007.874933
12.4050,93.85435162,77.55302849,1007.428759
12.4100,94.74964927,77.29161904,1006.990394
12.4150,95.64084246,77.03779321,1006.559461
12.4200,96.5276088,76.79194162,1006.136067
12.4250,97.40938687,76.55231092,1005.719654
12.4300,98.28590111,76.32003512,1005.310638
12.4350,99.15556038,76.0948093,1004.909246
12.4400,100.0189019,75.87570848,1004.515364
12.4450,100.8752309,75.66197035,1004.128952
12.4500,101.7269801,75.45272275,1003.749265
12.4550,102.5732245,75.24631533,1003.376191
12.4600,103.4129795,75.04304865,1003.009957
12.4650,104.2479237,74.84256301,1002.650445
12.4700,105.0773791,74.6426661,1002.297168
12.4750,105.9034539,74.4444892,1001.950082
12.4800,106.726443,74.24763797,1001.609046
12.4850,107.5474465,74.05190416,1001.273631
12.4900,108.3659118,73.856098,1000.944002
12.4950,109.1811345,73.66018331,1000.62007
12.5000,109.9942243,73.46411508,1000.30174
12.5050,110.8045575,73.26743168,999.9890727
12.5100,111.6135927,73.068447,999.6811789
12.5150,112.4202165,72.86773291,999.3783468
12.5200,113.2233203,72.66563508,999.0809055
12.5250,114.0219779,72.46058037,998.7883035
12.5300,114.8165935,72.25513274,998.5009339
12.5350,115.6053826,72.0476881,998.2185013
12.5400,116.387416,71.83989941,997.9414469
12.5450,117.1625363,71.6327595,997.6698668
12.5500,117.9294802,71.42491401,997.4033396
12.5550,118.6884696,71.21694469,997.1419172
12.5600,119.4375695,71.00792843,996.8855811
12.5650,120.1759198,70.79919153,996.6347651
12.5700,120.902472,70.59052409,996.3894366
12.5750,121.618299,70.3841517,996.1495613
12.5800,122.3247907,70.18048977,995.915078
12.5850,123.0212125,69.98073668,995.6863039
12.5900,123.7093188,69.78538447,995.4627906
12.5950,124.3884442,69.59414135,995.2445264
12.6000,125.0580357,69.40689662,995.0314286
12.6050,125.7182838,69.22301417,994.8236539
12.6100,126.3684777,69.04154189,994.6210615
12.6150,127.0097794,68.86315431,994.423571
12.6200,127.6426104,68.68840614,994.231359
12.6250,128.2684558,68.5153419,994.0435552
12.6300,128.8890069,68.34536346,993.8603509
12.6350,129.5050404,68.17640885,993.6810358
12.6400,130.1165267,68.00915104,993.5057507
12.6450,130.7251993,67.84366603,993.3339045
12.6500,131.3317215,67.67900826,993.1653464
12.6550,131.9349373,67.51684178,993.0003641
12.6600,132.5347015,67.35764071,992.8388464
12.6650,133.1312148,67.2022422,992.6807331
12.6700,133.7230041,67.05196401,992.5261788
12.6750,134.3111744,66.90880148,992.3751314
12.6800,134.8959087,66.77259118,992.227598
12.6850,135.4761747,66.645655,992.08388
12.6900,136.051533,66.52739857,991.943714
12.6950,136.621024,66.41816906,991.8072702
12.7000,137.1833156,66.31764992,991.6746313
12.7050,137.7391399,66.2258159,991.5455894
12.7100,138.2886928,66.14194646,991.4199971
12.7150,138.8324467,66.06668688,991.2978342
12.7200,139.3714,66.00024823,991.178884
12.7250,139.9072038,65.94304665,991.0630525
12.7300,140.4415186,65.89402421,990.9497265
12.7350,140.9757585,65.85223803,990.8385682
12.7400,141.5120747,65.81732285,990.7290832
12.7450,142.0524674,65.7898758,990.6211638
12.7500,142.5960301,65.77011682,990.5149917
12.7550,143.1444856,65.75737549,990.4102082
12.7600,143.6991739,65.75085113,990.3066251
12.7650,144.2606911,65.75112138,990.204158
12.7700,144.8299786,65.7568843,990.1025882
12.7750,145.4057184,65.76805733,990.0021539
12.7800,145.9876793,65.78360187,989.9027257
12.7850,146.5755252,65.80349846,989.8044916
12.7900,147.168256,65.82662659,989.7074082
12.7950,147.7659974,65.85396474,989.6118354
12.8000,148.3661359,65.88569434,989.5182214
12.8050,148.9672566,65.92142396,989.4267518
12.8100,149.5682213,65.96064828,989.3374291
12.8150,150.1687694,66.00438816,989.2506473
12.8200,150.7660651,66.05219061,989.166598
12.8250,151.3599433,66.10436832,989.08547
12.8300,151.9486146,66.15830463,989.0070221
12.8350,152.5303747,66.21539379,988.9318807
12.8400,153.1056311,66.27418557,988.8595867
12.8450,153.6708643,66.33285264,988.7903189
12.8500,154.2274748,66.39376998,988.7243423
12.8550,154.7733213,66.45588964,988.6616686
12.8600,155.3083624,66.51965989,988.6022888
12.8650,155.8342707,66.58424235,988.5457349
12.8700,156.3525551,66.65013701,988.4918833
12.8750,156.8603242,66.71641014,988.4408586
12.8800,157.3544054,66.78268705,988.3929173
12.8850,157.8342038,66.84687837,988.3476938
12.8900,158.2986003,66.91014803,988.3056671
12.8950,158.7477342,66.97125542,988.266305
12.9000,159.1816697,67.03000328,988.2295256
12.9050,159.6005872,67.08679505,988.1951631
12.9100,160.003514,67.14243528,988.1634107
12.9150,160.3885996,67.19739815,988.1345504
12.9200,160.7544496,67.25104544,988.1084327
12.9250,161.0975224,67.30438367,988.0856651
12.9300,161.4148851,67.35621665,988.0663731
12.9350,161.7055123,67.40790645,988.0508118
12.9400,161.9669153,67.45851263,988.0390435
12.9450,162.1973167,67.50734647,988.0310856
12.9500,162.3955007,67.55504185,988.0270259
12.9550,162.5616123,67.60175228,988.0269016
12.9600,162.6954259,67.64666567,988.0304435
12.9650,162.7950511,67.68909092,988.0377672
12.9700,162.8598601,67.72867039,988.0488683
12.9750,162.8885879,67.76541451,988.0640418
12.9800,162.8794549,67.80016028,988.0834903
12.9850,162.8341081,67.82998592,988.1065735
12.9900,162.7510523,67.85514473,988.1335006
12.9950,162.6324807,67.8769614,988.1642819
13.0000,162.4800692,67.89512286,988.1986186
13.0050,162.2933153,67.90877822,988.2362603
13.0100,162.0733846,67.91975786,988.2775282
13.0150,161.8221054,67.92728687,988.3219482
13.0200,161.5383959,67.93143539,988.3698268
13.0250,161.2245729,67.93217148,988.4207258
13.0300,160.8807356,67.92858358,988.4746351
13.0350,160.5085285,67.91976812,988.5310966
13.0400,160.1093329,67.90681351,988.5903651
13.0450,159.6835505,67.88725465,988.6518706
13.0500,159.2323221,67.86159482,988.7155375
13.0550,158.7579375,67.82976709,988.781159
13.0600,158.2598392,67.79245959,988.8488781
13.0650,157.7377161,67.74892681,988.9186833
13.0700,157.1947919,67.69998912,988.9903203
13.0750,156.6336322,67.64496891,989.0632917
13.0800,156.0571721,67.58531175,989.1374716
13.0850,155.4685379,67.52021193,989.2122263
13.0900,154.8717089,67.45112723,989.2872281
13.0950,154.2678123,67.37760204,989.3622109
13.1000,153.658284,67.3000876,989.4370096
13.1050,153.0459736,67.21743111,989.5109626
13.1100,152.4310975,67.12991508,989.5842396
13.1150,151.8144179,67.03731895,989.6567525
13.1200,151.198941,66.93869639,989.728019
13.1250,150.5847875,66.83360639,989.7980325
13.1300,149.9732554,66.72307908,989.8668786
13.1350,149.3646625,66.60580423,989.9342268
13.1400,148.7582174,66.48160981,990.0001628
13.1450,148.1558828,66.35334994,990.064984
13.1500,147.5573879,66.21930563,990.1284138
13.1550,146.9633552,66.08138535,990.1907249
13.1600,146.3724486,65.94037975,990.2521946
13.1650,145.7835665,65.79707806,990.3131694
13.1700,145.195051,65.6522701,990.3738755
13.1750,144.6039352,65.50747956,990.4351633
13.1800,144.0101354,65.36313029,990.4970283
13.1850,143.4123886,65.22019502,990.5598975
13.1900,142.8079463,65.08037393,990.6244003
13.1950,142.1947484,64.94512004,990.6911941
13.2000,141.5712013,64.8156019,990.7607523
13.2050,140.9338408,64.6916559,990.8336796
13.2100,140.2827199,64.57439897,990.9101605
13.2150,139.6162387,64.46439222,990.9907185
13.2200,138.9326366,64.36006828,991.0753639
13.2250,138.2326669,64.26265874,991.1644531
13.2300,137.514674,64.17144166,991.2581523
13.2350,136.7793917,64.08556673,991.35653
13.2400,136.0271315,64.00520427,991.4596354
13.2450,135.2559094,63.9305225,991.5680919
13.2500,134.467409,63.86108574,991.6816697
13.2550,133.6601149,63.7959413,991.8006914
13.2600,132.8354708,63.73572132,991.92523
13.2650,131.9941668,63.67941433,992.0550272
13.2700,131.138061,63.62787951,992.1901897
13.2750,130.2663154,63.58079714,992.3309191
13.2800,129.3817282,63.53659479,992.4766855
13.2850,128.4834774,63.49669899,992.6280131
13.2900,127.5736875,63.46165596,992.7846535
13.2950,126.6517722,63.43190692,992.9469702
13.3000,125.7179113,63.40685233,993.1150511
13.3050,124.7726397,63.38681028,993.2890499
13.3100,123.8164025,63.37156924,993.468959
13.3150,122.8491431,63.36040914,993.654813
13.3200,121.8710348,63.35264419,993.84661
13.3250,120.8809594,63.34804397,994.0448013
13.3300,119.8782777,63.34699482,994.2496539
13.3350,118.8629812,63.34958598,994.4615505
13.3400,117.8338063,63.35425901,994.6805561
13.3450,116.7916364,63.36275838,994.9070603
13.3500,115.7370107,63.37306312,995.140977
13.3550,114.6700443,63.38669601,995.3827766
13.3600,113.5933345,63.40143225,995.631891
13.3650,112.5083263,63.41655203,995.8882855
13.3700,111.4140037,63.43059032,996.1520986
13.3750,110.3107341,63.44459087,996.4239325
13.3800,109.1980971,63.45801684,996.7041699
13.3850,108.0760669,63.47224244,996.9934852
13.3900,106.9438188,63.48575049,997.2923133
13.3950,105.8028632,63.49966434,997.6009728
13.4000,104.6570382,63.51133303,997.9186704
13.4050,103.5070256,63.52246669,998.2462193
13.4100,102.3545283,63.53209178,998.5836194
13.4150,101.2007572,63.54094589,998.9312885
13.4200,100.0447043,63.54810129,999.2898422
13.4250,98.88788449,63.55459073,999.6597087
13.4300,97.72807477,63.55943555,1000.041621
13.4350,96.56748894,63.56268152,1000.43593
13.4400,95.40510749,63.56519688,1000.8437
13.4450,94.24125436,63.56634226,1001.265704
13.4500,93.07438477,63.56599716,1001.702914
13.4550,91.90501593,63.56421514,1002.156256
13.4600,90.73489059,63.56161204,1002.626366
13.4650,89.56295377,63.55773656,1003.114343
13.4700,88.39038584,63.55178741,1003.62093
13.4750,87.21905868,63.54410979,1004.14666
13.4800,86.04921505,63.5341653,1004.692578
13.4850,84.8798527,63.52259032,1005.259867
13.4900,83.71298366,63.50741312,1005.848861
13.4950,82.54968335,63.48949191,1006.46073
13.5000,81.39087613,63.4684788,1007.096154
13.5050,80.23906647,63.44614874,1007.755834
13.5100,79.09259627,63.42194719,1008.44121
13.5150,77.9547354,63.39707989,1009.152563
13.5200,76.82601832,63.37246161,1009.89101
13.5250,75.70635507,63.34913984,1010.657315
13.5300,74.59612864,63.32821917,1011.452081
13.5350,73.49397939,63.31112271,1012.276092
13.5400,72.3986927,63.2986051,1013.129625
13.5450,71.31029813,63.29140065,1014.012722
13.5500,70.22484812,63.29078183,1014.926448
13.5550,69.14077314,63.29646326,1015.870218
13.5600,68.05326996,63.30959191,1016.844932
13.5650,66.95923393,63.33142757,1017.850482
13.5700,65.85364952,63.36255215,1018.887431
13.5750,64.73355123,63.40273474,1019.954556
13.5800,63.59416591,63.4551602,1021.052369
13.5850,62.43174056,63.52084054,1022.180472
13.5900,61.24258828,63.6005095,1023.338934
13.5950,60.02554061,63.69420109,1024.526407
13.6000,58.77932615,63.80364424,1025.742612
13.6050,57.5003736,63.93001141,1026.987001
13.6100,56.18820542,64.07371879,1028.258548
13.6150,54.84045335,64.23594429,1029.557272
13.6200,53.45716732,64.41806649,1030.882146
13.6250,52.03857572,64.62004139,1032.232387
13.6300,50.58556694,64.84244868,1033.6073
13.6350,49.0997909,65.08719667,1035.00649
13.6400,47.58366676,65.35551294,1036.42885
13.6450,46.03966203,65.64736816,1037.873928
13.6500,44.47074889,65.96476091,1039.341235
13.6550,42.87966367,66.306806,1040.830157
13.6600,41.26835454,66.67425153,1042.340597
13.6650,39.63953106,67.06892097,1043.872594
13.6700,37.99799718,67.49133773,1045.425225
13.6750,36.34542149,67.9398273,1046.997901
13.6800,34.68447802,68.41342443,1048.589818
13.6850,33.01729747,68.91048789,1050.199691
13.6900,31.34544125,69.4316515,1051.827921
13.6950,29.67049408,69.97367986,1053.474549
13.7000,27.99302778,70.53750537,1055.140255
13.7050,26.31359819,71.12052313,1056.824772
13.7100,24.63453179,71.72285643,1058.528174
13.7150,22.95721938,72.34105681,1060.250468
13.7200,21.28417386,72.9742257,1061.99175
13.7250,19.61763364,73.61977826,1063.751436
13.7300,17.95963853,74.27540093,1065.529129
13.7350,16.31228872,74.93942647,1067.32417
13.7400,14.67722923,75.61040392,1069.136775
13.7450,13.05572455,76.28487281,1070.965577
13.7500,11.44904163,76.96082882,1072.810757
13.7550,9.856788656,77.63577889,1074.671214
13.7600,8.278787915,78.3062933,1076.546965
13.7650,6.717609918,78.97277833,1078.437104
