type,name,time_units,begin_time,frequency,count,units
signal_3d,"Noraxon MyoMotion-Trajectories-Ulnar styloid process RT","s",0.0000,200,5068,"mm"

time,x,y,z
0.0000,113.3862876,65.01440152,998.7976029
0.0050,113.4249654,65.03109794,998.7919541
0.0100,113.46364,65.04779977,998.7863116
0.0150,113.5023115,65.06450701,998.7806751
0.0200,113.552266,65.08085965,998.7727519
0.0250,113.6148746,65.0964537,998.7622222
0.0300,113.6914857,65.11088647,998.7487723
0.0350,113.783387,65.12378425,998.7321068
0.0400,113.8917594,65.13482506,998.7119621
0.0450,114.0176341,65.14375146,998.6881165
0.0500,114.1618604,65.15038028,998.6603974
0.0550,114.3250832,65.15460866,998.6286863
0.0600,114.5077198,65.15640667,998.592921
0.0650,114.7099344,65.1558041,998.5530982
0.0700,114.9316145,65.15288838,998.5092768
0.0750,115.1723542,65.14780986,998.4615821
0.0800,115.4314399,65.14078339,998.410209
0.0850,115.7078403,65.13208952,998.3554235
0.0900,116.0002077,65.12207588,998.2975618
0.0950,116.3068921,65.11115112,998.2370263
0.1000,116.6259611,65.09977505,998.1742792
0.1050,116.9552251,65.08845473,998.1098375
0.1100,117.2922684,65.07774111,998.0442658
0.1150,117.6344807,65.06821656,997.9781675
0.1200,117.9790917,65.0604746,997.9121738
0.1250,118.323215,65.05509789,997.8469298
0.1300,118.6638975,65.05263715,997.7830807
0.1350,118.9981742,65.05358926,997.7212575
0.1400,119.3231269,65.0583727,997.6620612
0.1450,119.6359458,65.06730392,997.6060466
0.1500,119.9339901,65.08058114,997.553709
0.1550,120.3074614,65.0960634,997.4878018
0.1600,120.656629,65.11403971,997.4269822
0.1650,120.9788264,65.13558542,997.3720729
0.1700,121.2727136,65.15911611,997.3229053
0.1750,121.5375332,65.18495249,997.279577
0.1800,121.7720893,65.21189499,997.2420998
0.1850,121.9768199,65.23924461,997.2101488
0.1900,122.1500615,65.26758818,997.1841246
0.1950,122.2912008,65.29539657,997.1639407
0.2000,122.4007325,65.32081827,997.1489852
0.2050,122.4781523,65.34358966,997.1393005
0.2100,122.5250329,65.36424178,997.1347821
0.2150,122.5415553,65.38031848,997.1348464
0.2200,122.5278572,65.39045714,997.1392333
0.2250,122.486214,65.3948173,997.1475614
0.2300,122.4170503,65.39302521,997.1597236
0.2350,122.3217725,65.38421705,997.1753577
0.2400,122.200527,65.36926764,997.1945903
0.2450,122.0549597,65.3488703,997.2172476
0.2500,121.8866177,65.32206485,997.242924
0.2550,121.6952593,65.28908632,997.2717603
0.2600,121.4855895,65.25216163,997.303351
0.2650,121.2585292,65.2109793,997.3375343
0.2700,121.0156091,65.16649124,997.3742865
0.2750,120.7587035,65.11952275,997.4133833
0.2800,120.4901783,65.07017662,997.4544871
0.2850,120.2119937,65.02024444,997.4976336
0.2900,119.9254936,64.97060655,997.5427719
0.2950,119.6348032,64.92160371,997.5891591
0.3000,119.3422056,64.87338109,997.6364536
0.3050,119.0476666,64.82601183,997.6846436
0.3100,118.7552716,64.78124943,997.7332599
0.3150,118.4667876,64.73839823,997.7817784
0.3200,118.1852392,64.69730893,997.8296452
0.3250,117.9123351,64.65854839,997.8766281
0.3300,117.6489958,64.6206855,997.9222112
0.3350,117.3968583,64.58524127,997.9663357
0.3400,117.1579378,64.54998301,998.0080938
0.3450,116.9326044,64.51615026,998.0475893
0.3500,116.7231531,64.48416829,998.0843707
0.3550,116.5279268,64.45216842,998.1183427
0.3600,116.3477198,64.41997361,998.1493002
0.3650,116.1820333,64.3882484,998.1773617
0.3700,116.0313214,64.35661489,998.2023485
0.3750,115.8942812,64.32417619,998.2241531
0.3800,115.7703545,64.29111787,998.2429912
0.3850,115.6588161,64.25801543,998.2590256
0.3900,115.5575785,64.22481474,998.272666
0.3950,115.4666183,64.18957715,998.2834451
0.4000,115.3838333,64.15386151,998.2921415
0.4050,115.3088194,64.1163927,998.298523
0.4100,115.2412543,64.07695166,998.3026548
0.4150,115.1793449,64.03504518,998.304754
0.4200,115.1229621,63.99166982,998.3050952
0.4250,115.0710173,63.94634231,998.3038816
0.4300,115.022923,63.89842739,998.3011907
0.4350,114.9780816,63.84838566,998.2971624
0.4400,114.9369022,63.79454747,998.2915021
0.4450,114.8983706,63.73692491,998.2844812
0.4500,114.8624401,63.67622384,998.2762488
0.4550,114.8289611,63.61163313,998.2666621
0.4600,114.7988268,63.54178948,998.255449
0.4650,114.7704197,63.46634477,998.2428126
0.4700,114.7437376,63.38717687,998.2292031
0.4750,114.7182683,63.30249289,998.2144177
0.4800,114.6940513,63.21342429,998.1986526
0.4850,114.6698849,63.11964936,998.1820121
0.4900,114.6473283,63.02156945,998.1643581
0.4950,114.6251542,62.92039725,998.1460811
0.5000,114.6025343,62.81639791,998.1275205
0.5050,114.5797044,62.71047735,998.1087408
0.5100,114.5568075,62.60151504,998.0894746
0.5150,114.53335,62.4897892,998.0699245
0.5200,114.5104896,62.37588337,998.0499225
0.5250,114.4876434,62.25979995,998.0295928
0.5300,114.4670909,62.14192768,998.008548
0.5350,114.4480688,62.02294352,997.9870974
0.5400,114.431568,61.90321479,997.9650942
0.5450,114.4170757,61.78228969,997.9425969
0.5500,114.4065888,61.66007479,997.9192044
0.5550,114.3999234,61.53881505,997.8953573
0.5600,114.3960189,61.41682531,997.8709925
0.5650,114.3944812,61.2947468,997.8462746
0.5700,114.394842,61.17320051,997.8214365
0.5750,114.3986611,61.05318558,997.7964846
0.5800,114.404678,60.93507945,997.7716259
0.5850,114.4130314,60.81816359,997.7468021
0.5900,114.4242293,60.70308067,997.7220048
0.5950,114.4366768,60.58996379,997.6975813
0.6000,114.4497651,60.48083136,997.6741575
0.6050,114.4646204,60.3751791,997.6513465
0.6100,114.4801008,60.27307418,997.6294735
0.6150,114.4963727,60.17517537,997.6086905
0.6200,114.5122164,60.08111122,997.5891458
0.6250,114.5282262,59.99168449,997.5709131
0.6300,114.543915,59.90607246,997.5539482
0.6350,114.5587262,59.82431743,997.538295
0.6400,114.5722358,59.74707916,997.5242922
0.6450,114.5851425,59.6737468,997.5116829
0.6500,114.5944745,59.60254674,997.500767
0.6550,114.6012152,59.5350797,997.4915763
0.6600,114.6054377,59.47034424,997.4840253
0.6650,114.6053481,59.40818088,997.4784507
0.6700,114.6006505,59.34822525,997.4749558
0.6750,114.5905711,59.28997946,997.473578
0.6800,114.5744045,59.23280597,997.4743574
0.6850,114.5525526,59.17558759,997.4770686
0.6900,114.5245054,59.11764957,997.481631
0.6950,114.4899729,59.05838415,997.4880721
0.7000,114.4476198,58.99695335,997.4964295
0.7050,114.3971402,58.93442026,997.5069903
0.7100,114.3382422,58.86906613,997.5195042
0.7150,114.2710611,58.80109971,997.5339043
0.7200,114.194883,58.7287214,997.5499746
0.7250,114.1111291,58.65247476,997.5675291
0.7300,114.0185879,58.57266235,997.5867309
0.7350,113.9183291,58.48837693,997.6072215
0.7400,113.8090683,58.39966324,997.6291263
0.7450,113.6931926,58.30691249,997.6520458
0.7500,113.5697074,58.20876453,997.6757816
0.7550,113.4392179,58.10598068,997.7003268
0.7600,113.3016921,57.99991227,997.7258696
0.7650,113.158993,57.89008556,997.7518109
0.7700,113.0115383,57.77623251,997.7779356
0.7750,112.859283,57.65952343,997.8043731
0.7800,112.7026972,57.53995667,997.8309992
0.7850,112.5425716,57.41783147,997.8577383
0.7900,112.3786271,57.29250881,997.8843964
0.7950,112.2119105,57.16359704,997.9106418
0.8000,112.043506,57.03136134,997.936276
0.8050,111.8743879,56.89717612,997.9613653
0.8100,111.7042696,56.76144992,997.9860113
0.8150,111.5351302,56.62468819,998.0098419
0.8200,111.3654282,56.48713432,998.0332548
0.8250,111.1953749,56.34955861,998.0562441
0.8300,111.0239347,56.21212138,998.0790807
0.8350,110.8516424,56.07515571,998.1017555
0.8400,110.6791689,55.937787,998.1239274
0.8450,110.5062605,55.80272122,998.1462568
0.8500,110.3323767,55.66881143,998.1686144
0.8550,110.1568832,55.53701914,998.1913017
0.8600,109.9792843,55.40743565,998.2144712
0.8650,109.8004074,55.28172866,998.238357
0.8700,109.6201541,55.15972747,998.2629143
0.8750,109.4369524,55.04092919,998.2882902
0.8800,109.2509562,54.92731746,998.3148542
0.8850,109.0632154,54.81906098,998.3424118
0.8900,108.8722701,54.7162531,998.3713011
0.8950,108.6787886,54.61927484,998.4015073
0.9000,108.4828872,54.52694145,998.4328239
0.9050,108.2852062,54.43943659,998.4652147
0.9100,108.0849111,54.35641011,998.4988046
0.9150,107.8823639,54.27795327,998.5335339
0.9200,107.6783092,54.20434728,998.5692552
0.9250,107.4735129,54.13556353,998.6059417
0.9300,107.2682193,54.07150275,998.6433793
0.9350,107.0634239,54.01187709,998.681587
0.9400,106.8592005,53.95712596,998.7205068
0.9450,106.6574722,53.90700173,998.7597778
0.9500,106.4590315,53.86128377,998.7991054
0.9550,106.262717,53.81957387,998.8388616
0.9600,106.0690865,53.78180686,998.8787555
0.9650,105.8791989,53.7479414,998.9186392
0.9700,105.6917817,53.71788981,998.9588199
0.9750,105.5056973,53.69139261,998.9994981
0.9800,105.3214936,53.66850717,999.0405549
0.9850,105.1363426,53.65064683,999.0828346
0.9900,104.9501026,53.63681802,999.1261868
0.9950,104.7616478,53.62799861,999.1710656
1.0000,104.5696467,53.6237659,999.2177883
1.0050,104.373111,53.62438934,999.2665862
1.0100,104.1726758,53.62958197,999.3173178
1.0150,103.9654837,53.63923858,999.3706844
1.0200,103.752285,53.65518559,999.4270388
1.0250,103.5314804,53.67635487,999.4866345
1.0300,103.3030879,53.6998863,999.5491613
1.0350,103.0654242,53.72698398,999.6153368
1.0400,102.8195269,53.75803031,999.6853916
1.0450,102.5632173,53.79094936,999.7595375
1.0500,102.2968324,53.82566123,999.8379437
1.0550,102.019354,53.86123413,999.9209935
1.0600,101.7318598,53.89824306,1000.008686
1.0650,101.4320986,53.93502643,1000.101531
1.0700,101.1216368,53.97176906,1000.199349
1.0750,100.8006753,54.00777729,1000.302201
1.0800,100.4685102,54.04260633,1000.410348
1.0850,100.1256537,54.07581373,1000.523768
1.0900,99.77243675,54.10761259,1000.642584
1.0950,99.40804099,54.13750665,1000.767
1.1000,99.03181854,54.16674554,1000.897553
1.1050,98.64348329,54.19324104,1001.034099
1.1100,98.24217356,54.21754863,1001.177026
1.1150,97.82734873,54.24103905,1001.326976
1.1200,97.40046449,54.26266924,1001.483403
1.1250,96.95950496,54.28257665,1001.647026
1.1300,96.50515338,54.30010374,1001.817661
1.1350,96.03684987,54.31500177,1001.995433
1.1400,95.55427269,54.32730359,1002.180502
1.1450,95.05794555,54.33590666,1002.372589
1.1500,94.5480545,54.34258478,1002.572218
1.1550,94.02539213,54.34488614,1002.778749
1.1600,93.49063472,54.34297522,1002.992134
1.1650,92.94303906,54.33726121,1003.212766
1.1700,92.38372791,54.32786186,1003.440597
1.1750,91.81325668,54.31464986,1003.675527
1.1800,91.23148242,54.2955035,1003.917294
1.1850,90.63877134,54.27136181,1004.166069
1.1900,90.03508357,54.24193592,1004.421946
1.1950,89.42104935,54.20808007,1004.685127
1.2000,88.79714168,54.1687921,1004.955303
1.2050,88.16445736,54.12593905,1005.232535
1.2100,87.52304286,54.07908718,1005.516891
1.2150,86.87287404,54.02924328,1005.808622
1.2200,86.21416345,53.97639945,1006.107705
1.2250,85.54447888,53.91967467,1006.414538
1.2300,84.86634521,53.86200828,1006.729275
1.2350,84.17841662,53.80252859,1007.052022
1.2400,83.48057282,53.74139012,1007.383144
1.2450,82.77012974,53.6791892,1007.723308
1.2500,82.04824891,53.6172081,1008.07261
1.2550,81.31386767,53.5551873,1008.431521
1.2600,80.56670825,53.49340099,1008.800201
1.2650,79.80644369,53.43298931,1009.179129
1.2700,79.03215689,53.37396985,1009.568462
1.2750,78.24495046,53.31803155,1009.968656
1.2800,77.4451456,53.26503177,1010.379702
1.2850,76.63256785,53.21469982,1010.801798
1.2900,75.80730937,53.16808999,1011.235594
1.2950,74.96874585,53.12495341,1011.681284
1.3000,74.11701604,53.08571106,1012.139311
1.3050,73.25140732,53.04984022,1012.610011
1.3100,72.37141381,53.01792092,1013.093806
1.3150,71.47786994,52.98904554,1013.59064
1.3200,70.569721,52.9629673,1014.100784
1.3250,69.64710455,52.93967002,1014.624374
1.3300,68.71016799,52.92151462,1015.161902
1.3350,67.75916987,52.90654857,1015.713387
1.3400,66.79367617,52.89466561,1016.278947
1.3450,65.81430042,52.88703009,1016.858994
1.3500,64.82109783,52.88251043,1017.453597
1.3550,63.81578911,52.88337563,1018.062583
1.3600,62.79791631,52.88713163,1018.685992
1.3650,61.76899395,52.89580903,1019.323763
1.3700,60.728385,52.90856452,1019.976372
1.3750,59.67752472,52.92678104,1020.643919
1.3800,58.61589623,52.95058664,1021.326445
1.3850,57.54523797,52.98058493,1022.023864
1.3900,56.46514723,53.01654304,1022.736553
1.3950,55.37656323,53.05925403,1023.464398
1.4000,54.2794723,53.10801062,1024.207413
1.4050,53.17501576,53.16338223,1024.96529
1.4100,52.06318417,53.22631857,1025.738169
1.4150,50.94416656,53.29501281,1026.525515
1.4200,49.81680461,53.37047479,1027.32772
1.4250,48.6836755,53.45340947,1028.143927
1.4300,47.54460875,53.54308405,1028.974112
1.4350,46.3998252,53.64042411,1029.818093
1.4400,45.24847952,53.74495528,1030.676258
1.4450,44.09171361,53.85770515,1031.548497
1.4500,42.9294916,53.97771764,1032.433841
1.4550,41.76068905,54.10615109,1033.333141
1.4600,40.58635033,54.24325331,1034.24627
1.4650,39.40687167,54.38810708,1035.172739
1.4700,38.22220484,54.5402539,1036.112435
1.4750,37.03211664,54.69891548,1037.065353
1.4800,35.83613844,54.86529825,1038.032177
1.4850,34.63428247,55.03807377,1039.012834
1.4900,33.42766493,55.21884663,1040.007086
1.4950,32.21643517,55.4050466,1041.014034
1.5000,31.00082734,55.59824538,1042.0346
1.5050,29.78040946,55.79821886,1043.068945
1.5100,28.55578496,56.005197,1044.116604
1.5150,27.32692688,56.21967261,1045.17826
1.5200,26.09395126,56.44150547,1046.253851
1.5250,24.8581462,56.67217842,1047.343885
1.5300,23.61841051,56.90872291,1048.448449
1.5350,22.37381832,57.15319738,1049.568369
1.5400,21.12454563,57.4053242,1050.703462
1.5450,19.87156422,57.66590889,1051.854041
1.5500,18.61526825,57.93426249,1053.020322
1.5550,17.356339,58.21170534,1054.201856
1.5600,16.09500734,58.49768681,1055.399195
1.5650,14.83171998,58.79200205,1056.61181
1.5700,13.56695259,59.0936749,1057.839894
1.5750,12.30164702,59.40243536,1059.083144
1.5800,11.0345532,59.71814804,1060.341914
1.5850,9.766446043,60.03994538,1061.616333
1.5900,8.496970666,60.36779833,1062.905923
1.5950,7.227688997,60.70079926,1064.210599
1.6000,5.960595859,61.04004874,1065.529644
1.6050,4.696216761,61.3849077,1066.863458
1.6100,3.433806148,61.7354958,1068.212414
1.6150,2.175883307,62.09313741,1069.576458
1.6200,0.9220949232,62.4551849,1070.955244
1.6250,-0.3264568418,62.82406872,1072.348528
1.6300,-1.569554242,63.19911218,1073.756905
1.6350,-2.806675932,63.58022964,1075.179226
1.6400,-4.037382283,63.96845396,1076.6159
1.6450,-5.26074505,64.36360577,1078.066198
1.6500,-6.476344612,64.76702784,1079.529978
1.6550,-7.685946557,65.17755739,1081.008103
1.6600,-8.888029773,65.595735,1082.499889
1.6650,-10.08260486,66.0207715,1084.005089
1.6700,-11.27058332,66.45320462,1085.524165
1.6750,-12.45164372,66.8915288,1087.056886
1.6800,-13.62437353,67.33672658,1088.602658
1.6850,-14.78968978,67.78810206,1090.162051
1.6900,-15.94677157,68.24475085,1091.734467
1.6950,-17.09560061,68.70561015,1093.320144
1.7000,-18.236119,69.16952929,1094.918189
1.7050,-19.368692,69.63633509,1096.52911
1.7100,-20.49249706,70.10389571,1098.151413
1.7150,-21.60841404,70.57212149,1099.785608
1.7200,-22.71444824,71.03892148,1101.430624
1.7250,-23.81104588,71.5033521,1103.086102
1.7300,-24.89824773,71.96455264,1104.752178
1.7350,-25.97582943,72.4199258,1106.427946
1.7400,-27.04285142,72.87070001,1108.113206
1.7450,-28.09896934,73.31496945,1109.80723
1.7500,-29.14406848,73.75185869,1111.510735
1.7550,-30.17597471,74.18015165,1113.222806
1.7600,-31.19590257,74.59964552,1114.943621
1.7650,-32.20334675,75.0091574,1116.672954
1.7700,-33.1990052,75.40836806,1118.410331
1.7750,-34.18162449,75.79712714,1120.156442
1.7800,-35.14968651,76.17552924,1121.910611
1.7850,-36.1024043,76.54330735,1123.673136
1.7900,-37.04057061,76.897668,1125.444101
1.7950,-37.9634969,77.24008522,1127.224719
1.8000,-38.87103615,77.57020664,1129.013885
1.8050,-39.76316412,77.88599764,1130.812244
1.8100,-40.63928839,78.18841892,1132.620475
1.8150,-41.49931266,78.47551839,1134.43751
1.8200,-42.34361992,78.74632953,1136.263173
1.8250,-43.17316323,79.00110408,1138.097453
1.8300,-43.98946738,79.23917235,1139.940251
1.8350,-44.79165165,79.46159654,1141.792161
1.8400,-45.58085015,79.66806773,1143.652995
1.8450,-46.35763146,79.85779251,1145.522605
1.8500,-47.12403677,80.03189739,1147.401268
1.8550,-47.88083563,80.18950069,1149.288911
1.8600,-48.62944167,80.33123073,1151.184779
1.8650,-49.37216977,80.45757486,1153.089747
1.8700,-50.10952137,80.56974829,1155.00363
1.8750,-50.84408934,80.66703513,1156.926701
1.8800,-51.57501024,80.7509175,1158.858698
1.8850,-52.30315039,80.82255856,1160.798823
1.8900,-53.02840059,80.88229706,1162.747283
1.8950,-53.75243637,80.9318474,1164.705013
1.9000,-54.47678519,80.96954471,1166.67114
1.9050,-55.2022091,80.99816792,1168.645248
1.9100,-55.92718346,81.01831351,1170.62731
1.9150,-56.652769,81.02941453,1172.616221
1.9200,-57.377528,81.03466492,1174.612098
1.9250,-58.10000159,81.03202989,1176.614245
1.9300,-58.82075002,81.02276085,1178.622413
1.9350,-59.53881025,81.00796608,1180.63737
1.9400,-60.2539482,80.98800262,1182.658208
1.9450,-60.96578714,80.9622673,1184.684359
1.9500,-61.67261753,80.93128617,1186.715349
1.9550,-62.3718703,80.8970059,1188.750077
1.9600,-63.06484011,80.85995812,1190.789676
1.9650,-63.7501582,80.82135909,1192.83391
1.9700,-64.42806382,80.78178845,1194.882453
1.9750,-65.0994186,80.74365705,1196.935678
1.9800,-65.76342312,80.70540355,1198.992615
1.9850,-66.42167786,80.66634411,1201.052426
1.9900,-67.07398936,80.62957835,1203.11551
1.9950,-67.72089727,80.59380726,1205.18104
2.0000,-68.36111793,80.561406,1207.249079
2.0050,-68.99575191,80.53189108,1209.319467
2.0100,-69.62375058,80.50517855,1211.392506
2.0150,-70.24433852,80.48061394,1213.46687
2.0200,-70.85756059,80.46020371,1215.543255
2.0250,-71.46283947,80.44348469,1217.622186
2.0300,-72.05893221,80.43045336,1219.701801
2.0350,-72.64519095,80.4225383,1221.783487
2.0400,-73.22189661,80.41741931,1223.8663
2.0450,-73.78874463,80.41442583,1225.950493
2.0500,-74.34707682,80.41440027,1228.035198
2.0550,-74.89655501,80.41587001,1230.120179
2.0600,-75.43629705,80.41807884,1232.204645
2.0650,-75.96690696,80.42156191,1234.288783
2.0700,-76.48686715,80.42492454,1236.372633
2.0750,-76.99599513,80.42935206,1238.455763
2.0800,-77.49534254,80.4342431,1240.538225
2.0850,-77.98504815,80.43925258,1242.62018
2.0900,-78.46416111,80.44589296,1244.70211
2.0950,-78.93242115,80.45423444,1246.784115
2.1000,-79.3898313,80.46241508,1248.865902
2.1050,-79.835531,80.47181426,1250.947751
2.1100,-80.27135618,80.4802442,1253.028809
2.1150,-80.69724295,80.48806215,1255.109545
2.1200,-81.11278233,80.49549933,1257.190497
2.1250,-81.51946698,80.5001768,1259.271276
2.1300,-81.91745211,80.5039137,1261.351457
2.1350,-82.30910099,80.5041023,1263.429906
2.1400,-82.69451491,80.50204143,1265.506687
2.1450,-83.07519413,80.49744936,1267.581489
2.1500,-83.45049348,80.4895052,1269.654707
2.1550,-83.82076106,80.47938866,1271.7254
2.1600,-84.1867458,80.46855656,1273.794287
2.1650,-84.54763713,80.45774201,1275.86091
2.1700,-84.90296288,80.44705297,1277.924074
2.1750,-85.25310057,80.43781522,1279.983655
2.1800,-85.59851993,80.43042388,1282.039682
2.1850,-85.93928831,80.42479157,1284.092305
2.1900,-86.27715593,80.42218273,1286.14216
2.1950,-86.61140967,80.42308703,1288.18783
2.2000,-86.94041556,80.43058364,1290.230582
2.2050,-87.26408023,80.44200127,1292.271191
2.2100,-87.58339941,80.45791258,1294.308379
2.2150,-87.89715662,80.48049139,1296.343394
2.2200,-88.20526587,80.50664984,1298.376376
2.2250,-88.50808845,80.53675002,1300.408115
2.2300,-88.80415446,80.57093805,1302.437771
2.2350,-89.09345746,80.6082996,1304.465556
2.2400,-89.37456882,80.64594756,1306.490983
2.2450,-89.64867438,80.68433739,1308.51462
2.2500,-89.91555502,80.7227488,1310.536776
2.2550,-90.17672023,80.75805409,1312.55701
2.2600,-90.43289471,80.78902888,1314.574132
2.2650,-90.6846126,80.81542257,1316.587818
2.2700,-90.9323966,80.83660492,1318.597809
2.2750,-91.17512757,80.85141152,1320.603124
2.2800,-91.41285443,80.86210044,1322.604077
2.2850,-91.64444301,80.87105152,1324.600219
2.2900,-91.86901243,80.87657859,1326.590766
2.2950,-92.08629927,80.88040865,1328.575319
2.3000,-92.29800121,80.88091011,1330.553173
2.3050,-92.50337498,80.87924726,1332.523507
2.3100,-92.70407121,80.87649732,1334.487348
2.3150,-92.90010976,80.87249277,1336.44397
2.3200,-93.0916612,80.86612808,1338.393104
2.3250,-93.27789413,80.85666584,1340.333441
2.3300,-93.4588261,80.84415686,1342.265221
2.3350,-93.63603202,80.82595773,1344.18721
2.3400,-93.81047458,80.80274973,1346.099989
2.3450,-93.98469652,80.7739272,1348.00353
2.3500,-94.15886538,80.73805372,1349.898028
2.3550,-94.33442495,80.69530183,1351.783211
2.3600,-94.51190075,80.6464564,1353.659493
2.3650,-94.69166778,80.58993737,1355.525622
2.3700,-94.87331097,80.52736249,1357.38198
2.3750,-95.05894617,80.45809058,1359.228445
2.3800,-95.24623405,80.38255052,1361.065165
2.3850,-95.43592163,80.30219914,1362.890974
2.3900,-95.62748213,80.21587135,1364.705881
2.3950,-95.82174514,80.12332637,1366.509471
2.4000,-96.01861534,80.02627709,1368.303002
2.4050,-96.21890519,79.92625593,1370.087201
2.4100,-96.4200234,79.82461693,1371.861978
2.4150,-96.62209907,79.72350541,1373.627549
2.4200,-96.82280824,79.62301117,1375.384267
2.4250,-97.02224543,79.52386914,1377.131775
2.4300,-97.21835176,79.42517194,1378.870594
2.4350,-97.40880959,79.32739599,1380.599906
2.4400,-97.59261487,79.23012939,1382.319581
2.4450,-97.76901139,79.13211836,1384.029935
2.4500,-97.93727774,79.03431975,1385.730824
2.4550,-98.09576263,78.9361119,1387.42163
2.4600,-98.24342056,78.83718792,1389.102597
2.4650,-98.3790771,78.73491088,1390.772908
2.4700,-98.50322702,78.62852494,1392.433357
2.4750,-98.61429158,78.51897111,1394.084317
2.4800,-98.71176505,78.40394307,1395.724664
2.4850,-98.79633359,78.28504485,1397.3547
2.4900,-98.86669275,78.16128811,1398.973392
2.4950,-98.92394991,78.03179684,1400.581445
2.5000,-98.96874013,77.89545015,1402.177583
2.5050,-99.00212356,77.75327894,1403.762061
2.5100,-99.02402011,77.60516677,1405.335174
2.5150,-99.03507083,77.45022397,1406.896338
2.5200,-99.03466042,77.29110088,1408.446963
2.5250,-99.02245463,77.12950234,1409.98661
2.5300,-98.99889952,76.96421972,1411.515332
2.5350,-98.96334884,76.79617589,1413.033229
2.5400,-98.91545224,76.62805376,1414.540341
2.5450,-98.8551725,76.45933473,1416.036668
2.5500,-98.78328527,76.28803925,1417.521988
2.5550,-98.70117536,76.11442185,1418.996616
2.5600,-98.60850985,75.93938668,1420.461168
2.5650,-98.5057664,75.76218509,1421.916297
2.5700,-98.3925964,75.58265074,1423.360992
2.5750,-98.27151273,75.40053676,1424.79621
2.5800,-98.1429472,75.21404536,1426.221665
2.5850,-98.00648424,75.02291229,1427.63756
2.5900,-97.86306552,74.82734693,1429.044578
2.5950,-97.71286295,74.62829535,1430.442639
2.6000,-97.55472233,74.42600452,1431.832796
2.6050,-97.38809206,74.22023853,1433.214586
2.6100,-97.21258436,74.01131456,1434.587004
2.6150,-97.02872343,73.79989036,1435.951787
2.6200,-96.83766177,73.58552489,1437.308608
2.6250,-96.64038847,73.36866476,1438.658678
2.6300,-96.43864093,73.14861365,1440.003779
2.6350,-96.23230484,72.92747564,1441.344149
2.6400,-96.0202834,72.70469331,1442.679277
2.6450,-95.80082896,72.48050151,1444.009646
2.6500,-95.57308233,72.25622304,1445.334839
2.6550,-95.33600818,72.03314425,1446.654677
2.6600,-95.08833023,71.81048876,1447.969173
2.6650,-94.82904747,71.58941778,1449.27867
2.6700,-94.5585531,71.36726889,1450.583048
2.6750,-94.27538267,71.14464929,1451.882345
2.6800,-93.98178498,70.91950459,1453.175676
2.6850,-93.6776697,70.69063011,1454.464605
2.6900,-93.36303753,70.45868013,1455.748091
2.6950,-93.03929663,70.22307396,1457.026741
2.7000,-92.70487457,69.9830155,1458.300502
2.7050,-92.36028509,69.73763543,1459.568429
2.7100,-92.00719863,69.48721737,1460.83007
2.7150,-91.64539615,69.23056114,1462.08558
2.7200,-91.27783313,68.96754556,1463.335326
2.7250,-90.90353277,68.69933991,1464.578674
2.7300,-90.52281301,68.42648221,1465.815634
2.7350,-90.13680458,68.149382,1467.046003
2.7400,-89.7461104,67.8675512,1468.270477
2.7450,-89.35003053,67.5811247,1469.488512
2.7500,-88.95043112,67.29113751,1470.699649
2.7550,-88.54718831,66.99828496,1471.905057
2.7600,-88.14034026,66.70077902,1473.10307
2.7650,-87.73224721,66.40008254,1474.294591
2.7700,-87.32273006,66.09736344,1475.479188
2.7750,-86.91296846,65.79162292,1476.656616
2.7800,-86.50395274,65.48498311,1477.827786
2.7850,-86.09516719,65.1762817,1478.992069
2.7900,-85.6874706,64.86643967,1480.149911
2.7950,-85.28055599,64.55736614,1481.301433
2.8000,-84.87497509,64.24901847,1482.447019
2.8050,-84.47010765,63.94300082,1483.585783
2.8100,-84.06508055,63.64013817,1484.717667
2.8150,-83.66165937,63.33935652,1485.842924
2.8200,-83.25859517,63.04117439,1486.960322
2.8250,-82.85588371,62.74570807,1488.070301
2.8300,-82.453676,62.45531131,1489.173835
2.8350,-82.05159658,62.16877647,1490.269659
2.8400,-81.65071003,61.88564333,1491.358568
2.8450,-81.25029756,61.60515765,1492.440277
2.8500,-80.8511085,61.32895088,1493.515905
2.8550,-80.45247608,61.05667055,1494.584733
2.8600,-80.05341133,60.78903148,1495.646258
2.8650,-79.65476328,60.52610146,1496.700135
2.8700,-79.25624097,60.26869239,1497.746757
2.8750,-78.85701003,60.01635079,1498.785332
2.8800,-78.45635207,59.77037791,1499.816038
2.8850,-78.05421131,59.53000243,1500.838983
2.8900,-77.65105458,59.29502128,1501.854198
2.8950,-77.24692273,59.06397239,1502.861989
2.9000,-76.84209039,58.83789422,1503.861425
2.9050,-76.4369655,58.61549427,1504.853004
2.9100,-76.03164987,58.39626514,1505.836376
2.9150,-75.62590435,58.17977361,1506.811229
2.9200,-75.22009352,57.96757075,1507.778148
2.9250,-74.81526434,57.75869742,1508.737627
2.9300,-74.41044964,57.55437154,1509.688817
2.9350,-74.00552601,57.35381548,1510.631257
2.9400,-73.59996463,57.15868379,1511.565301
2.9450,-73.19418611,56.96926388,1512.489989
2.9500,-72.78705543,56.78524888,1513.405011
2.9550,-72.377785,56.60603646,1514.311202
2.9600,-71.96757657,56.43113899,1515.208261
2.9650,-71.55611003,56.26003168,1516.095676
2.9700,-71.1446898,56.0944941,1516.973313
2.9750,-70.73298117,55.93280663,1517.840955
2.9800,-70.32081145,55.77507358,1518.698587
2.9850,-69.90733045,55.62133302,1519.545308
2.9900,-69.49398515,55.47031542,1520.381377
2.9950,-69.07915445,55.32328611,1521.206686
3.0000,-68.66483131,55.17896007,1522.02043
3.0050,-68.25234181,55.03697759,1522.823054
3.0100,-67.83974233,54.89734257,1523.614764
3.0150,-67.42758392,54.75929335,1524.395076
3.0200,-67.01573026,54.62388989,1525.164256
3.0250,-66.60338718,54.49060503,1525.922139
3.0300,-66.19217519,54.35822029,1526.668267
3.0350,-65.78099335,54.2263689,1527.404226
3.0400,-65.37000389,54.09520584,1528.128613
3.0450,-64.959815,53.96499537,1528.841703
3.0500,-64.55005019,53.83545153,1529.543747
3.0550,-64.14139519,53.70496812,1530.234584
3.0600,-63.73535023,53.57529098,1530.914974
3.0650,-63.33092973,53.44630095,1531.583943
3.0700,-62.92911004,53.31725446,1532.242312
3.0750,-62.529799,53.18872707,1532.890013
3.0800,-62.13208961,53.06157334,1533.527106
3.0850,-61.73587914,52.93604962,1534.153444
3.0900,-61.34130219,52.81109373,1534.768537
3.0950,-60.94714268,52.687398,1535.371995
3.1000,-60.55390461,52.56484028,1535.96338
3.1050,-60.160948,52.44309289,1536.542624
3.1100,-59.76947457,52.32112936,1537.110207
3.1150,-59.37734809,52.1990267,1537.665513
3.1200,-58.98698094,52.07721779,1538.209567
3.1250,-58.59779959,51.95426678,1538.741804
3.1300,-58.21012522,51.82995386,1539.26239
3.1350,-57.82453041,51.70380062,1539.772672
3.1400,-57.44007494,51.5764126,1540.272341
3.1450,-57.05702472,51.44863102,1540.762083
3.1500,-56.67518343,51.32014433,1541.241268
3.1550,-56.29358451,51.19109932,1541.709634
3.1600,-55.91285919,51.06139575,1542.168292
3.1650,-55.5311337,50.92997688,1542.616393
3.1700,-55.14885644,50.79843323,1543.054581
3.1750,-54.76385866,50.6654521,1543.483022
3.1800,-54.3767469,50.53062159,1543.901968
3.1850,-53.98981921,50.39386615,1544.312648
3.1900,-53.60154661,50.25580602,1544.714761
3.1950,-53.21064992,50.11544746,1545.1077
3.2000,-52.81726225,49.97279324,1545.491521
3.2050,-52.42122384,49.8280409,1545.866691
3.2100,-52.02158315,49.6809594,1546.233206
3.2150,-51.61979602,49.53003802,1546.591055
3.2200,-51.21512572,49.37433525,1546.940594
3.2250,-50.80671221,49.21474006,1547.281376
3.2300,-50.39532958,49.05117231,1547.614313
3.2350,-49.9802548,48.88327645,1547.939761
3.2400,-49.56231211,48.70959997,1548.257705
3.2450,-49.14220685,48.53030412,1548.569213
3.2500,-48.72004553,48.34477885,1548.874553
3.2550,-48.29642926,48.15365786,1549.17403
3.2600,-47.87131406,47.95756297,1549.467708
3.2650,-47.4443653,47.75723015,1549.756795
3.2700,-47.01430239,47.55138608,1550.041229
3.2750,-46.5820229,47.34169119,1550.321102
3.2800,-46.14618996,47.12838297,1550.59752
3.2850,-45.70790419,46.91112776,1550.870036
3.2900,-45.26628613,46.69118719,1551.139095
3.2950,-44.82293163,46.46811141,1551.404886
3.3000,-44.37744794,46.24294859,1551.668092
3.3050,-43.92921832,46.01588202,1551.928162
3.3100,-43.47917136,45.7865563,1552.185743
3.3150,-43.02749124,45.5563074,1552.441341
3.3200,-42.5741346,45.32480431,1552.694291
3.3250,-42.12040004,45.09063297,1552.944876
3.3300,-41.66500823,44.85650129,1553.1937
3.3350,-41.20993,44.62160623,1553.440433
3.3400,-40.75585582,44.38635206,1553.686004
3.3450,-40.3037269,44.15014124,1553.930778
3.3500,-39.85283563,43.91162383,1554.174617
3.3550,-39.40497414,43.67310893,1554.41869
3.3600,-38.95904151,43.43366067,1554.663307
3.3650,-38.51653568,43.19376353,1554.909736
3.3700,-38.07758094,42.95346806,1555.157901
3.3750,-37.64315355,42.71373874,1555.408221
3.3800,-37.21479369,42.47243869,1555.661125
3.3850,-36.79176151,42.23162081,1555.916463
3.3900,-36.37454248,41.99212761,1556.174436
3.3950,-35.96439582,41.75363203,1556.436051
3.4000,-35.56114969,41.51714652,1556.701305
3.4050,-35.16512149,41.28168726,1556.969558
3.4100,-34.77695985,41.04940721,1557.241967
3.4150,-34.39587285,40.82125248,1557.518093
3.4200,-34.02306907,40.59667769,1557.798069
3.4250,-33.65892284,40.37526931,1558.082229
3.4300,-33.30516516,40.15620915,1558.370492
3.4350,-32.96041925,39.94215215,1558.663826
3.4400,-32.6274418,39.73194457,1558.963269
3.4450,-32.30598796,39.52668729,1559.269511
3.4500,-31.99609686,39.3265072,1559.583084
3.4550,-31.69914064,39.13231773,1559.905624
3.4600,-31.41568663,38.94527317,1560.238413
3.4650,-31.1469374,38.76464188,1560.581867
3.4700,-30.89265293,38.59001362,1560.937078
3.4750,-30.65545355,38.42249411,1561.305453
3.4800,-30.43448662,38.26260232,1561.687921
3.4850,-30.22761434,38.10856345,1562.084084
3.4900,-30.03546321,37.96079651,1562.495291
3.4950,-29.85851207,37.81989883,1562.922385
3.5000,-29.69680709,37.68463854,1563.365889
3.5050,-29.54843219,37.55513674,1563.825689
3.5100,-29.41487287,37.43040015,1564.302139
3.5150,-29.29286387,37.31148237,1564.794134
3.5200,-29.18135791,37.19823707,1565.300809
3.5250,-29.0800822,37.08816278,1565.821016
3.5300,-28.98776627,36.98081364,1566.353623
3.5350,-28.90393778,36.87681229,1566.897849
3.5400,-28.82841705,36.77561899,1567.452485
3.5450,-28.7579831,36.67740191,1568.015839
3.5500,-28.69188492,36.58062111,1568.586422
3.5550,-28.62899613,36.48433257,1569.162341
3.5600,-28.5673557,36.38827608,1569.741965
3.5650,-28.50580148,36.29080765,1570.322941
3.5700,-28.44382199,36.19196231,1570.904637
3.5750,-28.3802462,36.08986838,1571.485401
3.5800,-28.31543553,35.98509293,1572.064066
3.5850,-28.24861042,35.87706645,1572.640623
3.5900,-28.17971458,35.76454135,1573.213827
3.5950,-28.10761235,35.64790839,1573.782925
3.6000,-28.03172509,35.52522574,1574.347433
3.6050,-27.95195948,35.39728515,1574.906664
3.6100,-27.8675114,35.26382641,1575.460072
3.6150,-27.77793489,35.12356257,1576.00749
3.6200,-27.68363213,34.97567401,1576.548688
3.6250,-27.58363367,34.82151857,1577.083014
3.6300,-27.47939868,34.65773565,1577.610223
3.6350,-27.36864896,34.48574439,1578.129351
3.6400,-27.25184231,34.30493161,1578.640047
3.6450,-27.12814248,34.1165066,1579.141403
3.6500,-26.99906222,33.92022024,1579.633734
3.6550,-26.86379586,33.71516641,1580.115726
3.6600,-26.72297007,33.50211153,1580.587582
3.6650,-26.57506074,33.28093222,1581.047575
3.6700,-26.42130992,33.05322117,1581.495717
3.6750,-26.26114858,32.8170095,1581.930531
3.6800,-26.09405515,32.57487942,1582.352361
3.6850,-25.9215096,32.32482053,1582.760459
3.6900,-25.74193898,32.06798311,1583.154184
3.6950,-25.55700879,31.80337905,1583.533316
3.7000,-25.36586316,31.53204693,1583.897704
3.7050,-25.16899959,31.25605022,1584.248283
3.7100,-24.96596917,30.97344505,1584.583183
3.7150,-24.75967976,30.68488994,1584.90459
3.7200,-24.54800663,30.39213181,1585.212426
3.7250,-24.33287471,30.09707177,1585.508019
3.7300,-24.11279477,29.80151101,1585.791295
3.7350,-23.89047467,29.5060762,1586.062686
3.7400,-23.66428077,29.21348141,1586.322703
3.7450,-23.43559878,28.92411739,1586.572276
3.7500,-23.20540269,28.64006095,1586.811957
3.7550,-22.9722832,28.36245918,1587.041724
3.7600,-22.73875559,28.089969,1587.261119
3.7650,-22.50488701,27.82667511,1587.471639
3.7700,-22.27124059,27.57192116,1587.673043
3.7750,-22.03814058,27.32804497,1587.865577
3.7800,-21.80718825,27.09460333,1588.049565
3.7850,-21.57955007,26.87427597,1588.225018
3.7900,-21.35633672,26.66760095,1588.392007
3.7950,-21.13843471,26.47490931,1588.550659
3.8000,-20.92542518,26.29743736,1588.701117
3.8050,-20.71909945,26.13637406,1588.842902
3.8100,-20.51879914,25.9919302,1588.975839
3.8150,-20.32475182,25.86483549,1589.099709
3.8200,-20.13960933,25.75478395,1589.215296
3.8250,-19.96349459,25.6630578,1589.322447
3.8300,-19.79656988,25.58798358,1589.419995
3.8350,-19.63949692,25.52886129,1589.507734
3.8400,-19.49144956,25.48552608,1589.584707
3.8450,-19.35393981,25.45665709,1589.650492
3.8500,-19.22716465,25.44323168,1589.705648
3.8550,-19.11230692,25.44448569,1589.750278
3.8600,-19.00950286,25.45912134,1589.784092
3.8650,-18.91935454,25.48805997,1589.808197
3.8700,-18.84174935,25.5312307,1589.82216
3.8750,-18.77580583,25.5875436,1589.826117
3.8800,-18.72099203,25.65734642,1589.819934
3.8850,-18.6767452,25.74070833,1589.803589
3.8900,-18.64264145,25.83633042,1589.776983
3.8950,-18.61901891,25.94320494,1589.740641
3.9000,-18.6050996,26.06138574,1589.693486
3.9050,-18.59995003,26.18902401,1589.636128
3.9100,-18.60449104,26.32478586,1589.569086
3.9150,-18.61795241,26.46599333,1589.492229
3.9200,-18.64030776,26.6129015,1589.405473
3.9250,-18.67108521,26.76363011,1589.309465
3.9300,-18.70884971,26.91816583,1589.20378
3.9350,-18.75457873,27.07557286,1589.089832
3.9400,-18.80826572,27.23388372,1588.968076
3.9450,-18.86999436,27.3926947,1588.839448
3.9500,-18.93814937,27.55147921,1588.703504
3.9550,-19.01191075,27.70925631,1588.560656
3.9600,-19.0925538,27.86504517,1588.411798
3.9650,-19.17978559,28.01877322,1588.257953
3.9700,-19.27234115,28.16906125,1588.098467
3.9750,-19.37021728,28.31647085,1587.934957
3.9800,-19.47327416,28.45880584,1587.766502
3.9850,-19.58182923,28.5962656,1587.594576
3.9900,-19.69540289,28.7284807,1587.419602
3.9950,-19.8126514,28.8556523,1587.241519
4.0000,-19.93416926,28.97641612,1587.061193
4.0050,-20.0597849,29.0894272,1586.878532
4.0100,-20.18857281,29.19705966,1586.694671
4.0150,-20.31999199,29.29920176,1586.509977
4.0200,-20.45439953,29.39531165,1586.32408
4.0250,-20.59073076,29.48508954,1586.136898
4.0300,-20.72930869,29.56883118,1585.94954
4.0350,-20.86958279,29.64637445,1585.762076
4.0400,-21.01181211,29.71671626,1585.574425
4.0450,-21.15500473,29.7811653,1585.386275
4.0500,-21.29957947,29.8379846,1585.197553
4.0550,-21.44622222,29.8872963,1585.008736
4.0600,-21.59290773,29.93096729,1584.820287
4.0650,-21.74075816,29.96795094,1584.632178
4.0700,-21.88963226,29.99907397,1584.444422
4.0750,-22.03953764,30.02297435,1584.256721
4.0800,-22.18976617,30.04029561,1584.069025
4.0850,-22.34081067,30.05196275,1583.882469
4.0900,-22.49284661,30.05752532,1583.696568
4.0950,-22.64513982,30.05816736,1583.511485
4.1000,-22.7980969,30.05425086,1583.327305
4.1050,-22.95146328,30.04469923,1583.144171
4.1100,-23.10524234,30.03099427,1582.962412
4.1150,-23.26057231,30.01266241,1582.782169
4.1200,-23.41676461,29.99017291,1582.602985
4.1250,-23.57297352,29.96302779,1582.425158
4.1300,-23.73029835,29.93230807,1582.249254
4.1350,-23.88726183,29.89897095,1582.075246
4.1400,-24.04408776,29.86232175,1581.903242
4.1450,-24.20117848,29.82392756,1581.734315
4.1500,-24.3577135,29.78333775,1581.567668
4.1550,-24.51426989,29.74087381,1581.403918
4.1600,-24.67162023,29.69879082,1581.244324
4.1650,-24.82918845,29.65583244,1581.087945
4.1700,-24.98608912,29.6132451,1580.935284
4.1750,-25.14388769,29.57114245,1580.786559
4.1800,-25.30259884,29.52894577,1580.641444
4.1850,-25.46274693,29.48651888,1580.499877
4.1900,-25.62342183,29.44610314,1580.362286
4.1950,-25.78514279,29.405677,1580.228252
4.2000,-25.94755584,29.36656093,1580.097978
4.2050,-26.11138963,29.32880815,1579.971292
4.2100,-26.27618363,29.29206809,1579.847704
4.2150,-26.44254252,29.25827002,1579.726705
4.2200,-26.60945999,29.22589082,1579.608055
4.2250,-26.77714435,29.19626942,1579.491813
4.2300,-26.94607706,29.16929748,1579.377813
4.2350,-27.11671178,29.14440446,1579.265845
4.2400,-27.28867735,29.12279238,1579.15541
4.2450,-27.46153496,29.10370201,1579.045929
4.2500,-27.6363794,29.08716796,1578.937332
4.2550,-27.81340898,29.07308864,1578.829254
4.2600,-27.99049172,29.06249141,1578.719868
4.2650,-28.16950205,29.0536553,1578.609351
4.2700,-28.35036931,29.04759056,1578.49799
4.2750,-28.53275332,29.04571501,1578.384949
4.2800,-28.71716656,29.0475243,1578.27008
4.2850,-28.9034956,29.05362909,1578.152358
4.2900,-29.09212168,29.06546226,1578.031602
4.2950,-29.28168047,29.08200533,1577.906432
4.3000,-29.4734542,29.10368711,1577.775935
4.3050,-29.66691567,29.13167813,1577.639235
4.3100,-29.86161748,29.16629047,1577.496118
4.3150,-30.05722166,29.20672517,1577.344807
4.3200,-30.25421544,29.25373428,1577.185325
4.3250,-30.45250103,29.30746072,1577.01691
4.3300,-30.65179225,29.36785896,1576.838228
4.3350,-30.85251615,29.43552967,1576.648692
4.3400,-31.05437786,29.51000842,1576.446951
4.3450,-31.2567855,29.59119761,1576.231552
4.3500,-31.459152,29.67997139,1576.002423
4.3550,-31.66161252,29.77560993,1575.758081
4.3600,-31.86551542,29.87774641,1575.497893
4.3650,-32.06954688,29.98645857,1575.221249
4.3700,-32.27399506,30.10193765,1574.928157
4.3750,-32.4792424,30.22335867,1574.617822
4.3800,-32.68574684,30.35226136,1574.289916
4.3850,-32.89402034,30.48730105,1573.944519
4.3900,-33.10305843,30.62832105,1573.5809
4.3950,-33.31396619,30.77515579,1573.199595
4.4000,-33.52671617,30.92772229,1572.799904
4.4050,-33.74203985,31.08663892,1572.382637
4.4100,-33.96038989,31.252002,1571.947332
4.4150,-34.18092398,31.42394526,1571.493137
4.4200,-34.40352195,31.6019121,1571.020285
4.4250,-34.6287811,31.78603321,1570.528244
4.4300,-34.85608163,31.97617996,1570.017296
4.4350,-35.08594054,32.17070566,1569.48696
4.4400,-35.31931037,32.37078168,1568.938179
4.4450,-35.55445866,32.57566575,1568.370583
4.4500,-35.79378368,32.7851919,1567.784935
4.4550,-36.03699932,32.99874905,1567.181676
4.4600,-36.28289083,33.21566031,1566.560487
4.4650,-36.53176814,33.43609453,1565.922245
4.4700,-36.78444737,33.65848058,1565.266203
4.4750,-37.03973579,33.88375416,1564.593114
4.4800,-37.29768745,34.11114784,1563.903141
4.4850,-37.55771429,34.33988917,1563.196729
4.4900,-37.8205186,34.56869773,1562.474659
4.4950,-38.08458812,34.79779415,1561.736928
4.5000,-38.35237508,35.02600449,1560.984983
4.5050,-38.62291538,35.25379788,1560.219422
4.5100,-38.89532956,35.4806446,1559.441168
4.5150,-39.17002903,35.706653,1558.651309
4.5200,-39.44797731,35.93126961,1557.851295
4.5250,-39.72956751,36.15419842,1557.042658
4.5300,-40.01444906,36.37537822,1556.225907
4.5350,-40.30224282,36.59521799,1555.402118
4.5400,-40.59201377,36.81374881,1554.571169
4.5450,-40.88423126,37.0317311,1553.735102
4.5500,-41.17818783,37.25014112,1552.893847
4.5550,-41.47388427,37.46953706,1552.048361
4.5600,-41.77168343,37.69018196,1551.199783
4.5650,-42.06921046,37.9133988,1550.347225
4.5700,-42.36651216,38.1374647,1549.490572
4.5750,-42.66443832,38.36269286,1548.630866
4.5800,-42.96213732,38.59043027,1547.767752
4.5850,-43.25963853,38.82006747,1546.90114
4.5900,-43.55656199,39.0511994,1546.030933
4.5950,-43.85462123,39.28537979,1545.15733
4.6000,-44.15180938,39.52255341,1544.2805
4.6050,-44.44976921,39.76177186,1543.400744
4.6100,-44.74892845,40.00296004,1542.517061
4.6150,-45.04899992,40.24672596,1541.629467
4.6200,-45.34965865,40.49350915,1540.737767
4.6250,-45.65071906,40.74328212,1539.841274
4.6300,-45.95267732,40.99565351,1538.939884
4.6350,-46.2549048,41.24990799,1538.032921
4.6400,-46.55767101,41.50636532,1537.12051
4.6450,-46.86088367,41.7643971,1536.201928
4.6500,-47.16512962,42.02429917,1535.276939
4.6550,-47.47082949,42.2861854,1534.345734
4.6600,-47.77709544,42.54929612,1533.408248
4.6650,-48.085219,42.81420215,1532.463653
4.6700,-48.39483512,43.08030597,1531.511839
4.6750,-48.70526206,43.34941141,1530.552757
4.6800,-49.01786285,43.62045657,1529.586607
4.6850,-49.32935295,43.89476569,1528.611559
4.6900,-49.64078259,44.17323373,1527.62794
4.6950,-49.95168619,44.45604246,1526.635823
4.7000,-50.26286308,44.74315407,1525.634466
4.7050,-50.57267404,45.03428909,1524.622665
4.7100,-50.88020194,45.32961967,1523.600639
4.7150,-51.18616307,45.62807922,1522.568094
4.7200,-51.49054448,45.9298401,1521.524377
4.7250,-51.7926146,46.23551636,1520.469776
4.7300,-52.09406613,46.5434897,1519.403452
4.7350,-52.39500321,46.85533472,1518.325624
4.7400,-52.69626108,47.16978764,1517.236472
4.7450,-52.99874581,47.48666808,1516.135309
4.7500,-53.30157365,47.80638903,1515.022048
4.7550,-53.60358947,48.12799235,1513.895884
4.7600,-53.90667665,48.45041237,1512.757298
4.7650,-54.21252824,48.77324059,1511.605812
4.7700,-54.52095454,49.09754474,1510.442643
4.7750,-54.83246415,49.42308839,1509.26682
4.7800,-55.14763505,49.74965338,1508.079101
4.7850,-55.46662502,50.07644563,1506.879254
4.7900,-55.78933243,50.40413718,1505.666777
4.7950,-56.11697982,50.73168467,1504.442546
4.8000,-56.44866251,51.05960761,1503.206975
4.8050,-56.78684865,51.38534295,1501.960199
4.8100,-57.13234028,51.7116661,1500.702868
4.8150,-57.48701235,52.03735693,1499.43516
4.8200,-57.85040513,52.36430639,1498.157479
4.8250,-58.22294553,52.69137867,1496.869235
4.8300,-58.60558362,53.01979766,1495.572047
4.8350,-58.99712397,53.35010815,1494.265012
4.8400,-59.3994065,53.68263971,1492.950026
4.8450,-59.81162562,54.01805468,1491.626374
4.8500,-60.23272228,54.35509488,1490.294425
4.8550,-60.66214248,54.6942321,1488.95413
4.8600,-61.09889026,55.03599346,1487.605257
4.8650,-61.54547556,55.380207,1486.248197
4.8700,-62.00027501,55.7283434,1484.88368
4.8750,-62.46237181,56.0793834,1483.510827
4.8800,-62.9311917,56.43445797,1482.130282
4.8850,-63.40582035,56.79482927,1480.742757
4.8900,-63.88657589,57.1607677,1479.348042
4.8950,-64.37169473,57.53267651,1477.94617
4.9000,-64.86163378,57.91165287,1476.536343
4.9050,-65.35345031,58.29816033,1475.118362
4.9100,-65.84816126,58.69195632,1473.692253
4.9150,-66.34434539,59.09421415,1472.25787
4.9200,-66.84110995,59.50320825,1470.813887
4.9250,-67.33745245,59.9199566,1469.36105
4.9300,-67.83300642,60.34453942,1467.898367
4.9350,-68.32728828,60.77796688,1466.426897
4.9400,-68.82089179,61.21847918,1464.945067
4.9450,-69.31440527,61.66648144,1463.453481
4.9500,-69.80747631,62.12177631,1461.95272
4.9550,-70.29998139,62.58335706,1460.441614
4.9600,-70.7918027,63.0515177,1458.918977
4.9650,-71.28355426,63.52573125,1457.385797
4.9700,-71.77428558,64.00554146,1455.840797
4.9750,-72.2628992,64.49150483,1454.284504
4.9800,-72.74792954,64.98252298,1452.716164
4.9850,-73.22974038,65.47793913,1451.135269
4.9900,-73.70750496,65.9765053,1449.541936
4.9950,-74.18023474,66.47605584,1447.934486
5.0000,-74.64645615,66.97717694,1446.313617
5.0050,-75.10697662,67.47873003,1444.678559
5.0100,-75.5618171,67.97985645,1443.029668
5.0150,-76.01213832,68.48083902,1441.366907
5.0200,-76.45664943,68.98173771,1439.689812
5.0250,-76.89512153,69.48070653,1437.998262
5.0300,-77.32587813,69.97948269,1436.293135
5.0350,-77.74824618,70.47614712,1434.574226
5.0400,-78.1611826,70.97021141,1432.840778
5.0450,-78.56475637,71.46265747,1431.092725
5.0500,-78.95977901,71.95117135,1429.330378
5.0550,-79.34554296,72.43644694,1427.553649
5.0600,-79.72145214,72.91786139,1425.76168
5.0650,-80.08590825,73.394839,1423.954914
5.0700,-80.43825842,73.86770943,1422.133469
5.0750,-80.77869559,74.33379596,1420.298167
5.0800,-81.10782717,74.79337307,1418.448695
5.0850,-81.42764725,75.24657675,1416.585708
5.0900,-81.73782555,75.69228512,1414.710424
5.0950,-82.03960295,76.130806,1412.821887
5.1000,-82.33187483,76.56266335,1410.920295
5.1050,-82.61459553,76.98874606,1409.005867
5.1100,-82.88770207,77.40813565,1407.078835
5.1150,-83.15124651,77.82096002,1405.139866
5.1200,-83.40557304,78.22644955,1403.188999
5.1250,-83.64994292,78.62549348,1401.226493
5.1300,-83.8832623,79.01775879,1399.251741
5.1350,-84.10590546,79.40225985,1397.26577
5.1400,-84.31749106,79.77934619,1395.268565
5.1450,-84.51775604,80.14832179,1393.25966
5.1500,-84.70867078,80.51107831,1391.239984
5.1550,-84.89153348,80.86683622,1389.209242
5.1600,-85.0669312,81.21641953,1387.167369
5.1650,-85.23490282,81.5602028,1385.115981
5.1700,-85.39494215,81.89806915,1383.05315
5.1750,-85.54777692,82.2316855,1380.979364
5.1800,-85.69380379,82.5606765,1378.893946
5.1850,-85.83238164,82.88512309,1376.795738
5.1900,-85.96328023,83.2038591,1374.684306
5.1950,-86.08536233,83.51777166,1372.55879
5.2000,-86.19871548,83.82506769,1370.419184
5.2050,-86.30237407,84.12679545,1368.265088
5.2100,-86.39399327,84.42275911,1366.095667
5.2150,-86.47341279,84.71414981,1363.910711
5.2200,-86.54163308,85.00000872,1361.709904
5.2250,-86.59934195,85.27874849,1359.492097
5.2300,-86.64717031,85.55064624,1357.2575
5.2350,-86.68446555,85.81599946,1355.004418
5.2400,-86.71060985,86.07611898,1352.734115
5.2450,-86.72609669,86.33109725,1350.444985
5.2500,-86.7315657,86.58102893,1348.136776
5.2550,-86.72635612,86.82754257,1345.809202
5.2600,-86.71027418,87.07056272,1343.462604
5.2650,-86.6812919,87.30942103,1341.096754
5.2700,-86.64025277,87.54423926,1338.711637
5.2750,-86.58734677,87.77295462,1336.307345
5.2800,-86.52238004,87.99528301,1333.883996
5.2850,-86.44625775,88.20817881,1331.442468
5.2900,-86.35892413,88.41286833,1328.982381
5.2950,-86.26030608,88.61001583,1326.505441
5.3000,-86.1508744,88.79840199,1324.012563
5.3050,-86.03125645,88.97807359,1321.505423
5.3100,-85.9013815,89.14917724,1318.983785
5.3150,-85.76024017,89.31149573,1316.449001
5.3200,-85.60810092,89.46427637,1313.90149
5.3250,-85.44474849,89.60841718,1311.341046
5.3300,-85.27020788,89.74398005,1308.767712
5.3350,-85.08459471,89.86985586,1306.181994
5.3400,-84.88714594,89.98558432,1303.585391
5.3450,-84.67830085,90.08867855,1300.979112
5.3500,-84.45703439,90.17972968,1298.364361
5.3550,-84.22577068,90.25718343,1295.741586
5.3600,-83.98431193,90.32170706,1293.11269
5.3650,-83.73411225,90.3729489,1290.479391
5.3700,-83.47645197,90.40859569,1287.84191
5.3750,-83.21172756,90.43111544,1285.201483
5.3800,-82.94012759,90.43925919,1282.559933
5.3850,-82.66090306,90.43352321,1279.919394
5.3900,-82.37516164,90.4136531,1277.280186
5.3950,-82.08266107,90.37866545,1274.644279
5.4000,-81.78568392,90.32761867,1272.01292
5.4050,-81.48354102,90.25849851,1269.38811
5.4100,-81.17874536,90.16933324,1266.771291
5.4150,-80.87060135,90.05960102,1264.163796
5.4200,-80.55931275,89.92853322,1261.566706
5.4250,-80.24526942,89.77442522,1258.981414
5.4300,-79.92919375,89.59709689,1256.409714
5.4350,-79.61048503,89.39692372,1253.851887
5.4400,-79.28880161,89.17292484,1251.308394
5.4450,-78.9641632,88.92595129,1248.780782
5.4500,-78.63507469,88.65515873,1246.270026
5.4550,-78.3002123,88.36289008,1243.777462
5.4600,-77.96039777,88.04934561,1241.303011
5.4650,-77.61395064,87.71668742,1238.844343
5.4700,-77.26033949,87.36723569,1236.402569
5.4750,-76.89771393,87.00028069,1233.976378
5.4800,-76.52536948,86.61754959,1231.566506
5.4850,-76.14324372,86.21976977,1229.172406
5.4900,-75.75109796,85.80783851,1226.794836
5.4950,-75.34970822,85.38267121,1224.432127
5.5000,-74.93932442,84.94538629,1222.084604
5.5050,-74.52068686,84.49794127,1219.751358
5.5100,-74.09465732,84.04147707,1217.432669
5.5150,-73.66089994,83.57656852,1215.128857
5.5200,-73.22111725,83.10693696,1212.839676
5.5250,-72.77474626,82.63504864,1210.565032
5.5300,-72.32147131,82.16302888,1208.304688
5.5350,-71.86187629,81.69032162,1206.057753
5.5400,-71.3960421,81.21912319,1203.822646
5.5450,-70.92451967,80.75102156,1201.600175
5.5500,-70.44352247,80.28643301,1199.388214
5.5550,-69.9546286,79.82623238,1197.186843
5.5600,-69.45796823,79.37161215,1194.995713
5.5650,-68.95381238,78.9222964,1192.814047
5.5700,-68.44181169,78.47911881,1190.642885
5.5750,-67.92236606,78.04201696,1188.481472
5.5800,-67.39501835,77.61203526,1186.331048
5.5850,-66.85964892,77.19138686,1184.191452
5.5900,-66.31636023,76.78029357,1182.064038
5.5950,-65.76438771,76.37922124,1179.947973
5.6000,-65.20221052,75.9892075,1177.843086
5.6050,-64.62942117,75.6114452,1175.749402
5.6100,-64.04447727,75.24601853,1173.665442
5.6150,-63.4463419,74.89404107,1171.591452
5.6200,-62.83410788,74.55534223,1169.527137
5.6250,-62.20941245,74.22914099,1167.472883
5.6300,-61.57155727,73.91388973,1165.428235
5.6350,-60.92110222,73.61000112,1163.393409
5.6400,-60.25878768,73.31641985,1161.369117
5.6450,-59.58538094,73.03105421,1159.355527
5.6500,-58.9000293,72.75305161,1157.352641
5.6550,-58.20388784,72.48260563,1155.36217
5.6600,-57.49739723,72.21766893,1153.383669
5.6650,-56.78092186,71.95883527,1151.416939
5.6700,-56.05383175,71.70605471,1149.462413
5.6750,-55.31716418,71.45871495,1147.521195
5.6800,-54.57050516,71.21772068,1145.593103
5.6850,-53.81398722,70.98109143,1143.677222
5.6900,-53.04747769,70.7498478,1141.773822
5.6950,-52.27064483,70.52185496,1139.883368
5.7000,-51.48356947,70.29550478,1138.005594
5.7050,-50.68695252,70.07090467,1136.140576
5.7100,-49.88008983,69.84709445,1134.288609
5.7150,-49.06345137,69.62291679,1132.450274
5.7200,-48.23848606,69.39655628,1130.627292
5.7250,-47.40521535,69.16844586,1128.819439
5.7300,-46.5649144,68.93668138,1127.027937
5.7350,-45.71838797,68.70032745,1125.253302
5.7400,-44.86432111,68.45962457,1123.496231
5.7450,-44.00360036,68.21443936,1121.757316
5.7500,-43.13541823,67.96454207,1120.035229
5.7550,-42.25979143,67.70906412,1118.330174
5.7600,-41.37479721,67.4476017,1116.642718
5.7650,-40.48010836,67.17829017,1114.974004
5.7700,-39.57644329,66.90102484,1113.324226
5.7750,-38.66274938,66.61635248,1111.693477
5.7800,-37.73896443,66.32388555,1110.081556
5.7850,-36.80477704,66.02402662,1108.489922
5.7900,-35.8606754,65.71760125,1106.917373
5.7950,-34.90674883,65.40515457,1105.365512
5.8000,-33.94309531,65.0876263,1103.834578
5.8050,-32.96938362,64.76529389,1102.324211
5.8100,-31.9868915,64.43932557,1100.835191
5.8150,-30.99465961,64.11004239,1099.366327
5.8200,-29.99259787,63.7781095,1097.91875
5.8250,-28.9813631,63.44508496,1096.492667
5.8300,-27.96141869,63.11116621,1095.087795
5.8350,-26.93390379,62.7778484,1093.70542
5.8400,-25.89960972,62.44491859,1092.345498
5.8450,-24.86043573,62.11225306,1091.008885
5.8500,-23.81974902,61.78036173,1089.696698
5.8550,-22.7780511,61.44976744,1088.409309
5.8600,-21.73580647,61.12123038,1087.146316
5.8650,-20.69402248,60.79655117,1085.908044
5.8700,-19.65412881,60.47630166,1084.694401
5.8750,-18.61650051,60.16220646,1083.505029
5.8800,-17.58320008,59.85380047,1082.339465
5.8850,-16.55415556,59.55312694,1081.197481
5.8900,-15.53043761,59.2590707,1080.078053
5.8950,-14.51257806,58.97353449,1078.981414
5.9000,-13.50126729,58.69759266,1077.906988
5.9050,-12.49648244,58.42971659,1076.853845
5.9100,-11.4997376,58.17043103,1075.822916
5.9150,-10.51269587,57.91853023,1074.813449
5.9200,-9.53672933,57.67486479,1073.825978
5.9250,-8.571976623,57.43836321,1072.859831
5.9300,-7.620629254,57.20838954,1071.915628
5.9350,-6.682746549,56.98515557,1070.992628
5.9400,-5.758468246,56.76884553,1070.089567
5.9450,-4.849347381,56.5607533,1069.206643
5.9500,-3.956266053,56.35979939,1068.342652
5.9550,-3.078249629,56.16589388,1067.496794
5.9600,-2.21549641,55.97889595,1066.668549
5.9650,-1.368381092,55.79887933,1065.85753
5.9700,-0.5392579118,55.62428411,1065.063598
5.9750,0.2731538914,55.45592478,1064.285032
5.9800,1.068040862,55.29270596,1063.521605
5.9850,1.846428685,55.13666214,1062.77265
5.9900,2.60766693,54.98594233,1062.037947
5.9950,3.351078663,54.84155698,1061.316797
6.0000,4.076172036,54.70331607,1060.609632
6.0050,4.783864312,54.57158071,1059.915889
6.0100,5.475309416,54.44524642,1059.234828
6.0150,6.150943041,54.3263728,1058.566254
6.0200,6.81096854,54.2141682,1057.909332
6.0250,7.456017414,54.10797108,1057.263978
6.0300,8.087294436,54.00865277,1056.62939
6.0350,8.704896653,53.91525033,1056.005315
6.0400,9.310324763,53.82844878,1055.391122
6.0450,9.905732593,53.7463168,1054.785271
6.0500,10.48967873,53.66942045,1054.188826
6.0550,11.06562667,53.59774316,1053.600039
6.0600,11.63231333,53.53061338,1053.019004
6.0650,12.19188046,53.46921769,1052.445417
6.0700,12.74445809,53.41284049,1051.878473
6.0750,13.28885196,53.3612978,1051.319186
6.0800,13.82556075,53.31315709,1050.766669
6.0850,14.35469933,53.26871685,1050.220478
6.0900,14.87803347,53.22656896,1049.680102
6.0950,15.39486613,53.18593898,1049.145005
6.1000,15.90757119,53.14771797,1048.614402
6.1050,16.41562949,53.11155169,1048.088738
6.1100,16.92103286,53.07709626,1047.566776
6.1150,17.42339647,53.04555781,1047.048937
6.1200,17.92404345,53.01712473,1046.534218
6.1250,18.42364919,52.9913099,1046.022481
6.1300,18.92464326,52.96737979,1045.513139
6.1350,19.42680119,52.94594838,1045.006202
6.1400,19.92947434,52.92641221,1044.501839
6.1450,20.43428487,52.90813753,1043.999964
6.1500,20.94268426,52.89182038,1043.50017
6.1550,21.45450526,52.8769286,1043.002807
6.1600,21.96876141,52.86211328,1042.508751
6.1650,22.48581874,52.84717594,1042.018278
6.1700,23.00699736,52.83134111,1041.530939
6.1750,23.53027781,52.81455852,1041.048203
6.1800,24.05706576,52.79725872,1040.569491
6.1850,24.58695195,52.77869221,1040.09521
6.1900,25.1201979,52.75992704,1039.625608
6.1950,25.65816916,52.74108051,1039.159854
6.2000,26.19989768,52.72149801,1038.697983
6.2050,26.74514423,52.70335905,1038.240709
6.2100,27.29362518,52.6868021,1037.787765
6.2150,27.84547072,52.67223213,1037.339255
6.2200,28.40055144,52.65919179,1036.894906
6.2250,28.95900601,52.64867979,1036.454989
6.2300,29.52105095,52.64167756,1036.019485
6.2350,30.08577831,52.63624912,1035.588338
6.2400,30.65311118,52.63364179,1035.161995
6.2450,31.22216505,52.63225443,1034.74008
6.2500,31.79204389,52.6332664,1034.32353
6.2550,32.36271888,52.6370846,1033.911999
6.2600,32.93244062,52.64449843,1033.506072
6.2650,33.50172183,52.6538613,1033.105625
6.2700,34.07169424,52.66748015,1032.710469
6.2750,34.64136758,52.68314232,1032.320994
6.2800,35.21138246,52.70179882,1031.937133
6.2850,35.78043911,52.72157622,1031.558999
6.2900,36.34927959,52.74319841,1031.186628
6.2950,36.91845313,52.76702141,1030.820091
6.3000,37.48881849,52.79208994,1030.45889
6.3050,38.05911637,52.81898089,1030.103635
6.3100,38.62749544,52.84691071,1029.754436
6.3150,39.19390331,52.87488315,1029.411553
6.3200,39.75930693,52.90300453,1029.074669
6.3250,40.32141889,52.93134342,1028.744261
6.3300,40.88025718,52.96044265,1028.420574
6.3350,41.43515789,52.98967442,1028.103343
6.3400,41.98503011,53.01946193,1027.792599
6.3450,42.52918139,53.04920937,1027.488572
6.3500,43.06911236,53.07985036,1027.190509
6.3550,43.6029703,53.11166086,1026.899079
6.3600,44.13167983,53.14378621,1026.613412
6.3650,44.65368701,53.17746665,1026.333923
6.3700,45.16891622,53.21227284,1026.060681
6.3750,45.6779758,53.24825018,1025.792837
6.3800,46.18064914,53.2866434,1025.530476
6.3850,46.67658129,53.32717334,1025.273591
6.3900,47.16516992,53.36971912,1025.021961
6.3950,47.6463237,53.41472585,1024.775685
6.4000,48.11942621,53.46311946,1024.534738
6.4050,48.58387402,53.5137545,1024.298613
6.4100,49.03948618,53.5677954,1024.067239
6.4150,49.48471971,53.62448005,1023.840683
6.4200,49.9213402,53.68327917,1023.618214
6.4250,50.34871142,53.74500275,1023.399702
6.4300,50.76587947,53.81007946,1023.185258
6.4350,51.17293161,53.87719659,1022.974294
6.4400,51.57019795,53.94707535,1022.766955
6.4450,51.95822827,54.0197689,1022.562393
6.4500,52.33582398,54.09496354,1022.361107
6.4550,52.70348857,54.17111244,1022.162441
6.4600,53.0617791,54.249509,1021.96634
6.4650,53.40994417,54.32973743,1021.772737
6.4700,53.74713135,54.41075431,1021.58178
6.4750,54.07565459,54.49235786,1021.392537
6.4800,54.39378795,54.57435885,1021.20562
6.4850,54.70268499,54.6568577,1021.020687
6.4900,55.002347,54.73897397,1020.837739
6.4950,55.29254329,54.82017048,1020.657136
6.5000,55.57287008,54.89961541,1020.478989
6.5050,55.84476572,54.97660962,1020.30265
6.5100,56.10934491,55.05048518,1020.127938
6.5150,56.36647434,55.121055,1019.955009
6.5200,56.61625846,55.18713533,1019.783655
6.5250,56.860734,55.24845637,1019.61317
6.5300,57.10035156,55.30333686,1019.44338
6.5350,57.33479798,55.35318519,1019.274899
6.5400,57.56543604,55.39659081,1019.107092
6.5450,57.79398774,55.43343003,1018.93962
6.5500,58.02101822,55.46318469,1018.772362
6.5550,58.24759748,55.4839872,1018.604855
6.5600,58.4752282,55.49615885,1018.437
6.5650,58.70437382,55.4993844,1018.268355
6.5700,58.93447906,55.49243942,1018.099125
6.5750,59.16639897,55.4756486,1017.929229
6.5800,59.40093686,55.44863986,1017.758418
6.5850,59.63876787,55.41123599,1017.586535
6.5900,59.87901656,55.36221606,1017.413353
6.5950,60.12162069,55.30174717,1017.23902
6.6000,60.3662087,55.23015824,1017.063474
6.6050,60.61370795,55.14701554,1016.886411
6.6100,60.86558206,55.05275713,1016.707781
6.6150,61.12047541,54.94702989,1016.527443
6.6200,61.3778145,54.83015376,1016.34574
6.6250,61.63875236,54.70182059,1016.162264
6.6300,61.90386141,54.56220327,1015.976643
6.6350,62.1727485,54.41298039,1015.789207
6.6400,62.44493952,54.2528667,1015.599969
6.6450,62.72110834,54.08407166,1015.409025
6.6500,63.00075655,53.90569324,1015.216227
6.6550,63.28388194,53.71789471,1015.021565
6.6600,63.56969894,53.5212751,1014.8254
6.6650,63.85832324,53.31534069,1014.627548
6.6700,64.14955017,53.10041161,1014.427914
6.6750,64.44379115,52.87659312,1014.226468
6.6800,64.74103276,52.64422093,1014.023369
6.6850,65.0425845,52.40388055,1013.818116
6.6900,65.34631964,52.15671575,1013.611488
6.6950,65.65321793,51.90270464,1013.403229
6.7000,65.96294014,51.64177266,1013.193523
6.7050,66.27652333,51.37461674,1012.982364
6.7100,66.59400344,51.10105283,1012.769902
6.7150,66.91653577,50.8220164,1012.555926
6.7200,67.24294522,50.53764166,1012.340986
6.7250,67.57487122,50.24667795,1012.124448
6.7300,67.91067342,49.95062444,1011.907197
6.7350,68.25256935,49.64947226,1011.688688
6.7400,68.59996522,49.34363317,1011.469231
6.7450,68.95291357,49.03302171,1011.248963
6.7500,69.31188815,48.71777681,1011.027613
6.7550,69.67547825,48.39973192,1010.805935
6.7600,70.04379852,48.0792526,1010.58397
6.7650,70.41643274,47.75523614,1010.361566
6.7700,70.79380673,47.42988056,1010.138994
6.7750,71.17455,47.10348013,1009.916726
6.7800,71.55971794,46.7765816,1009.694605
6.7850,71.94792526,46.44814716,1009.472754
6.7900,72.33955242,46.11981977,1009.251216
6.7950,72.73463961,45.79181786,1009.029982
6.8000,73.13374497,45.46446335,1008.808933
6.8050,73.53570616,45.13793672,1008.588527
6.8100,73.94060329,44.81257708,1008.368698
6.8150,74.34892337,44.48872418,1008.149453
6.8200,74.75968417,44.16720226,1007.931366
6.8250,75.17203435,43.84759662,1007.714697
6.8300,75.58725537,43.53099677,1007.499268
6.8350,76.00525866,43.21609275,1007.284854
6.8400,76.4253465,42.90263088,1007.071781
6.8450,76.84801956,42.59319598,1006.860616
6.8500,77.27274404,42.2867668,1006.65108
6.8550,77.69929968,41.98373384,1006.443606
6.8600,78.12712676,41.68324669,1006.238232
6.8650,78.55730283,41.38658807,1006.035147
6.8700,78.98927672,41.09452271,1005.834472
6.8750,79.42348007,40.80676551,1005.636109
6.8800,79.8589567,40.52334362,1005.440312
6.8850,80.29576313,40.24479737,1005.247398
6.8900,80.73406487,39.97177805,1005.057423
6.8950,81.17357269,39.70397186,1004.870267
6.9000,81.61436445,39.44207091,1004.686187
6.9050,82.05351907,39.18490368,1004.505419
6.9100,82.49144654,38.93421775,1004.328055
6.9150,82.92676491,38.69015666,1004.154452
6.9200,83.35998706,38.45355838,1003.98435
6.9250,83.79116674,38.22645939,1003.818031
6.9300,84.2183731,38.00689836,1003.655456
6.9350,84.64252994,37.79525875,1003.49656
6.9400,85.06223506,37.59266589,1003.341532
6.9450,85.47690446,37.39905541,1003.190337
6.9500,85.8864249,37.21477132,1003.043043
6.9550,86.2899803,37.03928411,1002.899644
6.9600,86.68748147,36.87478112,1002.760331
6.9650,87.07878953,36.72162191,1002.624805
6.9700,87.46316103,36.58028728,1002.49336
6.9750,87.83985691,36.45299345,1002.366259
6.9800,88.20773195,36.33840892,1002.243438
6.9850,88.56551567,36.23645276,1002.125083
6.9900,88.91491402,36.14736045,1002.010778
6.9950,89.25451658,36.07240176,1001.900894
7.0000,89.58499672,36.01063737,1001.794751
7.0050,89.90563295,35.96365718,1001.692756
7.0100,90.21579022,35.93154373,1001.594994
7.0150,90.51564294,35.91425616,1001.501228
7.0200,90.80564103,35.91165595,1001.411161
7.0250,91.0853986,35.92508976,1001.325111
7.0300,91.35721875,35.95330504,1001.242242
7.0350,91.62002226,35.99679261,1001.162899
7.0400,91.8758075,36.05591659,1001.086533
7.0450,92.1239989,36.1291759,1001.013038
7.0500,92.36554215,36.21613408,1000.942126
7.0550,92.6022411,36.31569287,1000.873128
7.0600,92.83463207,36.42618936,1000.805588
7.0650,93.06343281,36.54798912,1000.739588
7.0700,93.29016135,36.6803254,1000.674456
7.0750,93.51567101,36.82113561,1000.609665
7.0800,93.74015598,36.9690594,1000.544959
7.0850,93.96625878,37.1247976,1000.479878
7.0900,94.19317757,37.28599459,1000.414157
7.0950,94.42172551,37.45087013,1000.347208
7.1000,94.65189324,37.6199439,1000.27928
7.1050,94.88519088,37.79025026,1000.209514
7.1100,95.12232737,37.96199303,1000.137858
7.1150,95.3625875,38.13346462,1000.064284
7.1200,95.6080712,38.30433022,999.9883556
7.1250,95.8592147,38.47213086,999.9097018
7.1300,96.11582692,38.63710372,999.8285694
7.1350,96.37916495,38.79866229,999.7448435
7.1400,96.65001636,38.9554334,999.658227
7.1450,96.92767043,39.1063464,999.5687303
7.1500,97.21290843,39.24996103,999.4763365
7.1550,97.50405235,39.38684687,999.3814988
7.1600,97.8011001,39.51651257,999.2843835
7.1650,98.10265409,39.6381603,999.1852358
7.1700,98.40974698,39.75043892,999.0838901
7.1750,98.72176053,39.85290102,998.9804949
7.1800,99.03829789,39.94494071,998.87519
7.1850,99.35909345,40.02654057,998.7680654
7.1900,99.683105,40.09777025,998.6594736
7.1950,100.0097983,40.15831961,998.54958
7.2000,100.3380639,40.2092583,998.4389132
7.2050,100.6684366,40.25024908,998.3275576
7.2100,100.9981481,40.28061815,998.2160248
7.2150,101.3282393,40.30135298,998.1043526
7.2200,101.6563673,40.31429992,997.9934575
7.2250,101.9805884,40.31772344,997.8835042
7.2300,102.2991057,40.31342318,997.7752484
7.2350,102.6102497,40.30186019,997.669101
7.2400,102.9125336,40.28449431,997.5656943
7.2450,103.2032365,40.26196778,997.4656439
7.2500,103.4805172,40.23548759,997.3695472
7.2550,103.7424994,40.20727507,997.2779878
7.2600,103.9884666,40.17582435,997.1909195
7.2650,104.2158959,40.14310207,997.1090696
7.2700,104.4253407,40.10943903,997.0323204
7.2750,104.6145741,40.07499066,996.9609721
7.2800,104.7843594,40.04131965,996.8950526
7.2850,104.9352928,40.00940006,996.8344281
7.2900,105.0670123,39.98138695,996.7794798
7.2950,105.180819,39.9561642,996.7296324
7.3000,105.2768076,39.93406252,996.6849476
7.3050,105.3573413,39.91544731,996.6447337
7.3100,105.424837,39.89985282,996.6085251
7.3150,105.4814477,39.88694053,996.5757225
7.3200,105.5293025,39.87710568,996.5459986
7.3250,105.5713066,39.86914119,996.5185301
7.3300,105.6084861,39.8619728,996.4929569
7.3350,105.6447489,39.85503308,996.4683716
7.3400,105.6813672,39.84672595,996.4443826
7.3450,105.7220923,39.83745289,996.4203869
7.3500,105.7680959,39.82678701,996.3961297
7.3550,105.8205758,39.8138357,996.371274
7.3600,105.8810379,39.79740155,996.3454388
7.3650,105.952257,39.77821534,996.3181649
7.3700,106.0325313,39.75387415,996.289552
7.3750,106.1225266,39.72421817,996.2594177
7.3800,106.2234041,39.68961375,996.2275409
7.3850,106.3330329,39.64856554,996.1941674
7.3900,106.451736,39.60218836,996.1595044
7.3950,106.5780888,39.5508043,996.1237459
7.4000,106.7113606,39.49284021,996.0867861
7.4050,106.8496621,39.43035801,996.0490756
7.4100,106.9906533,39.36206076,996.0108767
7.4150,107.1342104,39.28910918,995.9722572
7.4200,107.2783154,39.2108513,995.9332588
7.4250,107.4214243,39.13031525,995.8945921
7.4300,107.5608316,39.04602118,995.8563411
7.4350,107.6972775,38.95788409,995.8181124
7.4400,107.8287558,38.86806112,995.7805032
7.4450,107.957284,38.77597118,995.7428976
7.4500,108.0815512,38.68323722,995.7055772
7.4550,108.2030255,38.58847625,995.6680643
7.4600,108.3220061,38.49302734,995.6303483
7.4650,108.4396319,38.39642723,995.5922415
7.4700,108.5547076,38.29886704,995.5539364
7.4750,108.6684104,38.20108074,995.5153422
7.4800,108.779773,38.10344304,995.4767924
7.4850,108.8891331,38.00560029,995.4382325
7.4900,108.9980593,37.90790513,995.3995974
7.4950,109.1058813,37.810351,995.3610282
7.5000,109.2136617,37.71165665,995.3221689
7.5050,109.3219345,37.61329768,995.2831289
7.5100,109.431086,37.51554002,995.2439242
7.5150,109.54061,37.41830162,995.2048067
7.5200,109.6510394,37.32021217,995.1654382
7.5250,109.7605375,37.22264918,995.1264672
7.5300,109.8695079,37.12653381,995.0879514
7.5350,109.9769664,37.03119863,995.0500436
7.5400,110.0808869,36.93632475,995.0131607
7.5450,110.181437,36.8437043,994.9776405
7.5500,110.277889,36.75329459,994.9435937
7.5550,110.3694804,36.66401614,994.9112368
7.5600,110.454638,36.57786793,994.8810762
7.5650,110.532436,36.49350555,994.8533447
7.5700,110.6025108,36.41189915,994.8281322
7.5750,110.663933,36.33304081,994.8057513
7.5800,110.7161723,36.25686159,994.7862996
7.5850,110.7585255,36.18274508,994.7699353
7.5900,110.7916203,36.11064692,994.7564971
7.5950,110.8166705,36.03966927,994.7457613
7.6000,110.8347394,35.97083038,994.7378336
7.6050,110.846348,35.9024241,994.732548
7.6100,110.8510013,35.83533398,994.7300709
7.6150,110.8491868,35.76847602,994.7304292
7.6200,110.8422097,35.70207444,994.7336369
7.6250,110.8291804,35.63538686,994.7399497
7.6300,110.8125541,35.56774181,994.7489336
7.6350,110.7897866,35.49771718,994.7611469
7.6400,110.7636283,35.42405349,994.7761346
7.6450,110.7326589,35.34691175,994.7943973
7.6500,110.696146,35.2640926,994.8160209
7.6550,110.6544706,35.17731474,994.8414609
7.6600,110.6081813,35.08584987,994.8706176
7.6650,110.554707,34.98937269,994.9042923
7.6700,110.4946856,34.88854234,994.9425219
7.6750,110.4278378,34.7847781,994.9858279
7.6800,110.3534725,34.6773734,995.0343963
7.6850,110.2699314,34.56764969,995.088793
7.6900,110.1771145,34.45672264,995.1492414
7.6950,110.07445,34.34621467,995.2164723
7.7000,109.9608431,34.23757604,995.2907689
7.7050,109.835638,34.13171219,995.3726566
7.7100,109.6976167,34.03032125,995.4626311
7.7150,109.5449926,33.93395941,995.5612343
7.7200,109.3772401,33.84446343,995.6689284
7.7250,109.1921879,33.76205593,995.7863095
7.7300,108.9911489,33.6885809,995.9135797
7.7350,108.7707511,33.62541767,996.0516794
7.7400,108.5300548,33.57301678,996.201066
7.7450,108.2668085,33.53197364,996.3625737
7.7500,107.9803296,33.50250729,996.5366183
7.7550,107.6702282,33.48708986,996.7238494
7.7600,107.3344511,33.4842529,996.9246425
7.7650,106.9721771,33.49462367,997.1393415
7.7700,106.5841485,33.5183451,997.368001
7.7750,106.1709959,33.55512608,997.6106626
7.7800,105.7317861,33.60515817,997.8677295
7.7850,105.2666094,33.66960718,998.1392926
7.7900,104.7753356,33.74713831,998.4251557
7.7950,104.2587782,33.83902033,998.7254808
7.8000,103.7159561,33.94577949,999.0403514
7.8050,103.1464236,34.06693874,999.3701013
7.8100,102.5507407,34.20188879,999.714202
7.8150,101.927907,34.35115451,1000.072819
7.8200,101.2777031,34.5149567,1000.445965
7.8250,100.6003859,34.69371727,1000.833354
7.8300,99.89596303,34.88627283,1001.234898
7.8350,99.16471902,35.09332173,1001.650431
7.8400,98.40581677,35.31506013,1002.080099
7.8450,97.61913038,35.54864531,1002.52344
7.8500,96.8036118,35.79402797,1002.980376
7.8550,95.96054315,36.05181562,1003.450615
7.8600,95.0888142,36.32017792,1003.934432
7.8650,94.18868558,36.59849794,1004.431533
7.8700,93.25890922,36.88638132,1004.942439
7.8750,92.3016751,37.18354277,1005.466829
7.8800,91.31697651,37.48896231,1006.004984
7.8850,90.30305624,37.80246893,1006.557727
7.8900,89.26224005,38.12242485,1007.124835
7.8950,88.19315443,38.44893887,1007.707023
7.9000,87.09714599,38.78119728,1008.304521
7.9050,85.97317741,39.11807815,1008.917861
7.9100,84.82292317,39.45756407,1009.547216
7.9150,83.64786066,39.79879475,1010.192653
7.9200,82.44816046,40.14119937,1010.854567
7.9250,81.22535457,40.48345385,1011.533029
7.9300,79.98028234,40.82501465,1012.22854
7.9350,78.71450717,41.16685069,1012.941313
7.9400,77.42832604,41.50842107,1013.671919
7.9450,76.124158,41.84946539,1014.420151
7.9500,74.80360915,42.19035254,1015.18618
7.9550,73.46798757,42.52940124,1015.969915
7.9600,72.11723973,42.86842707,1016.772499
7.9650,70.75246083,43.20635693,1017.593529
7.9700,69.37490014,43.54362441,1018.433409
7.9750,67.98509545,43.87885922,1019.292248
7.9800,66.58361798,44.21292693,1020.170677
7.9850,65.17121094,44.54589118,1021.068849
7.9900,63.74898881,44.8760318,1021.98702
7.9950,62.31860384,45.20399811,1022.924747
8.0000,60.87984592,45.53003192,1023.882456
8.0050,59.43362806,45.8548947,1024.860312
8.0100,57.98178576,46.17886019,1025.858214
8.0150,56.52697117,46.50328582,1026.875657
8.0200,55.06882337,46.82775964,1027.913331
8.0250,53.61010323,47.15387335,1028.97054
8.0300,52.1496086,47.4812044,1030.047591
8.0350,50.6893915,47.81117599,1031.14462
8.0400,49.23024178,48.1430821,1032.260993
8.0450,47.77309219,48.47849452,1033.396638
8.0500,46.3183006,48.81753553,1034.551827
8.0550,44.86531762,49.15973165,1035.726205
8.0600,43.41634398,49.50681575,1036.919656
8.0650,41.97067678,49.85948248,1038.132628
8.0700,40.52914613,50.21767026,1039.365079
8.0750,39.08972946,50.58139819,1040.617559
8.0800,37.65305091,50.95096926,1041.889491
8.0850,36.21932669,51.32534689,1043.180834
8.0900,34.78709251,51.70469001,1044.491886
8.0950,33.3570532,52.08830985,1045.822312
8.1000,31.92896306,52.47676089,1047.172447
8.1050,30.50383063,52.86949742,1048.541716
8.1100,29.08171313,53.26732391,1049.930739
8.1150,27.66316733,53.67080268,1051.339083
8.1200,26.24744619,54.0790955,1052.766803
8.1250,24.8355916,54.49087972,1054.213193
8.1300,23.42829016,54.90755034,1055.67856
8.1350,22.02478987,55.3292799,1057.162741
8.1400,20.62714558,55.75532095,1058.665027
8.1450,19.23420133,56.18617641,1060.185714
8.1500,17.84679816,56.62114043,1061.725469
8.1550,16.46376462,57.05874115,1063.283812
8.1600,15.08661379,57.50055918,1064.86057
8.1650,13.715736,57.94572643,1066.455958
8.1700,12.35063482,58.39355222,1068.06974
8.1750,10.99054911,58.84177694,1069.702256
8.1800,9.635485162,59.29151111,1071.353802
8.1850,8.286352009,59.74131528,1073.023715
8.1900,6.941481367,60.19132303,1074.712488
8.1950,5.601859673,60.64165421,1076.419665
8.2000,4.26703105,61.09211525,1078.145083
8.2050,2.937985705,61.54350507,1079.888915
8.2100,1.615881291,61.99593506,1081.650547
8.2150,0.2996438633,62.44921754,1083.430363
8.2200,-1.009379642,62.90214647,1085.227245
8.2250,-2.31094718,63.35577333,1087.041183
8.2300,-3.605323512,63.81024419,1088.871934
8.2350,-4.890791499,64.26519757,1090.719021
8.2400,-6.16729552,64.7207129,1092.582358
8.2450,-7.434586586,65.17665158,1094.461801
8.2500,-8.69163759,65.63300769,1096.35617
8.2550,-9.938635041,66.08986132,1098.26568
8.2600,-11.173891,66.54582944,1100.189239
8.2650,-12.39701016,67.0024046,1102.127224
8.2700,-13.60750324,67.45904107,1104.078827
8.2750,-14.80444827,67.91591956,1106.043955
8.2800,-15.98808083,68.37336155,1108.022617
8.2850,-17.15781428,68.83109982,1110.014347
8.2900,-18.31375562,69.28999606,1112.018364
8.2950,-19.45706845,69.7478912,1114.035394
8.3000,-20.58653073,70.20384856,1116.065066
8.3050,-21.70190629,70.65845481,1118.107437
8.3100,-22.80400385,71.10978472,1120.161615
8.3150,-23.89318063,71.55815741,1122.228047
8.3200,-24.96858325,72.00368468,1124.305979
8.3250,-26.02974186,72.44577416,1126.395025
8.3300,-27.07740689,72.8844514,1128.495344
8.3350,-28.11150887,73.31890329,1130.605534
8.3400,-29.13223038,73.74931298,1132.72592
8.3450,-30.14015463,74.17420811,1134.856163
8.3500,-31.13551442,74.5943507,1136.995771
8.3550,-32.11670199,75.0084582,1139.143742
8.3600,-33.08514908,75.41712431,1141.300539
8.3650,-34.04042835,75.81831678,1143.465374
8.3700,-34.98290738,76.21358028,1145.638528
8.3750,-35.9118178,76.60305259,1147.819482
8.3800,-36.82663986,76.98465488,1150.007687
8.3850,-37.72763525,77.35820583,1152.202708
8.3900,-38.61492351,77.72501602,1154.404647
8.3950,-39.48865526,78.08539672,1156.612996
8.4000,-40.34878851,78.43710205,1158.827206
8.4050,-41.19607391,78.78146632,1161.047022
8.4100,-42.0318148,79.11802733,1163.273019
8.4150,-42.85541286,79.44582747,1165.504854
8.4200,-43.66604331,79.76582961,1167.742609
8.4250,-44.46481702,80.07736578,1169.985912
8.4300,-45.25298012,80.37985801,1172.234327
8.4350,-46.03133862,80.67111202,1174.487934
8.4400,-46.79964759,80.95219587,1176.745935
8.4450,-47.55875001,81.22283603,1179.007594
8.4500,-48.30960703,81.48311269,1181.27263
8.4550,-49.05166238,81.73345895,1183.54145
8.4600,-49.78681285,81.97323042,1185.813686
8.4650,-50.5141628,82.20425649,1188.088553
8.4700,-51.23343311,82.42528577,1190.365608
8.4750,-51.94447929,82.63793832,1192.644604
8.4800,-52.64748384,82.84233904,1194.924507
8.4850,-53.34197437,83.03971011,1197.204794
8.4900,-54.02818271,83.23050477,1199.485387
8.4950,-54.70516601,83.41602626,1201.765146
8.5000,-55.37311494,83.59559727,1204.043505
8.5050,-56.03270796,83.76775206,1206.319601
8.5100,-56.68530334,83.93324116,1208.593271
8.5150,-57.33110295,84.09213603,1210.863414
8.5200,-57.97271288,84.24392505,1213.131035
8.5250,-58.60964032,84.38924169,1215.395169
8.5300,-59.24303001,84.5289296,1217.656637
8.5350,-59.87208308,84.66194881,1219.914167
8.5400,-60.49646746,84.79139283,1222.167982
8.5450,-61.11514413,84.91808819,1224.418002
8.5500,-61.72539331,85.04372306,1226.665223
8.5550,-62.32582118,85.16962483,1228.909515
8.5600,-62.91556016,85.29623993,1231.150158
8.5650,-63.49454939,85.4219435,1233.386124
8.5700,-64.06036435,85.54758717,1235.616771
8.5750,-64.61418799,85.67196714,1237.841569
8.5800,-65.15662867,85.79415728,1240.061707
8.5850,-65.68765611,85.9130195,1242.276223
8.5900,-66.20575943,86.0274103,1244.48665
8.5950,-66.71071791,86.13854254,1246.692087
8.6000,-67.20032265,86.24768781,1248.892314
8.6050,-67.67382223,86.35355018,1251.086541
8.6100,-68.12884011,86.45757196,1253.274747
8.6150,-68.56519002,86.55828889,1255.456671
8.6200,-68.98131647,86.65569636,1257.631688
8.6250,-69.37813203,86.74833559,1259.800542
8.6300,-69.75340928,86.83684692,1261.963533
8.6350,-70.10775309,86.91981062,1264.120869
8.6400,-70.44042681,86.99574366,1266.272766
8.6450,-70.75037259,87.0651093,1268.419182
8.6500,-71.03798392,87.12604615,1270.560526
8.6550,-71.30351748,87.17889401,1272.69774
8.6600,-71.5448788,87.22336521,1274.831543
8.6650,-71.76076168,87.26011468,1276.962182
8.6700,-71.95097396,87.28677184,1279.08923
8.6750,-72.11579392,87.30211817,1281.212926
8.6800,-72.25471857,87.30647285,1283.333259
8.6850,-72.36773074,87.29903926,1285.449985
8.6900,-72.45460946,87.27897835,1287.563409
8.6950,-72.51653522,87.24452098,1289.673893
8.7000,-72.55560947,87.19534782,1291.780815
8.7050,-72.57408932,87.12826307,1293.883946
8.7100,-72.57461207,87.04320809,1295.981217
8.7150,-72.55893858,86.94057399,1298.073489
8.7200,-72.52970025,86.82022019,1300.160572
8.7250,-72.4869788,86.68486051,1302.243491
8.7300,-72.43242589,86.53691696,1304.322286
8.7350,-72.36658419,86.37974711,1306.397084
8.7400,-72.29035503,86.21382325,1308.467642
8.7450,-72.20364797,86.04062854,1310.534049
8.7500,-72.10730632,85.86164969,1312.594046
8.7550,-72.00394546,85.67711179,1314.647816
8.7600,-71.89436674,85.48688564,1316.695062
8.7650,-71.78074657,85.29264651,1318.736756
8.7700,-71.66397007,85.09652929,1320.773943
8.7750,-71.54461008,84.90014349,1322.805756
8.7800,-71.42293006,84.70363324,1324.832339
8.7850,-71.30008096,84.50771343,1326.853652
8.7900,-71.17662657,84.31184575,1328.869341
8.7950,-71.05504567,84.11429881,1330.880126
8.8000,-70.93699211,83.91628198,1332.886628
8.8050,-70.8239757,83.71851348,1334.888965
8.8100,-70.71596353,83.52049282,1336.886209
8.8150,-70.61310535,83.32231335,1338.878711
8.8200,-70.516101,83.12665661,1340.867131
8.8250,-70.42382097,82.9341547,1342.851054
8.8300,-70.33615614,82.74543281,1344.82926
8.8350,-70.25369014,82.56208118,1346.801499
8.8400,-70.17667627,82.38329274,1348.76649
8.8450,-70.10507029,82.2088081,1350.724324
8.8500,-70.04098698,82.0396661,1352.674646
8.8550,-69.98444947,81.8754663,1354.617051
8.8600,-69.93797968,81.71667938,1356.552533
8.8650,-69.89910455,81.56604549,1358.480753
8.8700,-69.86807988,81.42232186,1360.402466
8.8750,-69.84174411,81.28625927,1362.31702
8.8800,-69.81885719,81.15885628,1364.222128
8.8850,-69.79695068,81.03953032,1366.116485
8.8900,-69.77709637,80.92756193,1367.997937
8.8950,-69.75816212,80.82112293,1369.865893
8.9000,-69.74155414,80.71916128,1371.720255
8.9050,-69.72804451,80.6195669,1373.559925
8.9100,-69.71792261,80.51918001,1375.384703
8.9150,-69.71261051,80.41772893,1377.193816
8.9200,-69.71415222,80.31452052,1378.987635
8.9250,-69.72169877,80.20942239,1380.765023
8.9300,-69.73599288,80.10120894,1382.525249
8.9350,-69.75515644,79.9918535,1384.268987
8.9400,-69.77933487,79.8826682,1385.995768
8.9450,-69.8094823,79.77240562,1387.705443
8.9500,-69.84552615,79.66113095,1389.396044
8.9550,-69.88783315,79.54845183,1391.067492
8.9600,-69.93664172,79.4349772,1392.719625
8.9650,-69.99008185,79.32273464,1394.351999
8.9700,-70.04812008,79.21269462,1395.965085
8.9750,-70.1103396,79.10489102,1397.558396
8.9800,-70.17560589,79.00069174,1399.13256
8.9850,-70.24177928,78.90068276,1400.687684
8.9900,-70.30633376,78.80620042,1402.222195
8.9950,-70.36762879,78.71680382,1403.7355
9.0000,-70.42405771,78.63218692,1405.227707
9.0050,-70.47409501,78.55229487,1406.698695
9.0100,-70.51491781,78.47694392,1408.149404
9.0150,-70.54601531,78.40449314,1409.579306
9.0200,-70.56651557,78.33404179,1410.988078
9.0250,-70.57486306,78.26373242,1412.375889
9.0300,-70.56917052,78.1931245,1413.742646
9.0350,-70.54769675,78.1208028,1415.087725
9.0400,-70.50842695,78.0464707,1416.411496
9.0450,-70.44951868,77.97147763,1417.714951
9.0500,-70.36927816,77.89488658,1418.999625
9.0550,-70.26493298,77.81638319,1420.266292
9.0600,-70.13493567,77.73785996,1421.515033
9.0650,-69.97765612,77.65697146,1422.745775
9.0700,-69.79042417,77.57591678,1423.957899
9.0750,-69.5716269,77.49345705,1425.152324
9.0800,-69.32047188,77.41106321,1426.330315
9.0850,-69.03528139,77.32646175,1427.491728
9.0900,-68.71393284,77.24047953,1428.636974
9.0950,-68.35660935,77.15352472,1429.766747
9.1000,-67.96191961,77.06499977,1430.879958
9.1050,-67.52928849,76.97474513,1431.977476
9.1100,-67.06005278,76.8806781,1433.06055
9.1150,-66.55425816,76.78209694,1434.129336
9.1200,-66.0127897,76.67551963,1435.181887
9.1250,-65.43851892,76.55934988,1436.220474
9.1300,-64.83334013,76.43160038,1437.24588
9.1350,-64.19949193,76.29098813,1438.259351
9.1400,-63.53941085,76.13721882,1439.262237
9.1450,-62.85611526,75.96926536,1440.255345
9.1500,-62.15016496,75.78898059,1441.2397
9.1550,-61.42455554,75.59671255,1442.215769
9.1600,-60.68146359,75.39314084,1443.184014
9.1650,-59.92425661,75.17835801,1444.145271
9.1700,-59.15607189,74.95193092,1445.100306
9.1750,-58.37916859,74.71551182,1446.050854
9.1800,-57.59795617,74.46663357,1446.997533
9.1850,-56.81543708,74.20767011,1447.942374
9.1900,-56.03465428,73.93978473,1448.886879
9.1950,-55.25702095,73.66577235,1449.832282
9.2000,-54.48298503,73.38426407,1450.7773
9.2050,-53.71369849,73.09844673,1451.723853
9.2100,-52.95095338,72.81092529,1452.672844
9.2150,-52.19554828,72.52302737,1453.625005
9.2200,-51.44789847,72.23445705,1454.580573
9.2250,-50.71108655,71.94470667,1455.540899
9.2300,-49.9875024,71.65518209,1456.505898
9.2350,-49.27914553,71.3649526,1457.475958
9.2400,-48.58684816,71.07585332,1458.451805
9.2450,-47.91144333,70.78699432,1459.433501
9.2500,-47.25236454,70.49941204,1460.422335
9.2550,-46.61114457,70.21354986,1461.418454
9.2600,-45.98963412,69.92892975,1462.421708
9.2650,-45.38890283,69.64477157,1463.432963
9.2700,-44.8085973,69.3630036,1464.451934
9.2750,-44.24752217,69.08609259,1465.479502
9.2800,-43.70677905,68.8137823,1466.513902
9.2850,-43.18714697,68.54816437,1467.557035
9.2900,-42.6876231,68.28930497,1468.609166
9.2950,-42.2091064,68.03860013,1469.670412
9.3000,-41.75014371,67.79796993,1470.741369
9.3050,-41.30834607,67.56847597,1471.82155
9.3100,-40.8827836,67.35024858,1472.909971
9.3150,-40.47239481,67.14294436,1474.005224
9.3200,-40.0761925,66.9467042,1475.106244
9.3250,-39.69392174,66.76111273,1476.211954
9.3300,-39.32443591,66.58397068,1477.320409
9.3350,-38.96617616,66.41771266,1478.431672
9.3400,-38.619415,66.26098255,1479.545136
9.3450,-38.28312755,66.11301485,1480.660248
9.3500,-37.95630045,65.97401609,1481.77616
9.3550,-37.63760911,65.84488629,1482.891806
9.3600,-37.32561479,65.72389082,1484.005709
9.3650,-37.01878461,65.61131513,1485.117213
9.3700,-36.71763734,65.50379763,1486.225312
9.3750,-36.42276786,65.40093347,1487.329626
9.3800,-36.13226724,65.30274281,1488.428899
9.3850,-35.84651996,65.20974651,1489.52253
9.3900,-35.56614231,65.12076359,1490.610011
9.3950,-35.28914858,65.03504457,1491.690198
9.4000,-35.01538469,64.95164803,1492.762805
9.4050,-34.74339142,64.86970886,1493.826202
9.4100,-34.4723315,64.78950126,1494.879759
9.4150,-34.20146558,64.71094837,1495.922194
9.4200,-33.93053737,64.63425999,1496.953929
9.4250,-33.6590283,64.55824178,1497.973288
9.4300,-33.38621729,64.48388715,1498.980229
9.4350,-33.11137774,64.41118609,1499.974513
9.4400,-32.83434101,64.33921726,1500.955491
9.4450,-32.55396082,64.26959568,1501.923271
9.4500,-32.27097215,64.19885278,1502.876574
9.4550,-31.98507217,64.12693971,1503.81559
9.4600,-31.69597467,64.05491715,1504.740022
9.4650,-31.40267112,63.98074969,1505.649369
9.4700,-31.10508038,63.90518833,1506.543163
9.4750,-30.80438456,63.82818948,1507.421634
9.4800,-30.49941993,63.75124899,1508.28442
9.4850,-30.19123286,63.67303737,1509.13154
9.4900,-29.87902812,63.59301024,1509.962868
9.4950,-29.56481923,63.50958635,1510.778733
9.5000,-29.24957633,63.4249269,1511.580043
9.5050,-28.93384168,63.3382303,1512.367051
9.5100,-28.61763772,63.25035353,1513.140098
9.5150,-28.30052902,63.15835744,1513.898822
9.5200,-27.98487045,63.06427576,1514.644182
9.5250,-27.66992016,62.96936263,1515.375729
9.5300,-27.35656072,62.8727333,1516.094308
9.5350,-27.04446949,62.77473272,1516.800318
9.5400,-26.7341044,62.67462307,1517.49389
9.5450,-26.42590225,62.57270143,1518.175207
9.5500,-26.12010935,62.46941506,1518.845081
9.5550,-25.81631158,62.3646671,1519.503793
9.5600,-25.51390212,62.259433,1520.15184
9.5650,-25.21409582,62.15377397,1520.789768
9.5700,-24.91735134,62.04621844,1521.418544
9.5750,-24.62307316,61.93748655,1522.038628
9.5800,-24.33002438,61.82809034,1522.650956
9.5850,-24.03697753,61.71696147,1523.254859
9.5900,-23.74523386,61.60432988,1523.850847
9.5950,-23.45273847,61.49086727,1524.439443
9.6000,-23.16051508,61.37561504,1525.020454
9.6050,-22.86925887,61.2598704,1525.594036
9.6100,-22.57956661,61.14279511,1526.16064
9.6150,-22.29165235,61.02491688,1526.721137
9.6200,-22.00549509,60.90599287,1527.276509
9.6250,-21.72101092,60.78628317,1527.827592
9.6300,-21.43783488,60.66527535,1528.375417
9.6350,-21.15749207,60.53892491,1528.919926
9.6400,-20.87993574,60.40835066,1529.461871
9.6450,-20.60407911,60.27246281,1530.0011
9.6500,-20.33055518,60.13027251,1530.537774
9.6550,-20.05953249,59.98233647,1531.073143
9.6600,-19.79089424,59.82786484,1531.607052
9.6650,-19.52600621,59.66657795,1532.140297
9.6700,-19.26556483,59.49855861,1532.672975
9.6750,-19.0091949,59.32277552,1533.205212
9.6800,-18.75857105,59.13921813,1533.737225
9.6850,-18.51358875,58.94797448,1534.269456
9.6900,-18.27494583,58.74828427,1534.801446
9.6950,-18.04262385,58.54015239,1535.332725
9.7000,-17.81855531,58.32411629,1535.864041
9.7050,-17.60194215,58.10127022,1536.394699
9.7100,-17.39368065,57.87234986,1536.924851
9.7150,-17.19477399,57.63643923,1537.454389
9.7200,-17.00541508,57.39458754,1537.983458
9.7250,-16.82434215,57.14844642,1538.511179
9.7300,-16.65178738,56.89784897,1539.036361
9.7350,-16.48709835,56.64349874,1539.558502
9.7400,-16.33057226,56.38660886,1540.077087
9.7450,-16.18309233,56.12677289,1540.590936
9.7500,-16.04446104,55.86566665,1541.100297
9.7550,-15.91379241,55.60434067,1541.603798
9.7600,-15.78943601,55.34238604,1542.101108
9.7650,-15.6728524,55.07980798,1542.59171
9.7700,-15.56339935,54.8173313,1543.074899
9.7750,-15.46161015,54.55617068,1543.550438
9.7800,-15.36651822,54.29668735,1544.017365
9.7850,-15.27681608,54.0392206,1544.474912
9.7900,-15.19313881,53.78498884,1544.922199
9.7950,-15.1144295,53.53432088,1545.357902
9.8000,-15.04119783,53.28736451,1545.783113
9.8050,-14.97249349,53.04551867,1546.196573
9.8100,-14.90786184,52.80828708,1546.597752
9.8150,-14.84807944,52.57846652,1546.987025
9.8200,-14.79021704,52.35524303,1547.362745
9.8250,-14.7348837,52.13943159,1547.725145
9.8300,-14.68096624,51.93084777,1548.073944
9.8350,-14.62892586,51.73035525,1548.408831
9.8400,-14.57827456,51.5377807,1548.729491
9.8450,-14.52904635,51.35532315,1549.037838
9.8500,-14.48179911,51.18322143,1549.333829
9.8550,-14.43628279,51.02172977,1549.618205
9.8600,-14.39248027,50.87062498,1549.89097
9.8650,-14.35071147,50.73106732,1550.153197
9.8700,-14.30988619,50.60346206,1550.405066
9.8750,-14.27107752,50.48682793,1550.646697
9.8800,-14.2336275,50.38199605,1550.878546
9.8850,-14.19805129,50.28927628,1551.101777
9.8900,-14.16426075,50.20851549,1551.316769
9.8950,-14.13321035,50.13866617,1551.524455
9.9000,-14.10345285,50.08089034,1551.725355
9.9050,-14.07731576,50.03216834,1551.920257
9.9100,-14.0547172,49.9931313,1552.110272
9.9150,-14.03518122,49.9635829,1552.295862
9.9200,-14.01831347,49.94293164,1552.476999
9.9250,-14.00448113,49.93153702,1552.654032
9.9300,-13.99474963,49.92821176,1552.827125
9.9350,-13.98868758,49.93358356,1552.996597
9.9400,-13.9861191,49.94629997,1553.161894
9.9450,-13.98907926,49.96630162,1553.323793
9.9500,-13.99608274,49.99375432,1553.482412
9.9550,-14.00888465,50.02689815,1553.637561
9.9600,-14.02771943,50.06572788,1553.790416
9.9650,-14.05167292,50.11074876,1553.940385
9.9700,-14.07997484,50.16088567,1554.087321
9.9750,-14.1142163,50.21669744,1554.231223
9.9800,-14.15520899,50.27666931,1554.372158
9.9850,-14.2023593,50.34073729,1554.509631
9.9900,-14.25519728,50.4094354,1554.643982
9.9950,-14.31481059,50.48131288,1554.775114
10.0000,-14.37962142,50.55738028,1554.902714
10.0050,-14.45132215,50.63600528,1555.027289
10.0100,-14.52930256,50.71709137,1555.14767
10.0150,-14.61211387,50.80207195,1555.26417
10.0200,-14.69953236,50.88894113,1555.374621
10.0250,-14.79148295,50.97752003,1555.479196
10.0300,-14.8875996,51.06817472,1555.577137
10.0350,-14.98833672,51.16009479,1555.668237
10.0400,-15.0930496,51.25375454,1555.752062
10.0450,-15.20052708,51.34789933,1555.827761
10.0500,-15.31091775,51.44317,1555.895144
10.0550,-15.42616536,51.53830565,1555.955118
10.0600,-15.54548514,51.63377807,1556.006493
10.0650,-15.66883814,51.73036288,1556.049019
10.0700,-15.79630628,51.82857056,1556.083085
10.0750,-15.92739694,51.92745298,1556.107315
10.0800,-16.06144389,52.02882015,1556.122526
10.0850,-16.19883341,52.13164823,1556.127997
10.0900,-16.3377208,52.23659365,1556.123385
10.0950,-16.47898264,52.34359469,1556.108823
10.1000,-16.62106002,52.45324146,1556.083024
10.1050,-16.76507584,52.565086,1556.046025
10.1100,-16.91210931,52.67970909,1555.99849
10.1150,-17.06161077,52.79654979,1555.939668
10.1200,-17.21510198,52.91564084,1555.869965
10.1250,-17.37140665,53.0359803,1555.789537
10.1300,-17.52974576,53.15988686,1555.698202
10.1350,-17.69159515,53.28679373,1555.596448
10.1400,-17.85635913,53.41778509,1555.484893
10.1450,-18.02370814,53.55168736,1555.362573
10.1500,-18.19432182,53.6889182,1555.230574
10.1550,-18.36638479,53.83098981,1555.08844
10.1600,-18.53974127,53.97730353,1554.936956
10.1650,-18.7153223,54.12707664,1554.775846
10.1700,-18.89263087,54.28169089,1554.605793
10.1750,-19.07083772,54.44160871,1554.427456
10.1800,-19.25071768,54.60695187,1554.242116
10.1850,-19.43188968,54.7773234,1554.048864
10.1900,-19.61556519,54.95212236,1553.849464
10.1950,-19.80114148,55.13355397,1553.64427
10.2000,-19.98924124,55.3208833,1553.433838
10.2050,-20.17928482,55.51586043,1553.219159
10.2100,-20.37119397,55.71766574,1552.999479
10.2150,-20.56569341,55.92679696,1552.77594
10.2200,-20.76314945,56.14317117,1552.548681
10.2250,-20.96372199,56.36562102,1552.317903
10.2300,-21.16769541,56.5945904,1552.083763
10.2350,-21.37508256,56.82989884,1551.846159
10.2400,-21.58650769,57.07128976,1551.605488
10.2450,-21.80128758,57.31824015,1551.361238
10.2500,-22.02002404,57.56951797,1551.113141
10.2550,-22.24242486,57.82512325,1550.861091
10.2600,-22.46939394,58.08504328,1550.605488
10.2650,-22.70207736,58.34701028,1550.345937
10.2700,-22.94170325,58.61193455,1550.082819
10.2750,-23.1872424,58.87857218,1549.81595
10.2800,-23.43866582,59.1460672,1549.545319
10.2850,-23.69600338,59.41525864,1549.271166
10.2900,-23.96098301,59.6842575,1548.99327
10.2950,-24.23331365,59.95340545,1548.711534
10.3000,-24.51376758,60.2218812,1548.425649
10.3050,-24.80149121,60.48972979,1548.134893
10.3100,-25.09590945,60.75712002,1547.839437
10.3150,-25.39762015,61.02227603,1547.538045
10.3200,-25.70638354,61.28693597,1547.231761
10.3250,-26.02372598,61.54979529,1546.919578
10.3300,-26.34896182,61.81114616,1546.601869
10.3350,-26.68248241,62.0709099,1546.277823
10.3400,-27.02287546,62.3281021,1545.947415
10.3450,-27.37061466,62.58357139,1545.610603
10.3500,-27.72545157,62.83677275,1545.266524
10.3550,-28.08575052,63.08871176,1544.914756
10.3600,-28.45276399,63.33722708,1544.554654
10.3650,-28.82582117,63.58403562,1544.186941
10.3700,-29.20418068,63.82658404,1543.810202
10.3750,-29.58793974,64.0661801,1543.42511
10.3800,-29.97738367,64.30264541,1543.030745
10.3850,-30.37202682,64.53655099,1542.627517
10.3900,-30.77208451,64.76710477,1542.215156
10.3950,-31.1765016,64.99414958,1541.794291
10.4000,-31.58643152,65.21896107,1541.365402
10.4050,-32.00029348,65.44156056,1540.92834
10.4100,-32.4175149,65.66243904,1540.483018
10.4150,-32.83808976,65.88264359,1540.030507
10.4200,-33.26102538,66.10274483,1539.570779
10.4250,-33.68732021,66.32399381,1539.103723
10.4300,-34.11660145,66.54595148,1538.630111
10.4350,-34.54801802,66.76859258,1538.149401
10.4400,-34.98104952,66.99201277,1537.662267
10.4450,-35.41570215,67.21723894,1537.168721
10.4500,-35.85037232,67.44425078,1536.668908
10.4550,-36.28544317,67.67244842,1536.162755
10.4600,-36.72181834,67.90345387,1535.650935
10.4650,-37.15773776,68.13704993,1535.133206
10.4700,-37.59350921,68.37262482,1534.609413
10.4750,-38.03027374,68.611416,1534.080639
10.4800,-38.46715092,68.852801,1533.546388
10.4850,-38.90562897,69.0969359,1533.007472
10.4900,-39.3440716,69.34412936,1532.463525
10.4950,-39.78324954,69.59357142,1531.915834
10.5000,-40.22392043,69.84504666,1531.364111
10.5050,-40.66511232,70.09852635,1530.809173
10.5100,-41.10690194,70.35305744,1530.251548
10.5150,-41.54882007,70.608533,1529.690744
10.5200,-41.99132196,70.86412611,1529.127411
10.5250,-42.43477507,71.11943024,1528.560979
10.5300,-42.87878018,71.3736609,1527.992517
10.5350,-43.32372718,71.62626113,1527.421713
10.5400,-43.76890965,71.8784477,1526.849157
10.5450,-44.21583164,72.12971351,1526.275182
10.5500,-44.6648781,72.37956198,1525.700664
10.5550,-45.11584212,72.628064,1525.125017
10.5600,-45.56796324,72.87422039,1524.547948
10.5650,-46.02195476,73.11850901,1523.969283
10.5700,-46.47656164,73.36024327,1523.388981
10.5750,-46.93203208,73.59982073,1522.80692
10.5800,-47.38822255,73.83660484,1522.221971
10.5850,-47.84577513,74.0692848,1521.634571
10.5900,-48.30425375,74.29845594,1521.04394
10.5950,-48.7635753,74.52546131,1520.449991
10.6000,-49.22283774,74.74821104,1519.852337
10.6050,-49.68388059,74.96721886,1519.25086
10.6100,-50.14646981,75.18216026,1518.645262
10.6150,-50.61130818,75.39321153,1518.03566
10.6200,-51.07649494,75.60155207,1517.420796
10.6250,-51.54233819,75.8074227,1516.800969
10.6300,-52.00894701,76.00940631,1516.175663
10.6350,-52.47577921,76.20796743,1515.543896
10.6400,-52.94302907,76.4045178,1514.905415
10.6450,-53.41114331,76.59871194,1514.259922
10.6500,-53.88028573,76.79106027,1513.60732
10.6550,-54.35042318,76.98128278,1512.947163
10.6600,-54.82011237,77.17046607,1512.279316
10.6650,-55.28872031,77.35900322,1511.603948
10.6700,-55.75634824,77.54856633,1510.920654
10.6750,-56.22336578,77.73859989,1510.229289
10.6800,-56.6891207,77.92845157,1509.530379
10.6850,-57.1532045,78.11991399,1508.823563
10.6900,-57.61546096,78.31300758,1508.108995
10.6950,-58.07522768,78.50873056,1507.38589
10.7000,-58.53234497,78.70718944,1506.654269
10.7050,-58.98759704,78.90819153,1505.914518
10.7100,-59.44104928,79.11104279,1505.16667
10.7150,-59.89237979,79.31638118,1504.410276
10.7200,-60.34276876,79.52300723,1503.645719
10.7250,-60.79082318,79.73158295,1502.873425
10.7300,-61.23749501,79.94126224,1502.09256
10.7350,-61.68269715,80.15277129,1501.304515
10.7400,-62.12754399,80.3655805,1500.508601
10.7450,-62.5711185,80.57992321,1499.705045
10.7500,-63.01446515,80.79536531,1498.893331
10.7550,-63.45768206,81.01217126,1498.074521
10.7600,-63.90043319,81.22884681,1497.246959
10.7650,-64.34240507,81.44697314,1496.412157
10.7700,-64.78379798,81.66647717,1495.570036
10.7750,-65.22468825,81.88581067,1494.719483
10.7800,-65.66584702,82.10573168,1493.861523
10.7850,-66.10609423,82.32654164,1492.996697
10.7900,-66.54702581,82.54873226,1492.125159
10.7950,-66.98815338,82.77074613,1491.245603
10.8000,-67.4303359,82.9921637,1490.358783
10.8050,-67.87388641,83.21462133,1489.464559
10.8100,-68.31950893,83.43812346,1488.563362
10.8150,-68.76634286,83.66233041,1487.655767
10.8200,-69.21381696,83.8885645,1486.741572
10.8250,-69.66177663,84.11638555,1485.82115
10.8300,-70.11057494,84.34614917,1484.893652
10.8350,-70.56060585,84.57832757,1483.960101
10.8400,-71.01127781,84.81125965,1483.020521
10.8450,-71.46140593,85.04498367,1482.074337
10.8500,-71.91103485,85.28101218,1481.121346
10.8550,-72.35980985,85.51778426,1480.16202
10.8600,-72.80977639,85.75527352,1479.196571
10.8650,-73.26037296,85.99388115,1478.225237
10.8700,-73.71398195,86.23341827,1477.248758
10.8750,-74.16919299,86.47464777,1476.266527
10.8800,-74.6259578,86.71785681,1475.279468
10.8850,-75.08386085,86.9641266,1474.285971
10.8900,-75.54257004,87.21438822,1473.28683
10.8950,-76.00291288,87.46809368,1472.28169
10.9000,-76.46626779,87.72427054,1471.269787
10.9050,-76.93040485,87.98317431,1470.252111
10.9100,-77.39612194,88.24588344,1469.227897
10.9150,-77.86221879,88.51243296,1468.197521
10.9200,-78.32933201,88.78111216,1467.161064
10.9250,-78.79756207,89.05252287,1466.118792
10.9300,-79.2663236,89.32651019,1465.070678
10.9350,-79.73489609,89.60416492,1464.017302
10.9400,-80.20395231,89.88462353,1462.958217
10.9450,-80.67211896,90.16734322,1461.892737
10.9500,-81.1390991,90.45296447,1460.820945
10.9550,-81.6045591,90.74067771,1459.741715
10.9600,-82.06942701,91.03156522,1458.655444
10.9650,-82.53332268,91.32347698,1457.560746
10.9700,-82.99591266,91.61639606,1456.458422
10.9750,-83.45597299,91.91054884,1455.347429
10.9800,-83.91334911,92.20500901,1454.227145
10.9850,-84.36845915,92.49839665,1453.097431
10.9900,-84.82145747,92.79112448,1451.957665
10.9950,-85.27139023,93.08274769,1450.807161
11.0000,-85.71823446,93.37148419,1449.645987
11.0050,-86.16176789,93.65882722,1448.47347
11.0100,-86.60048475,93.944772,1447.289507
11.0150,-87.03540289,94.22782803,1446.093999
11.0200,-87.46608548,94.50953419,1444.88652
11.0250,-87.89382413,94.78947032,1443.666648
11.0300,-88.31782399,95.06720211,1442.434777
11.0350,-88.73739337,95.34285274,1441.190018
11.0400,-89.15204933,95.61576301,1439.93266
11.0450,-89.56267948,95.88603807,1438.661834
11.0500,-89.96882924,96.15351454,1437.378431
11.0550,-90.37007689,96.41935902,1436.082111
11.0600,-90.76655975,96.68230621,1434.773519
11.0650,-91.15676089,96.94217641,1433.452551
11.0700,-91.54124928,97.19919394,1432.118978
11.0750,-91.91963706,97.45295925,1430.773108
11.0800,-92.29131489,97.70285969,1429.415269
11.0850,-92.65765087,97.94811905,1428.044925
11.0900,-93.01644626,98.1895109,1426.661358
11.0950,-93.36778785,98.42858845,1425.265796
11.1000,-93.7111707,98.6652443,1423.858131
11.1050,-94.04663027,98.89878863,1422.43855
11.1100,-94.37308405,99.13042372,1421.006841
11.1150,-94.69172897,99.35951248,1419.562403
11.1200,-95.00272751,99.58511549,1418.104943
11.1250,-95.30527439,99.80753862,1416.634925
11.1300,-95.59868944,100.0263125,1415.152457
11.1350,-95.88237171,100.2419151,1413.657496
11.1400,-96.15734484,100.4549095,1412.149585
11.1450,-96.42412926,100.6638849,1410.629475
11.1500,-96.68252096,100.8692049,1409.097878
11.1550,-96.9322699,101.0707635,1407.554242
11.1600,-97.17038616,101.269219,1405.998995
11.1650,-97.39769165,101.4642763,1404.431758
11.1700,-97.61116847,101.6560627,1402.85294
11.1750,-97.81270296,101.8439832,1401.261856
11.1800,-98.00133969,102.0269393,1399.657582
11.1850,-98.17744932,102.2049461,1398.041334
11.1900,-98.33987022,102.3764238,1396.411886
11.1950,-98.48707054,102.5402035,1394.76943
11.2000,-98.61712327,102.6994615,1393.11363
11.2050,-98.73031745,102.8540086,1391.444121
11.2100,-98.82535278,103.0023829,1389.761085
11.2150,-98.90238289,103.1439742,1388.062875
11.2200,-98.96040225,103.2795838,1386.35013
11.2250,-98.99778535,103.4085489,1384.622563
11.2300,-99.01523996,103.5309831,1382.878816
11.2350,-99.01360049,103.6460196,1381.120019
11.2400,-98.99259541,103.7533885,1379.34555
11.2450,-98.95297037,103.8529569,1377.555849
11.2500,-98.89573309,103.9437558,1375.751112
11.2550,-98.82108142,104.0260189,1373.932709
11.2600,-98.72922929,104.0988121,1372.099968
11.2650,-98.62048715,104.1627459,1370.252896
11.2700,-98.49710284,104.217765,1368.391272
11.2750,-98.35999572,104.2622753,1366.516216
11.2800,-98.2099247,104.2976976,1364.627933
11.2850,-98.04760078,104.3242438,1362.727392
11.2900,-97.87304579,104.3413289,1360.815575
11.2950,-97.68746907,104.3497737,1358.893576
11.3000,-97.49256951,104.3501327,1356.961833
11.3050,-97.29057517,104.3418378,1355.02105
11.3100,-97.08313852,104.3249152,1353.071028
11.3150,-96.87144431,104.3000288,1351.113185
11.3200,-96.65507962,104.2678153,1349.147795
11.3250,-96.43330761,104.2291541,1347.175213
11.3300,-96.20681936,104.1852885,1345.196565
11.3350,-95.9759617,104.1378275,1343.212072
11.3400,-95.74111425,104.088737,1341.221718
11.3450,-95.50174595,104.0373161,1339.226297
11.3500,-95.25595062,103.9842161,1337.225901
11.3550,-95.00347153,103.9291877,1335.220673
11.3600,-94.74343172,103.8741057,1333.210821
11.3650,-94.47738182,103.8191943,1331.194902
11.3700,-94.20476752,103.7645206,1329.174007
11.3750,-93.92793291,103.711088,1327.148161
11.3800,-93.6466077,103.6604378,1325.117983
11.3850,-93.36045052,103.6131669,1323.084049
11.3900,-93.07206384,103.5702339,1321.047403
11.3950,-92.78265115,103.5302926,1319.006167
11.4000,-92.49373377,103.4950837,1316.959944
11.4050,-92.20506758,103.4641581,1314.908403
11.4100,-91.91741411,103.4377606,1312.851559
11.4150,-91.62915717,103.4171604,1310.789256
11.4200,-91.34081931,103.402701,1308.722245
11.4250,-91.05277474,103.3962338,1306.650676
11.4300,-90.76451228,103.3974442,1304.575137
11.4350,-90.47642664,103.4055497,1302.495091
11.4400,-90.18797491,103.4213504,1300.410986
11.4450,-89.89848638,103.4468658,1298.322624
11.4500,-89.60730695,103.4805992,1296.229083
11.4550,-89.31366259,103.5235729,1294.131089
11.4600,-89.01717572,103.5748038,1292.027262
11.4650,-88.71700935,103.6352388,1289.917818
11.4700,-88.41359754,103.7047983,1287.801218
11.4750,-88.10447721,103.7821746,1285.677085
11.4800,-87.78911784,103.8684543,1283.545786
11.4850,-87.46623661,103.9611204,1281.40611
11.4900,-87.13527153,104.0596504,1279.258145
11.4950,-86.79536055,104.1644466,1277.101249
11.5000,-86.44723157,104.2720163,1274.936267
11.5050,-86.09087379,104.3814988,1272.761863
11.5100,-85.72693483,104.490258,1270.578638
11.5150,-85.35589389,104.5988762,1268.387454
11.5200,-84.98066994,104.705013,1266.187267
11.5250,-84.60133318,104.8079132,1263.977732
11.5300,-84.21741625,104.9080348,1261.759881
11.5350,-83.82997519,105.0042894,1259.53348
11.5400,-83.4390269,105.0954401,1257.298655
11.5450,-83.04573583,105.1825897,1255.056417
11.5500,-82.64884937,105.2637544,1252.806894
11.5550,-82.24772252,105.3397779,1250.550049
11.5600,-81.84223762,105.4096797,1248.286922
11.5650,-81.43110931,105.4729051,1246.019419
11.5700,-81.01297782,105.5287617,1243.748293
11.5750,-80.58742178,105.5769347,1241.474728
11.5800,-80.15397776,105.6160049,1239.199867
11.5850,-79.71121054,105.6442864,1236.923495
11.5900,-79.26180233,105.6602017,1234.647539
11.5950,-78.805508,105.6640736,1232.372076
11.6000,-78.34206817,105.6549836,1230.098776
11.6050,-77.86984408,105.6334288,1227.829381
11.6100,-77.38823579,105.6002728,1225.565477
11.6150,-76.89400549,105.5565774,1223.306788
11.6200,-76.38737093,105.5016228,1221.054578
11.6250,-75.86840608,105.4341129,1218.809611
11.6300,-75.33459755,105.3550662,1216.570642
11.6350,-74.78593177,105.262127,1214.338835
11.6400,-74.2215098,105.1543389,1212.115528
11.6450,-73.64238619,105.0324189,1209.901272
11.6500,-73.04956861,104.897088,1207.696448
11.6550,-72.4434434,104.7474217,1205.50188
11.6600,-71.82548115,104.5817355,1203.31828
11.6650,-71.19634626,104.4009453,1201.147587
11.6700,-70.55619719,104.2036902,1198.989762
11.6750,-69.90280756,103.99263,1196.845974
11.6800,-69.23682991,103.7657101,1194.715743
11.6850,-68.55845296,103.5246562,1192.599559
11.6900,-67.86724303,103.2677679,1190.496827
11.6950,-67.16349199,102.996338,1188.409244
11.7000,-66.44607917,102.7094158,1186.338223
11.7050,-65.71555194,102.4090589,1184.283758
11.7100,-64.97212655,102.0948442,1182.245524
11.7150,-64.21741842,101.765838,1180.223318
11.7200,-63.45025558,101.4223232,1178.217304
11.7250,-62.67264344,101.0628051,1176.227491
11.7300,-61.88459271,100.6885311,1174.253847
11.7350,-61.08648496,100.30023,1172.296982
11.7400,-60.27818404,99.89797515,1170.357003
11.7450,-59.45943588,99.48288234,1168.433708
11.7500,-58.63162616,99.05689937,1166.527839
11.7550,-57.79414781,98.62001537,1164.638418
11.7600,-56.94624701,98.17474282,1162.764933
11.7650,-56.08853507,97.72073902,1160.908117
11.7700,-55.22042349,97.25810425,1159.06797
11.7750,-54.34265059,96.79041042,1157.245159
11.7800,-53.45623174,96.31576079,1155.438531
11.7850,-52.56190784,95.83688203,1153.648423
11.7900,-51.65991106,95.35400198,1151.874266
11.7950,-50.75197306,94.86531865,1150.116055
11.8000,-49.83815535,94.37366492,1148.373606
11.8050,-48.91843434,93.87838344,1146.646817
11.8100,-47.99430849,93.38212577,1144.935126
11.8150,-47.0667891,92.8838163,1143.238529
11.8200,-46.13587417,92.3832086,1141.55686
11.8250,-45.20324355,91.88206955,1139.890599
11.8300,-44.27045486,91.37930564,1138.238926
11.8350,-43.3370518,90.87534145,1136.601693
11.8400,-42.4043824,90.37121777,1134.978639
11.8450,-41.47141222,89.8666332,1133.369631
11.8500,-40.53690226,89.36287907,1131.774261
11.8550,-39.60184978,88.85855913,1130.19208
11.8600,-38.66702854,88.35505505,1128.623764
11.8650,-37.73347344,87.8528176,1127.068118
11.8700,-36.80131634,87.35296034,1125.52518
11.8750,-35.87058858,86.8563404,1123.994692
11.8800,-34.9410292,86.36360191,1122.476668
11.8850,-34.01354138,85.87709273,1120.971506
11.8900,-33.08618725,85.39764496,1119.47851
11.8950,-32.1592706,84.92483567,1117.997476
11.9000,-31.23092818,84.46058186,1116.527059
11.9050,-30.30118763,84.00474201,1115.067109
11.9100,-29.37057602,83.55647798,1113.616776
11.9150,-28.43983449,83.114945,1112.176496
11.9200,-27.50947896,82.67993818,1110.746232
11.9250,-26.57932637,82.25224553,1109.326448
11.9300,-25.65109932,81.8305787,1107.917541
11.9350,-24.72528379,81.41437307,1106.519645
11.9400,-23.80216222,81.00351016,1105.132156
11.9450,-22.88090064,80.59720167,1103.75573
11.9500,-21.96066191,80.19429717,1102.390383
11.9550,-21.04117219,79.79551121,1101.036376
11.9600,-20.12156141,79.40202792,1099.69333
11.9650,-19.20033614,79.01327037,1098.361074
11.9700,-18.27649761,78.63062141,1097.039457
11.9750,-17.34939794,78.25237492,1095.72863
11.9800,-16.41783583,77.87968042,1094.427992
11.9850,-15.48028232,77.51039356,1093.137071
11.9900,-14.53688172,77.14547338,1091.857312
11.9950,-13.586165,76.78510658,1090.587815
12.0000,-12.62805826,76.42886646,1089.328306
12.0050,-11.66214298,76.07599245,1088.078472
12.0100,-10.68969695,75.72642465,1086.839598
12.0150,-9.710130825,75.38021516,1085.611411
12.0200,-8.726025559,75.03777391,1084.394532
12.0250,-7.735411492,74.69964675,1083.188138
12.0300,-6.739425903,74.36622587,1081.991503
12.0350,-5.737698193,74.03856426,1080.804655
12.0400,-4.732431327,73.71611836,1079.627744
12.0450,-3.724119704,73.39953645,1078.460725
12.0500,-2.712612514,73.08813671,1077.302765
12.0550,-1.698244968,72.78320698,1076.153793
12.0600,-0.6839972984,72.4819294,1075.014654
12.0650,0.3312986678,72.18491335,1073.884413
12.0700,1.345947115,71.89250063,1072.763268
12.0750,2.359513048,71.60277142,1071.650779
12.0800,3.371292011,71.31708394,1070.548163
12.0850,4.381248778,71.03385767,1069.454377
12.0900,5.388260673,70.75313986,1068.370072
12.0950,6.392477124,70.47689459,1067.295725
12.1000,7.392626597,70.20228482,1066.230711
12.1050,8.387364343,69.92933721,1065.175301
12.1100,9.376654329,69.65719118,1064.129254
12.1150,10.36045774,69.38685066,1063.092979
12.1200,11.33965012,69.11910378,1062.066519
12.1250,12.31349233,68.85327297,1061.049941
12.1300,13.28166763,68.58956393,1060.044001
12.1350,14.24471798,68.32795008,1059.048146
12.1400,15.20152155,68.06874799,1058.062969
12.1450,16.15169739,67.81240992,1057.088199
12.1500,17.09245199,67.55944299,1056.12487
12.1550,18.02409976,67.31100553,1055.173196
12.1600,18.94788265,67.06611295,1054.232407
12.1650,19.86295724,66.82397038,1053.302478
12.1700,20.76849572,66.58618387,1052.384696
12.1750,21.66456277,66.35066444,1051.478208
12.1800,22.55052878,66.11672675,1050.582932
12.1850,23.42572626,65.88259861,1049.698955
12.1900,24.29212192,65.64918478,1048.825472
12.1950,25.14968229,65.413921,1047.962199
12.2000,25.99860809,65.17534505,1047.109248
12.2050,26.83967674,64.93250511,1046.265997
12.2100,27.67367168,64.68658897,1045.432887
12.2150,28.5021792,64.43598912,1044.608972
12.2200,29.32815978,64.1803307,1043.793767
12.2250,30.1527421,63.92012637,1042.986955
12.2300,30.97836285,63.65402185,1042.188255
12.2350,31.80759467,63.38411956,1041.397425
12.2400,32.6419527,63.10925342,1040.614318
12.2450,33.48321278,62.83056117,1039.838584
12.2500,34.3326726,62.54890691,1039.070375
12.2550,35.19065744,62.26422731,1038.309801
12.2600,36.05910661,61.97792031,1037.556784
12.2650,36.93680886,61.68934034,1036.811381
12.2700,37.82342463,61.39959083,1036.074115
12.2750,38.71870824,61.10821731,1035.344684
12.2800,39.62249688,60.81689718,1034.623301
12.2850,40.53409483,60.52759605,1033.910263
12.2900,41.4524657,60.23982258,1033.205066
12.2950,42.37613679,59.95401563,1032.508164
12.3000,43.30369498,59.67092414,1031.819465
12.3050,44.23282163,59.38998734,1031.139306
12.3100,45.16357181,59.11179001,1030.467037
12.3150,46.0929254,58.83486589,1029.80269
12.3200,47.0209032,58.56003385,1029.145866
12.3250,47.94565417,58.28702293,1028.496991
12.3300,48.86600418,58.01527715,1027.855554
12.3350,49.77974234,57.74488852,1027.222015
12.3400,50.68768279,57.47615717,1026.595798
12.3450,51.58807301,57.20851225,1025.977064
12.3500,52.47960205,56.94251679,1025.366018
12.3550,53.36227899,56.67768379,1024.762527
12.3600,54.23624421,56.41570971,1024.166342
12.3650,55.10166551,56.15726137,1023.57772
12.3700,55.9610933,55.90203587,1022.996072
12.3750,56.81405409,55.65020075,1022.421616
12.3800,57.66244973,55.40179706,1021.853548
12.3850,58.50600215,55.15812351,1021.292573
12.3900,59.34543269,54.9201283,1020.738613
12.3950,60.18068739,54.68693617,1020.191455
12.4000,61.01266319,54.4603025,1019.65134
12.4050,61.84175706,54.2421947,1019.118599
12.4100,62.66776579,54.03264268,1018.593252
12.4150,63.49003334,53.83063905,1018.074973
12.4200,64.30817569,53.63665504,1017.563857
12.4250,65.12162066,53.44901405,1017.059468
12.4300,65.93010978,53.26874833,1016.56206
12.4350,66.73212613,53.09548654,1016.071935
12.4400,67.52827596,52.92821246,1015.588991
12.4450,68.31798915,52.7660231,1015.113266
12.4500,69.10358723,52.6081116,1014.64383
12.4550,69.884191,52.452902,1014.180863
12.4600,70.65881885,52.30069395,1013.724611
12.4650,71.42915847,52.15114442,1013.275027
12.4700,72.19460372,52.00199848,1012.831721
12.4750,72.95723079,51.8544134,1012.394622
12.4800,73.71734679,51.70802955,1011.963715
12.4850,74.475965,51.56280059,1011.538663
12.4900,75.23261195,51.41746245,1011.11974
12.4950,75.98662322,51.27201282,1010.707082
12.5000,76.73911269,51.12637467,1010.300563
12.5050,77.48950427,50.97998199,1009.900196
12.5100,78.23926529,50.83116915,1009.505195
12.5150,78.98722079,50.68056666,1009.115801
12.5200,79.73221199,50.52858502,1008.732342
12.5250,80.47338066,50.37361255,1008.354443
12.5300,81.21100436,50.21833785,1007.982368
12.5350,81.94336051,50.06106691,1007.615858
12.5400,82.66942014,49.9036145,1007.2554
12.5450,83.38897807,49.74698709,1006.900971
12.5500,84.10077458,49.58983006,1006.552183
12.5550,84.8049073,49.43287855,1006.209013
12.5600,85.49948394,49.27521059,1005.871619
12.5650,86.18352284,49.11828454,1005.540313
12.5700,86.85601286,48.96183026,1005.215068
12.5750,87.51806632,48.80801445,1004.895874
12.5800,88.17106038,48.65721643,1004.582544
12.5850,88.81420576,48.51077709,1004.275546
12.5900,89.44916677,48.36934063,1003.974465
12.5950,90.07531264,48.23258109,1003.679353
12.6000,90.69217269,48.10030023,1003.390254
12.6050,91.29987126,47.97194683,1003.107287
12.6100,91.89775832,47.84650115,1002.830404
12.6150,92.48687168,47.72495224,1002.559836
12.6200,93.06755189,47.6079808,1002.295759
12.6250,93.64128431,47.49372273,1002.037558
12.6300,94.2097776,47.38359571,1001.785558
12.6350,94.77381536,47.27557841,1001.539206
12.6400,95.33339241,47.17031164,1001.298689
12.6450,95.89032585,47.0677465,1001.063479
12.6500,96.44527501,46.96691202,1000.833363
12.6550,96.9971525,46.86935209,1000.608643
12.6600,97.54583457,46.77552763,1000.389301
12.6650,98.09141376,46.68642122,1000.175197
12.6700,98.63249326,46.60325393,999.9665993
12.6750,99.17015295,46.528033,999.7633952
12.6800,99.70459208,46.46051473,999.5654682
12.6850,100.2347175,46.40319158,999.3733191
12.6900,100.7599688,46.35569058,999.1867277
12.6950,101.2793651,46.31835955,999.0057673
12.7000,101.7915385,46.2909994,998.8306735
12.7050,102.2972473,46.2734613,998.6610197
12.7100,102.796616,46.26515549,998.4966642
12.7150,103.2901559,46.26667069,998.3376123
12.7200,103.7788753,46.27818169,998.1835846
12.7250,104.264381,46.30015827,998.0343989
12.7300,104.7483387,46.33150194,997.8893366
12.7350,105.2322168,46.37116362,997.7480197
12.7400,105.7181726,46.41873351,997.6098433
12.7450,106.2082512,46.47464118,997.4744425
12.7500,106.7017325,46.53875082,997.3419614
12.7550,107.2004825,46.61000734,997.2117147
12.7600,107.7059223,46.68739323,997.083347
12.7650,108.2188047,46.77109804,996.9565425
12.7700,108.7401425,46.85962749,996.8309586
12.7750,109.2687401,46.9526155,996.706742
12.7800,109.8044478,47.04876307,996.5835288
12.7850,110.3471501,47.14751704,996.461274
12.7900,110.8960127,47.24731296,996.3396799
12.7950,111.4512762,47.3487613,996.2188035
12.8000,112.0104403,47.45169175,996.0988368
12.8050,112.5721917,47.55546505,995.9799464
12.8100,113.1355166,47.65923107,995.8619755
12.8150,113.7002228,47.76379016,995.7452024
12.8200,114.2635687,47.86844236,995.6297716
12.8250,114.825346,47.97352907,995.5158213
12.8300,115.3838163,48.07630417,995.4031412
12.8350,115.9372271,48.17825836,995.2924503
12.8400,116.4859392,48.27801103,995.183306
12.8450,117.0264343,48.37377712,995.0760892
12.8500,117.5600468,48.46804412,994.9710717
12.8550,118.0846234,48.55982026,994.8684146
12.8600,118.6000925,48.64964039,994.7682338
12.8650,119.1081559,48.73663143,994.6701804
12.8700,119.6101838,48.82158345,994.574184
12.8750,120.1032716,48.90367358,994.4806477
12.8800,120.5842336,48.98261885,994.3900496
12.8850,121.0523826,49.05656611,994.3021859
12.8900,121.5065982,49.12667625,994.2175417
12.8950,121.9468811,49.19208061,994.1358629
12.9000,122.3731255,49.25297309,994.0572029
12.9050,122.7854607,49.30990293,993.9815363
12.9100,123.1827813,49.36400411,993.9092424
12.9150,123.5631932,49.41583633,993.8406052
12.9200,123.9252784,49.46488262,993.7757172
12.9250,124.2654666,49.5122431,993.7153142
12.9300,124.5807166,49.55697601,993.6596385
12.9350,124.8699249,49.60060744,993.6089729
12.9400,125.1305279,49.64241554,993.5636075
12.9450,125.3606394,49.68197559,993.5237094
12.9500,125.5588933,49.7202886,993.489579
12.9550,125.7253279,49.75772559,993.4612752
12.9600,125.8595956,49.79379198,993.4387759
12.9650,125.9597314,49.8279736,993.4223061
12.9700,126.0250131,49.86012671,993.4119593
12.9750,126.0540674,49.89049187,993.4080852
12.9800,126.0450537,49.92007422,993.4110567
12.9850,125.9996111,49.94590731,993.4200583
12.9900,125.9162701,49.96823536,993.4354671
12.9950,125.7971646,49.9884738,993.4572071
13.0000,125.6440145,50.0061701,993.4848267
13.0050,125.4563394,50.02049919,993.5183275
13.0100,125.2353983,50.03304354,993.5578475
13.0150,124.9830211,50.04301855,993.6028918
13.0200,124.6981849,50.05036116,993.653726
13.0250,124.3833343,50.05476576,993.7098717
13.0300,124.0386435,50.05515982,993.7712875
13.0350,123.6658222,50.05048234,993.8374294
13.0400,123.2663576,50.04154757,993.9083533
13.0450,122.8408412,50.02551798,993.983539
13.0500,122.3904974,50.00272247,994.0628904
13.0550,121.9176469,49.97299794,994.1460766
13.0600,121.4219334,49.93660754,994.233189
13.0650,120.903209,49.89246991,994.3241978
13.0700,120.3649107,49.84087542,994.41853
13.0750,119.8097696,49.78079988,994.5156455
13.0800,119.2408642,49.71337657,994.6153323
13.0850,118.6613175,49.6378321,994.7170032
13.0900,118.075048,49.55573941,994.8202562
13.0950,117.4831651,49.46672731,994.924931
13.1000,116.8871321,49.3712364,995.0309561
13.1050,116.2897279,49.26825608,995.1376019
13.1100,115.6911538,49.15810676,995.2449988
13.1150,115.0922095,49.04046012,995.3528945
13.1200,114.4958702,48.91441,995.4606662
13.1250,113.902412,48.77918066,995.5681789
13.1300,113.3131475,48.63571973,995.6752754
13.1350,112.728389,48.4827492,995.7816106
13.1400,112.1473817,48.32004715,995.8872594
13.1450,111.5720487,48.15049935,995.9922827
13.1500,111.0021464,47.97232309,996.0962866
13.1550,110.4383095,47.78736488,996.1993357
13.1600,109.8792548,47.59630496,996.3015978
13.1650,109.3238669,47.39994723,996.4032788
13.1700,108.7705814,47.19888873,996.5044776
13.1750,108.2165144,46.99446708,996.6058627
13.1800,107.6615812,46.7871314,996.7073768
13.1850,107.1045008,46.57786243,996.8092392
13.1900,106.542476,46.36852819,996.9121699
13.1950,105.9734382,46.16061854,997.0167567
13.2000,105.3957437,45.95547863,997.1235797
13.2050,104.8058365,45.75320865,997.2333733
13.2100,104.2036698,45.55519608,997.3464343
13.2150,103.5875469,45.36225562,997.4633765
13.2200,102.9556067,45.17313971,997.5844842
13.2250,102.3083796,44.98957374,997.7102407
13.2300,101.644206,44.81094933,997.8410401
13.2350,100.9636117,44.63689752,997.9771584
13.2400,100.266761,44.46795197,998.1188563
13.2450,99.55156611,44.30458732,998.267054
13.2500,98.81959071,44.14663929,998.4216406
13.2550,98.0691733,43.9935407,998.5832691
13.2600,97.30160895,43.84620977,998.7520554
13.2650,96.5175515,43.70381016,998.9280585
13.2700,95.71869633,43.56749973,999.1114126
13.2750,94.90418598,43.43709201,999.3026118
13.2800,94.07663958,43.31134162,999.5011716
13.2850,93.23515858,43.19189986,999.7078934
13.2900,92.38183327,43.07932308,999.9224022
13.2950,91.51605945,42.97411061,1000.145152
13.3000,90.63794181,42.87581509,1000.376305
13.3050,89.7480308,42.78468542,1000.615903
13.3100,88.84670226,42.70063963,1000.863977
13.3150,87.93394366,42.62285221,1001.120477
13.3200,87.01005928,42.55043032,1001.385432
13.3250,86.07391937,42.48314751,1001.659236
13.3300,85.12493182,42.42133334,1001.942196
13.3350,84.16321937,42.36481568,1002.234549
13.3400,83.18758549,42.31199688,1002.536518
13.3450,82.19896575,42.26450742,1002.848376
13.3500,81.19801988,42.22016996,1003.170098
13.3550,80.18497745,42.18031231,1003.502075
13.3600,79.16250496,42.14268025,1003.843894
13.3650,78.1320956,42.10651987,1004.195562
13.3700,77.09280043,42.07042068,1004.557556
13.3750,76.04524743,42.03500057,1004.930367
13.3800,74.98928328,41.99936078,1005.314436
13.3850,73.9252672,41.96430326,1005.710422
13.3900,72.85281164,41.92768471,1006.118784
13.3950,71.77360407,41.89035346,1006.539695
13.4000,70.69155872,41.84960476,1006.972359
13.4050,69.60759202,41.8068527,1007.417591
13.4100,68.52351222,41.76104314,1007.875409
13.4150,67.44052431,41.71305255,1008.346346
13.4200,66.3577343,41.66190753,1008.831128
13.4250,65.27668803,41.60870442,1009.330236
13.4300,64.19527724,41.55253276,1009.844746
13.4350,63.1158805,41.49319,1010.374792
13.4400,62.03770947,41.43127404,1010.921387
13.4450,60.9614015,41.36571792,1011.485157
13.4500,59.88560241,41.29621536,1012.06704
13.4550,58.8110515,41.22259211,1012.667914
13.4600,57.73960301,41.14530152,1013.288147
13.4650,56.67040974,41.06370444,1013.928807
13.4700,55.60492508,40.97674848,1014.590649
13.4750,54.54497531,40.8849713,1015.274161
13.4800,53.49096679,40.78766773,1015.98022
13.4850,52.44208837,40.6854184,1016.710132
13.4900,51.4003735,40.57634257,1017.464143
13.4950,50.36699165,40.46137419,1018.243501
13.5000,49.34291027,40.34024519,1019.048821
13.5050,48.33069492,40.2148098,1019.880778
13.5100,47.32881601,40.08448204,1020.740744
13.5150,46.34043999,39.95073831,1021.628899
13.5200,45.36606817,39.81464895,1022.546229
13.5250,44.40543078,39.67750914,1023.493187
13.5300,43.45864552,39.54094282,1024.470383
13.5350,42.52402627,39.40674079,1025.478216
13.5400,41.5999685,39.27626499,1026.516907
13.5450,40.68603521,39.15085037,1027.586295
13.5500,39.77786765,39.0323931,1028.687462
13.5550,38.87338513,38.92128299,1029.819747
13.5600,37.96743196,38.81900788,1030.983787
13.5650,37.05641019,38.72730831,1032.179194
13.5700,36.13505506,38.6470129,1033.406412
13.5750,35.19995578,38.57822635,1034.663875
13.5800,34.24610159,38.5242537,1035.951851
13.5850,33.26941007,38.48628599,1037.269644
13.5900,32.265978,38.46516991,1038.617164
13.5950,31.23434473,38.46114122,1039.992929
13.6000,30.1730605,38.47589335,1041.39637
13.6050,29.07842614,38.51057412,1042.826783
13.6100,27.94986068,38.56553393,1044.282966
13.6150,26.78495008,38.64184416,1045.764812
13.6200,25.58358274,38.7409863,1047.271301
13.6250,24.34608402,38.8626,1048.801445
13.6300,23.07345551,39.00706411,1050.354544
13.6350,21.76744765,39.17604967,1051.930114
13.6400,20.43064286,39.37037522,1053.526787
13.6450,19.06568147,39.58969571,1055.144007
13.6500,17.67574427,39.83564846,1056.781154
13.6550,16.26382699,40.10695882,1058.437508
13.6600,14.83213424,40.4038912,1060.112709
13.6650,13.38361206,40.72792933,1061.806707
13.6700,11.92317512,41.07927476,1063.518321
13.6750,10.45254472,41.4562877,1065.247137
13.6800,8.974395421,41.85789991,1066.992245
13.6850,7.490736614,42.28258296,1068.752398
13.6900,6.003227473,42.73091004,1070.528086
13.6950,4.513698902,43.19937031,1072.319324
13.7000,3.023000439,43.68840936,1074.126495
13.7050,1.531899969,44.19510964,1075.949183
13.7100,0.04283773356,44.71941548,1077.787361
13.7150,-1.442529324,45.25760929,1079.640999
13.7200,-2.921550385,45.80869356,1081.510211
13.7250,-4.391992789,46.3700653,1083.394362
13.7300,-5.851821887,46.93934475,1085.292933
13.7350,-7.298938187,47.51498864,1087.20541
13.7400,-8.731773909,48.09565698,1089.132045
13.7450,-10.14911631,48.67823016,1091.071849
13.7500,-11.54970995,49.26072584,1093.024991
13.7550,-12.93396836,49.84081493,1094.990538
13.7600,-14.30202306,50.41521734,1096.968728
