type,name,time_units,begin_time,frequency,count,units
signal_3d,"Noraxon MyoMotion-Trajectories-Lateral humeral epicondyle RT","s",0.0000,200,5068,"mm"

time,x,y,z
0.0000,188.6611171,1.479373927,1242.162248
0.0050,188.6894657,1.506625905,1242.16284
0.0100,188.7178096,1.533882667,1242.163438
0.0150,188.7461488,1.561144213,1242.164041
0.0200,188.7821427,1.588880317,1242.163686
0.0250,188.8266456,1.616624563,1242.162188
0.0300,188.8804676,1.643903423,1242.159373
0.0350,188.9443445,1.670261785,1242.155087
0.0400,189.0189041,1.695283596,1242.149202
0.0450,189.1046344,1.718608036,1242.141631
0.0500,189.2018623,1.739945873,1242.132325
0.0550,189.3107424,1.759090565,1242.121282
0.0600,189.4312484,1.775916476,1242.108546
0.0650,189.5631621,1.790371984,1242.094201
0.0700,189.7060674,1.802478472,1242.078377
0.0750,189.8593475,1.812330859,1242.061241
0.0800,190.0221845,1.82009425,1242.043002
0.0850,190.1935628,1.82600228,1242.023902
0.0900,190.3722814,1.830355991,1242.004214
0.0950,190.5569774,1.833514174,1241.984232
0.1000,190.7461534,1.835878077,1241.964266
0.1050,190.9382057,1.837879136,1241.944629
0.1100,191.1314541,1.839968601,1241.925632
0.1150,191.3241695,1.842605773,1241.907574
0.1200,191.5146018,1.846246234,1241.890741
0.1250,191.7010116,1.851330801,1241.875392
0.1300,191.8817038,1.8582741,1241.861761
0.1350,192.0550622,1.867452009,1241.850045
0.1400,192.2195843,1.879187997,1241.840402
0.1450,192.3739177,1.893740524,1241.832944
0.1500,192.5168945,1.911296781,1241.827734
0.1550,192.6972577,1.937695995,1241.821868
0.1600,192.8625589,1.965772528,1241.81803
0.1650,193.0114853,1.994834147,1241.816183
0.1700,193.1441969,2.024229423,1241.815986
0.1750,193.2601245,2.054588512,1241.817602
0.1800,193.3597903,2.084513227,1241.820493
0.1850,193.4439032,2.113963736,1241.824461
0.1900,193.5127334,2.143339294,1241.829313
0.1950,193.5657008,2.170427229,1241.834768
0.2000,193.6031872,2.195032275,1241.840712
0.2050,193.6253502,2.216815503,1241.846984
0.2100,193.6330968,2.235498481,1241.85346
0.2150,193.6269474,2.249864151,1241.859788
0.2200,193.6069164,2.258706917,1241.865775
0.2250,193.5737315,2.262242113,1241.871506
0.2300,193.5280785,2.259881549,1241.876733
0.2350,193.4706509,2.25062256,1241.881244
0.2400,193.4014035,2.235464844,1241.885258
0.2450,193.3210263,2.215167064,1241.888894
0.2500,193.2304473,2.188593758,1241.891857
0.2550,193.1286294,2.155710616,1241.894436
0.2600,193.0190273,2.118156095,1241.89643
0.2650,192.9015811,2.075257024,1241.89785
0.2700,192.7770159,2.027331955,1241.898725
0.2750,192.6457256,1.97545836,1241.899332
0.2800,192.5092813,1.919241969,1241.899416
0.2850,192.368693,1.859815933,1241.899112
0.2900,192.223947,1.797830774,1241.898702
0.2950,192.0776759,1.733912465,1241.897962
0.3000,191.9316427,1.667822934,1241.896588
0.3050,191.7853123,1.600133525,1241.894851
0.3100,191.6408505,1.532481372,1241.892835
0.3150,191.4995862,1.464902344,1241.890342
0.3200,191.3629271,1.396991189,1241.887226
0.3250,191.2314752,1.329397222,1241.883616
0.3300,191.1049428,1.261467511,1241.879572
0.3350,190.9840887,1.194809403,1241.875343
0.3400,190.8703246,1.128487009,1241.870553
0.3450,190.7631366,1.063887422,1241.865638
0.3500,190.6635804,1.002022772,1241.860702
0.3550,190.5702373,0.941870833,1241.855809
0.3600,190.4829716,0.8833616379,1241.851079
0.3650,190.4013879,0.827744704,1241.846781
0.3700,190.325083,0.7748428653,1241.843062
0.3750,190.2534309,0.7253265975,1241.840056
0.3800,190.1860835,0.678757016,1241.837746
0.3850,190.122939,0.636018669,1241.83621
0.3900,190.0622049,0.5968976647,1241.835728
0.3950,190.0047133,0.5605975459,1241.835882
0.4000,189.9483403,0.5276094511,1241.837176
0.4050,189.8939841,0.4974428167,1241.839192
0.4100,189.8411161,0.4694692399,1241.841943
0.4150,189.7896384,0.4436245948,1241.845244
0.4200,189.7396493,0.4202007222,1241.849108
0.4250,189.6904731,0.3979919608,1241.853406
0.4300,189.6427024,0.3759272892,1241.857719
0.4350,189.5962152,0.3548561268,1241.862156
0.4400,189.5519661,0.3326715541,1241.866114
0.4450,189.5092999,0.3088363502,1241.869595
0.4500,189.4682811,0.2837915637,1241.872648
0.4550,189.4294118,0.2570996203,1241.875024
0.4600,189.3930029,0.2264314243,1241.876343
0.4650,189.3580092,0.1919872096,1241.876781
0.4700,189.3250387,0.154446488,1241.876279
0.4750,189.2933341,0.1122165029,1241.874749
0.4800,189.2633936,0.06617504796,1241.872185
0.4850,189.2341726,0.01674962882,1241.868851
0.4900,189.2059862,-0.03655399848,1241.864742
0.4950,189.1787681,-0.0921634134,1241.860007
0.5000,189.152418,-0.1509408599,1241.854447
0.5050,189.1267861,-0.2116976713,1241.848335
0.5100,189.1021858,-0.2751134029,1241.841465
0.5150,189.0772637,-0.3414965069,1241.834144
0.5200,189.0541264,-0.4100458812,1241.825981
0.5250,189.0325969,-0.4808219683,1241.816957
0.5300,189.0137178,-0.5534764691,1241.807059
0.5350,188.9967204,-0.6276953439,1241.7965
0.5400,188.9819604,-0.7029820916,1241.785368
0.5450,188.969392,-0.7800253823,1241.773509
0.5500,188.9598381,-0.8588108323,1241.760905
0.5550,188.9542796,-0.9375196903,1241.747544
0.5600,188.951424,-1.017722766,1241.733449
0.5650,188.9512512,-1.098625387,1241.718719
0.5700,188.9535784,-1.179887464,1241.703425
0.5750,188.9603603,-1.261752796,1241.687117
0.5800,188.9714361,-1.342900572,1241.669928
0.5850,188.9868128,-1.424640285,1241.651667
0.5900,189.0081699,-1.506325591,1241.631976
0.5950,189.0353598,-1.587741321,1241.610779
0.6000,189.0677533,-1.668454384,1241.588289
0.6050,189.1076113,-1.748411304,1241.563923
0.6100,189.1549899,-1.828079925,1241.537488
0.6150,189.2102165,-1.907554344,1241.508882
0.6200,189.2740732,-1.986904794,1241.477719
0.6250,189.3469987,-2.065904921,1241.443963
0.6300,189.4295121,-2.145200051,1241.407298
0.6350,189.5220116,-2.224187845,1241.367624
0.6400,189.624553,-2.303288131,1241.324826
0.6450,189.7379502,-2.382880577,1241.278661
0.6500,189.8610003,-2.464394057,1241.228942
0.6550,189.9943982,-2.545866663,1241.175887
0.6600,190.1380453,-2.628758629,1241.119306
0.6650,190.2916116,-2.712952497,1241.059128
0.6700,190.4539848,-2.799354155,1240.995529
0.6750,190.6244074,-2.887838462,1240.928676
0.6800,190.8020718,-2.978810623,1240.858668
0.6850,190.9868613,-3.073137287,1240.785463
0.6900,191.1774606,-3.170604458,1240.709437
0.6950,191.3721055,-3.272047041,1240.630978
0.7000,191.5699653,-3.377160575,1240.550237
0.7050,191.7694986,-3.485265691,1240.467761
0.7100,191.9699745,-3.597461497,1240.383563
0.7150,192.1704252,-3.712874013,1240.298084
0.7200,192.3695053,-3.832522592,1240.21148
0.7250,192.5669361,-3.955897724,1240.124083
0.7300,192.7610625,-4.081858642,1240.036416
0.7350,192.9519114,-4.211247911,1239.94845
0.7400,193.1368109,-4.343233363,1239.860968
0.7450,193.3169796,-4.477575031,1239.773905
0.7500,193.4907886,-4.614454816,1239.687587
0.7550,193.6572546,-4.753403234,1239.602452
0.7600,193.8162168,-4.893167685,1239.518722
0.7650,193.9685436,-5.033252113,1239.436405
0.7700,194.1132308,-5.173676367,1239.355837
0.7750,194.2504966,-5.312999675,1239.277161
0.7800,194.3801153,-5.451309821,1239.200476
0.7850,194.5026326,-5.588612397,1239.125717
0.7900,194.6178957,-5.724519994,1239.052946
0.7950,194.7261484,-5.859168957,1238.982188
0.8000,194.8280549,-5.992198011,1238.913432
0.8050,194.9239756,-6.122885453,1238.846801
0.8100,195.0144242,-6.250561824,1238.782215
0.8150,195.1005052,-6.374481657,1238.719691
0.8200,195.1809521,-6.494964722,1238.65939
0.8250,195.2557583,-6.610996816,1238.601477
0.8300,195.3238088,-6.723068181,1238.546085
0.8350,195.3861658,-6.831091751,1238.49297
0.8400,195.4430807,-6.935612024,1238.44204
0.8450,195.4945474,-7.035667389,1238.393415
0.8500,195.5407586,-7.131876223,1238.346863
0.8550,195.5809999,-7.223790478,1238.302589
0.8600,195.6154835,-7.311456528,1238.260465
0.8650,195.6446024,-7.394580326,1238.220518
0.8700,195.6692356,-7.472811015,1238.182513
0.8750,195.687905,-7.546352459,1238.146654
0.8800,195.7004533,-7.614365212,1238.113126
0.8850,195.7080548,-7.676561361,1238.081737
0.8900,195.7100406,-7.73293112,1238.052521
0.8950,195.7059459,-7.784234822,1238.025566
0.9000,195.6969831,-7.830938326,1238.000466
0.9050,195.684025,-7.873025983,1237.977057
0.9100,195.6665047,-7.910930252,1237.955344
0.9150,195.6455765,-7.944093446,1237.935113
0.9200,195.6218861,-7.971918359,1237.916348
0.9250,195.5969141,-7.994683409,1237.898686
0.9300,195.5712392,-8.0111597,1237.88216
0.9350,195.5458521,-8.023108379,1237.866369
0.9400,195.5210449,-8.029173583,1237.851433
0.9450,195.498786,-8.029596418,1237.836971
0.9500,195.4793332,-8.024067742,1237.823034
0.9550,195.4620698,-8.014173785,1237.809452
0.9600,195.4486093,-7.99809965,1237.796066
0.9650,195.4386191,-7.977001254,1237.782932
0.9700,195.4325561,-7.950621216,1237.769803
0.9750,195.4289296,-7.919638383,1237.756888
0.9800,195.4282709,-7.883791437,1237.744129
0.9850,195.4281659,-7.842421005,1237.732012
0.9900,195.4292152,-7.795908763,1237.720268
0.9950,195.4309052,-7.743687795,1237.709004
1.0000,195.4325435,-7.686890909,1237.698091
1.0050,195.4335656,-7.625078576,1237.687637
1.0100,195.4346512,-7.558483989,1237.677486
1.0150,195.4339988,-7.487919858,1237.667724
1.0200,195.4328635,-7.412819016,1237.658161
1.0250,195.4308307,-7.334263478,1237.648568
1.0300,195.4289275,-7.254840853,1237.638268
1.0350,195.4265816,-7.17418257,1237.627302
1.0400,195.4259508,-7.093700376,1237.614945
1.0450,195.4262028,-7.015057191,1237.600943
1.0500,195.4288476,-6.939034832,1237.58477
1.0550,195.4345123,-6.867401566,1237.565874
1.0600,195.4444932,-6.799793458,1237.544054
1.0650,195.4583324,-6.738376439,1237.518885
1.0700,195.4778349,-6.682747878,1237.490079
1.0750,195.5036319,-6.634126383,1237.457293
1.0800,195.5356722,-6.592953248,1237.420424
1.0850,195.5746517,-6.559752282,1237.379251
1.0900,195.6203417,-6.535080252,1237.333807
1.0950,195.6727583,-6.51879899,1237.284018
1.1000,195.7309796,-6.51079169,1237.230112
1.1050,195.7955112,-6.512242474,1237.171724
1.1100,195.8654505,-6.522660688,1237.109111
1.1150,195.9408498,-6.541620648,1237.042273
1.1200,196.0221064,-6.569027881,1236.971266
1.1250,196.1074618,-6.605664207,1236.896284
1.1300,196.1976192,-6.651183661,1236.817252
1.1350,196.2916708,-6.705380229,1236.7344
1.1400,196.389014,-6.767959136,1236.647914
1.1450,196.4894712,-6.839083842,1236.557896
1.1500,196.5929858,-6.91801828,1236.464521
1.1550,196.699182,-7.006097333,1236.367782
1.1600,196.8083271,-7.102559032,1236.267811
1.1650,196.9205322,-7.206275104,1236.164655
1.1700,197.0359678,-7.317484923,1236.058404
1.1750,197.154399,-7.435937596,1235.949242
1.1800,197.2757446,-7.562328211,1235.83709
1.1850,197.3997281,-7.695771512,1235.722226
1.1900,197.5260287,-7.836453807,1235.604725
1.1950,197.6558356,-7.982743688,1235.48458
1.2000,197.7884598,-8.135032531,1235.362009
1.2050,197.9238317,-8.291744193,1235.237392
1.2100,198.0630485,-8.451721747,1235.110585
1.2150,198.2049328,-8.614844646,1234.981969
1.2200,198.3494148,-8.780514966,1234.851669
1.2250,198.4945198,-8.948765911,1234.719939
1.2300,198.6421152,-9.117633735,1234.586821
1.2350,198.7906429,-9.287302381,1234.452558
1.2400,198.9404927,-9.458021115,1234.316969
1.2450,199.0888683,-9.629162347,1234.180611
1.2500,199.2366928,-9.799740328,1234.043447
1.2550,199.3836472,-9.96974119,1233.905446
1.2600,199.5284194,-10.13984184,1233.766831
1.2650,199.6717146,-10.30820816,1233.627563
1.2700,199.8117384,-10.4751204,1233.487972
1.2750,199.9502121,-10.63923153,1233.347876
1.2800,200.0872784,-10.80016777,1233.2073
1.2850,200.2228598,-10.95813294,1233.066184
1.2900,200.3572349,-11.11319082,1232.924491
1.2950,200.4894979,-11.26553726,1232.782345
1.3000,200.6203582,-11.41458925,1232.639658
1.3050,200.7491167,-11.56102345,1232.496441
1.3100,200.8748132,-11.7049424,1232.352895
1.3150,200.9982101,-11.84696239,1232.208813
1.3200,201.1182321,-11.98686184,1232.064356
1.3250,201.2349119,-12.12421208,1231.919576
1.3300,201.3476547,-12.25780759,1231.774788
1.3350,201.4570106,-12.38936383,1231.629608
1.3400,201.5626288,-12.5179852,1231.484136
1.3450,201.6648788,-12.64328702,1231.338389
1.3500,201.7639857,-12.76575031,1231.19222
1.3550,201.8606499,-12.88286483,1231.045906
1.3600,201.9546785,-12.99652395,1230.899183
1.3650,202.0468292,-13.10461931,1230.752231
1.3700,202.136984,-13.20799181,1230.604866
1.3750,202.2261692,-13.30528911,1230.457134
1.3800,202.3134014,-13.39593662,1230.309237
1.3850,202.399487,-13.48014042,1230.161136
1.3900,202.4844888,-13.55752158,1230.012775
1.3950,202.5682001,-13.62783961,1229.864342
1.4000,202.6507149,-13.69076433,1229.715809
1.4050,202.7316241,-13.74659496,1229.567382
1.4100,202.8105653,-13.79425894,1229.41923
1.4150,202.886389,-13.83565904,1229.27147
1.4200,202.9576296,-13.86979107,1229.124466
1.4250,203.0254123,-13.89571881,1228.978307
1.4300,203.0889135,-13.91470526,1228.833046
1.4350,203.14766,-13.92539221,1228.688992
1.4400,203.2006221,-13.92917589,1228.546135
1.4450,203.2480714,-13.92586817,1228.404558
1.4500,203.2888428,-13.91488594,1228.26459
1.4550,203.3220644,-13.89601364,1228.126368
1.4600,203.3481805,-13.8695177,1227.98989
1.4650,203.366499,-13.83660776,1227.855294
1.4700,203.376731,-13.79761449,1227.722579
1.4750,203.3787276,-13.75280896,1227.591714
1.4800,203.3719498,-13.70250202,1227.462735
1.4850,203.3568219,-13.64678255,1227.335502
1.4900,203.3332008,-13.58521324,1227.210303
1.4950,203.3007418,-13.5188873,1227.087106
1.5000,203.2604432,-13.44675541,1226.965805
1.5050,203.2118387,-13.36883354,1226.846507
1.5100,203.1546069,-13.28528918,1226.729328
1.5150,203.089682,-13.19509952,1226.614108
1.5200,203.0166506,-13.09890868,1226.50092
1.5250,202.9373541,-12.99517886,1226.389599
1.5300,202.8508996,-12.88661026,1226.27991
1.5350,202.7566508,-12.77137678,1226.172108
1.5400,202.6546203,-12.64910083,1226.066234
1.5450,202.5458445,-12.5192908,1225.962181
1.5500,202.4309007,-12.38237922,1225.859825
1.5550,202.3096972,-12.23703169,1225.759345
1.5600,202.1830316,-12.08358251,1225.660527
1.5650,202.0503781,-11.92246401,1225.563547
1.5700,201.9127097,-11.75391636,1225.468132
1.5750,201.7702909,-11.5787737,1225.374234
1.5800,201.6217391,-11.39739177,1225.282017
1.5850,201.4682242,-11.20990659,1225.191222
1.5900,201.3090408,-11.01519564,1225.102068
1.5950,201.145682,-10.8142685,1225.014236
1.6000,200.9793638,-10.60581326,1224.927811
1.6050,200.8109384,-10.39037369,1224.842581
1.6100,200.6401389,-10.16660724,1224.758656
1.6150,200.4691975,-9.933456347,1224.67593
1.6200,200.2977464,-9.692507157,1224.594276
1.6250,200.125817,-9.442322799,1224.514091
1.6300,199.9543137,-9.182813947,1224.435168
1.6350,199.7826432,-8.913548919,1224.357837
1.6400,199.611089,-8.633958566,1224.282233
1.6450,199.4401082,-8.343612021,1224.208376
1.6500,199.2693722,-8.042063094,1224.136508
1.6550,199.0977803,-7.730069657,1224.066553
1.6600,198.9263511,-7.406680233,1223.998553
1.6650,198.7547897,-7.072696579,1223.932465
1.6700,198.5822561,-6.727617826,1223.868436
1.6750,198.4089084,-6.372915238,1223.80626
1.6800,198.2355711,-6.007545883,1223.746074
1.6850,198.0617494,-5.631768098,1223.68783
1.6900,197.8876282,-5.246967722,1223.631424
1.6950,197.7133658,-4.854174793,1223.576657
1.7000,197.5384884,-4.454020102,1223.523591
1.7050,197.3626041,-4.047209532,1223.472231
1.7100,197.1856906,-3.635593659,1223.422466
1.7150,197.0073032,-3.218399497,1223.37441
1.7200,196.828765,-2.798370059,1223.327568
1.7250,196.6495353,-2.375728026,1223.282028
1.7300,196.4696964,-1.951075974,1223.237692
1.7350,196.2889817,-1.527163029,1223.194275
1.7400,196.1081758,-1.102443756,1223.151951
1.7450,195.9275959,-0.6779999571,1223.110471
1.7500,195.7477787,-0.2547044474,1223.069564
1.7550,195.5706926,0.1665894048,1223.028805
1.7600,195.3949763,0.5851622092,1222.988198
1.7650,195.2215245,1.001141639,1222.947485
1.7700,195.049358,1.414470515,1222.906816
1.7750,194.8799172,1.824425044,1222.865839
1.7800,194.7144167,2.231390199,1222.824528
1.7850,194.5538177,2.635161615,1222.782629
1.7900,194.3978823,3.034539361,1222.739875
1.7950,194.2473545,3.429940749,1222.696196
1.8000,194.1019497,3.821665359,1222.651723
1.8050,193.9621643,4.208208478,1222.606
1.8100,193.8285496,4.590161977,1222.559063
1.8150,193.7007875,4.965928299,1222.510755
1.8200,193.5785766,5.335474463,1222.461074
1.8250,193.4604074,5.69816532,1222.410279
1.8300,193.3448299,6.054424434,1222.358637
1.8350,193.2326584,6.404966263,1222.306167
1.8400,193.1223979,6.749172075,1222.253004
1.8450,193.0134136,7.086555808,1222.19907
1.8500,192.9032532,7.417594587,1222.144846
1.8550,192.7909875,7.741467254,1222.090336
1.8600,192.6747087,8.058757171,1222.035965
1.8650,192.5520297,8.369581574,1221.982062
1.8700,192.4220428,8.674778349,1221.929001
1.8750,192.2823351,8.974605371,1221.877084
1.8800,192.1333898,9.270038377,1221.826464
1.8850,191.9739779,9.562493748,1221.777662
1.8900,191.8037771,9.850943628,1221.730598
1.8950,191.6212671,10.13772067,1221.685939
1.9000,191.4245694,10.42095318,1221.643649
1.9050,191.2125788,10.70338369,1221.604511
1.9100,190.986589,10.9849541,1221.56839
1.9150,190.7454018,11.26558909,1221.535416
1.9200,190.490006,11.54718062,1221.505925
1.9250,190.2220606,11.82845577,1221.479295
1.9300,189.9405204,12.10948021,1221.455877
1.9350,189.6463711,12.39109332,1221.435723
1.9400,189.3397636,12.67403873,1221.419006
1.9450,189.021099,12.95806691,1221.405628
1.9500,188.6920331,13.24377818,1221.395559
1.9550,188.3547774,13.53239647,1221.388887
1.9600,188.0081313,13.82430389,1221.38588
1.9650,187.6532734,14.12022672,1221.386691
1.9700,187.2899294,14.42073452,1221.391519
1.9750,186.9171229,14.72784664,1221.401052
1.9800,186.5355069,15.03947831,1221.414803
1.9850,186.1435706,15.35542927,1221.433013
1.9900,185.7412156,15.67753682,1221.456255
1.9950,185.3280785,16.00510437,1221.484498
2.0000,184.9053544,16.33992926,1221.518067
2.0050,184.4722737,16.68245669,1221.557128
2.0100,184.0299182,17.03234524,1221.601515
2.0150,183.579129,17.38902213,1221.651033
2.0200,183.1198168,17.75392371,1221.706099
2.0250,182.6527473,18.12686855,1221.766491
2.0300,182.1791578,18.50762799,1221.832106
2.0350,181.6997505,18.89736656,1221.903046
2.0400,181.2144057,19.29404257,1221.978861
2.0450,180.7234127,19.69660854,1222.059287
2.0500,180.2253449,20.10509314,1222.144603
2.0550,179.7205705,20.51774243,1222.234348
2.0600,179.2102161,20.93431534,1222.32827
2.0650,178.6935107,21.3542649,1222.426448
2.0700,178.1720751,21.77632685,1222.528253
2.0750,177.6459542,22.20060118,1222.633746
2.0800,177.1144606,22.62757927,1222.743111
2.0850,176.5772904,23.05599651,1222.856227
2.0900,176.0352795,23.48666639,1222.973211
2.0950,175.4888653,23.9201185,1223.094106
2.1000,174.9381757,24.35482105,1223.218559
2.1050,174.3838374,24.79098557,1223.346575
2.1100,173.8243054,25.22708555,1223.478136
2.1150,173.2596645,25.66346048,1223.613295
2.1200,172.6900237,26.09917462,1223.751877
2.1250,172.1141453,26.53265004,1223.893666
2.1300,171.531781,26.96455803,1224.038834
2.1350,170.9409386,27.39297753,1224.187262
2.1400,170.3417227,27.8195455,1224.339403
2.1450,169.7329826,28.24470713,1224.495625
2.1500,169.1155017,28.66834762,1224.655726
2.1550,168.4892625,29.09169939,1224.820063
2.1600,167.8536398,29.51645861,1224.98921
2.1650,167.2098483,29.94420789,1225.163292
2.1700,166.5587907,30.37542523,1225.342242
2.1750,165.9003153,30.81136016,1225.526499
2.1800,165.2341377,31.2524477,1225.716224
2.1850,164.5603975,31.69901746,1225.91157
2.1900,163.8776978,32.15315968,1226.113459
2.1950,163.1872043,32.61525718,1226.321812
2.2000,162.4902657,33.08729158,1226.537085
2.2050,161.7871584,33.56828818,1226.758905
2.2100,161.0772609,34.0580906,1226.987552
2.2150,160.3613912,34.55756528,1227.223333
2.2200,159.6397323,35.0645608,1227.465683
2.2250,158.9117251,35.57882734,1227.714823
2.2300,158.1791321,36.10061053,1227.970474
2.2350,157.4417402,36.62818505,1228.232304
2.2400,156.7009101,37.15875468,1228.499244
2.2450,155.9552884,37.69196188,1228.771591
2.2500,155.2050401,38.22727428,1229.049128
2.2550,154.4489649,38.76274515,1229.331456
2.2600,153.6865843,39.296612,1229.618168
2.2650,152.9176293,39.82893095,1229.909269
2.2700,152.1417799,40.35928499,1230.204745
2.2750,151.3606837,40.88781762,1230.504156
2.2800,150.5745061,41.41673375,1230.808242
2.2850,149.7847956,41.94837817,1231.117431
2.2900,148.9930755,42.4831076,1231.431389
2.2950,148.1999581,43.02234152,1231.750429
2.3000,147.404108,43.56441604,1232.074465
2.3050,146.6067073,44.11011333,1232.40359
2.3100,145.8062219,44.66073204,1232.738696
2.3150,145.0029354,45.21557769,1233.07961
2.3200,144.1969157,45.77388427,1233.426092
2.3250,143.3892599,46.33391173,1233.777394
2.3300,142.5798977,46.89518363,1234.133399
2.3350,141.7676066,47.45448967,1234.493412
2.3400,140.9511671,48.0109684,1234.857555
2.3450,140.1281914,48.56311048,1235.225988
2.3500,139.2983463,49.10908899,1235.598297
2.3550,138.4605238,49.64848205,1235.974679
2.3600,137.6140156,50.18060071,1236.355211
2.3650,136.7589824,50.70380193,1236.739283
2.3700,135.8957261,51.21834357,1237.127027
2.3750,135.0226043,51.72384689,1237.518697
2.3800,134.1416147,52.21982441,1237.913588
2.3850,133.2528861,52.70703454,1238.31189
2.3900,132.3570111,53.18490761,1238.713073
2.3950,131.4534642,53.65248521,1239.11702
2.4000,130.5421599,54.1112549,1239.524301
2.4050,129.6228642,54.56402079,1239.936034
2.4100,128.6981603,55.01163624,1240.351836
2.4150,127.768485,55.45642957,1240.772513
2.4200,126.8360059,55.89902988,1241.197664
2.4250,125.9012238,56.34044226,1241.627515
2.4300,124.9658814,56.780487,1242.061633
2.4350,124.0324594,57.21909107,1242.499221
2.4400,123.1018757,57.65555942,1242.939731
2.4450,122.1745933,58.08894935,1243.382662
2.4500,121.2514465,58.51966899,1243.827844
2.4550,120.3341524,58.9471188,1244.274485
2.4600,119.4234127,59.37076094,1244.722051
2.4650,118.5202612,59.78812203,1245.169259
2.4700,117.623907,60.19904009,1245.61614
2.4750,116.7354577,60.6037248,1246.062264
2.4800,115.8556687,61.00046871,1246.506616
2.4850,114.9839729,61.39015385,1246.949581
2.4900,114.121701,61.77142805,1247.389989
2.4950,113.267639,62.1443866,1247.828102
2.5000,112.4219492,62.50856904,1248.263501
2.5050,111.5836178,62.86397525,1248.696451
2.5100,110.7528265,63.2115445,1249.127097
2.5150,109.9295142,63.55152592,1249.555321
2.5200,109.1137952,63.88589368,1249.981789
2.5250,108.3067827,64.21691178,1250.406901
2.5300,107.5080916,64.54415679,1250.830571
2.5350,106.7186154,64.86929261,1251.252996
2.5400,105.9391529,65.19454245,1251.674677
2.5450,105.1697637,65.51970733,1252.095467
2.5500,104.4097876,65.84368325,1252.515052
2.5550,103.657901,66.16600731,1252.933748
2.5600,102.9142906,66.48765218,1253.35186
2.5650,102.1783169,66.80880584,1253.769668
2.5700,101.45062,67.12837248,1254.186433
2.5750,100.7283775,67.44492039,1254.602704
2.5800,100.0110693,67.75687617,1255.017927
2.5850,99.29876481,68.0637839,1255.431772
2.5900,98.59018894,68.36501392,1255.844488
2.5950,97.88551319,68.66140465,1256.25629
2.6000,97.18511037,68.95358662,1256.667231
2.6050,96.48968973,69.24158184,1257.076923
2.6100,95.79988696,69.52427481,1257.484593
2.6150,95.11461531,69.80321799,1257.891258
2.6200,94.43311343,70.07788111,1258.296946
2.6250,93.75397255,70.34852714,1258.702369
2.6300,93.07478155,70.61519229,1259.108537
2.6350,92.3959224,70.87943185,1259.515959
2.6400,91.71862934,71.14147187,1259.924218
2.6450,91.044141,71.40231809,1260.333243
2.6500,90.3734764,71.66239136,1260.742773
2.6550,89.7079834,71.92332998,1261.152925
2.6600,89.04840376,72.18468986,1261.563138
2.6650,88.39540372,72.44710195,1261.973437
2.6700,87.74825521,72.70896013,1262.383347
2.6750,87.10791838,72.97012289,1262.792456
2.6800,86.47253287,73.2276584,1263.200248
2.6850,85.84092566,73.48139676,1263.607102
2.6900,85.21372651,73.73091074,1264.012635
2.6950,84.58932724,73.9757194,1264.417284
2.7000,83.96859009,74.21530493,1264.820361
2.7050,83.35129758,74.44815123,1265.221209
2.7100,82.73667884,74.67462865,1265.62021
2.7150,82.1242673,74.89328958,1266.016907
2.7200,81.51176815,75.10411831,1266.412293
2.7250,80.9006137,75.30817609,1266.806146
2.7300,80.29057272,75.50551747,1267.198534
2.7350,79.68115891,75.69651639,1267.589807
2.7400,79.07154707,75.88164222,1267.98048
2.7450,78.4624773,76.06047782,1268.370022
2.7500,77.85342648,76.23399636,1268.759096
2.7550,77.24387738,76.4029176,1269.148321
2.7600,76.63455501,76.56571682,1269.536637
2.7650,76.0236064,76.72337937,1269.925286
2.7700,75.41155684,76.87566373,1270.314023
2.7750,74.79784669,77.0225558,1270.703074
2.7800,74.18175876,77.16543266,1271.093475
2.7850,73.56372232,77.30306968,1271.484429
2.7900,72.94358775,77.43746845,1271.87692
2.7950,72.3218667,77.56928527,1272.271087
2.8000,71.69814632,77.69917138,1272.667347
2.8050,71.07415949,77.82858118,1273.065556
2.8100,70.45071362,77.95784825,1273.465458
2.8150,69.82646396,78.08652231,1273.867548
2.8200,69.2034689,78.21532829,1274.271061
2.8250,68.58140625,78.34400802,1274.676051
2.8300,67.96022119,78.47426259,1275.083419
2.8350,67.34076961,78.60478437,1275.492096
2.8400,66.72159751,78.73460055,1275.902452
2.8450,66.10338491,78.86380079,1276.314092
2.8500,65.48522277,78.99297145,1276.727857
2.8550,64.86815849,79.12224796,1277.143185
2.8600,64.25358837,79.25260511,1277.559735
2.8650,63.64102494,79.38287767,1277.977167
2.8700,63.03070117,79.51378657,1278.3957
2.8750,62.42377585,79.6452261,1278.814654
2.8800,61.82095412,79.77804469,1279.234026
2.8850,61.22200083,79.91157396,1279.653618
2.8900,60.62669798,80.04581385,1280.073514
2.8950,60.03431566,80.17939293,1280.493479
2.9000,59.44578328,80.31288295,1280.91316
2.9050,58.8599816,80.44479291,1281.332475
2.9100,58.27718463,80.57526468,1281.75123
2.9150,57.69762298,80.70355224,1282.16897
2.9200,57.12127608,80.83102216,1282.586363
2.9250,56.54726892,80.95806832,1283.004014
2.9300,55.97741428,81.08592343,1283.421447
2.9350,55.41211976,81.21441924,1283.838293
2.9400,54.85224846,81.34559793,1284.255013
2.9450,54.29846529,81.47940125,1284.671085
2.9500,53.75200362,81.61683035,1285.086243
2.9550,53.21261353,81.75805019,1285.500684
2.9600,52.67988772,81.90272953,1285.914453
2.9650,52.15424891,82.0503144,1286.326946
2.9700,51.6357703,82.20187368,1286.738576
2.9750,51.12432017,82.35615018,1287.148777
2.9800,50.62025948,82.51362966,1287.557546
2.9850,50.12488293,82.67423338,1287.964066
2.9900,49.63674847,82.83672553,1288.368449
2.9950,49.15711518,83.00154685,1288.770172
3.0000,48.68533168,83.16777005,1289.16901
3.0050,48.22018838,83.33482383,1289.565283
3.0100,47.7623455,83.50217992,1289.95835
3.0150,47.31173752,83.66924424,1290.347848
3.0200,46.86883261,83.83737521,1290.734112
3.0250,46.43392851,84.00589984,1291.116581
3.0300,46.00634876,84.17398982,1291.49518
3.0350,45.5853285,84.3419432,1291.870555
3.0400,45.17209633,84.5095338,1292.241821
3.0450,44.76632208,84.67707586,1292.609267
3.0500,44.36782022,84.84400259,1292.972732
3.0550,43.97563687,85.00849409,1293.331772
3.0600,43.58911897,85.17172963,1293.687372
3.0650,43.20957176,85.33347,1294.038568
3.0700,42.83592147,85.49416896,1294.386167
3.0750,42.46828138,85.65334968,1294.729869
3.0800,42.1074311,85.81193316,1295.069556
3.0850,41.7538173,85.97029507,1295.405151
3.0900,41.40731078,86.12718305,1295.736019
3.0950,41.06943498,86.28411063,1296.061896
3.1000,40.74008622,86.43991826,1296.382285
3.1050,40.41968647,86.59480983,1296.69698
3.1100,40.1066992,86.74734701,1297.006147
3.1150,39.80265442,86.89745741,1297.308796
3.1200,39.50560563,87.04477011,1297.605945
3.1250,39.21571784,87.18810403,1297.896777
3.1300,38.93269053,87.32753292,1298.181397
3.1350,38.65478058,87.46222895,1298.460549
3.1400,38.38318716,87.59349647,1298.734034
3.1450,38.11758318,87.72199453,1299.002416
3.1500,37.8585443,87.84747056,1299.265141
3.1550,37.60691133,87.97040923,1299.521858
3.1600,37.36135235,88.09048189,1299.773305
3.1650,37.12322269,88.20755663,1300.018485
3.1700,36.89248848,88.32291322,1300.258115
3.1750,36.6695124,88.43610301,1300.491716
3.1800,36.4535871,88.54651425,1300.719435
3.1850,36.24267917,88.65409181,1300.942565
3.1900,36.03777537,88.75882616,1301.160459
3.1950,35.83958924,88.86002692,1301.372301
3.2000,35.64795479,88.95745262,1301.57806
3.2050,35.46257098,89.05120301,1301.777982
3.2100,35.28355896,89.14063888,1301.971661
3.2150,35.10958601,89.22435735,1302.159097
3.2200,34.94005427,89.30117261,1302.340103
3.2250,34.77585394,89.37113735,1302.514084
3.2300,34.61587726,89.43435904,1302.681856
3.2350,34.46010214,89.49104336,1302.843586
3.2400,34.30737344,89.53952402,1302.999086
3.2450,34.15661356,89.58020627,1303.149336
3.2500,34.00714564,89.61239375,1303.294378
3.2550,33.85853128,89.63593293,1303.434454
3.2600,33.71121402,89.65204973,1303.569846
3.2650,33.56476149,89.66205468,1303.701605
3.2700,33.41924626,89.66515551,1303.829354
3.2750,33.27509892,89.66308332,1303.953642
3.2800,33.13207374,89.65670808,1304.075165
3.2850,32.9899471,89.6456036,1304.193746
3.2900,32.84953811,89.63176126,1304.309952
3.2950,32.71000637,89.61523194,1304.424304
3.3000,32.57133455,89.59687335,1304.53734
3.3050,32.43436595,89.5768545,1304.648582
3.3100,32.29826529,89.55570447,1304.758864
3.3150,32.16308393,89.53448581,1304.868731
3.3200,32.02918547,89.51265382,1304.977569
3.3250,31.89545412,89.4898213,1305.08589
3.3300,31.7629663,89.46797412,1305.194137
3.3350,31.63099422,89.44648599,1305.302378
3.3400,31.49839545,89.42529301,1305.41131
3.3450,31.36402244,89.40334711,1305.521155
3.3500,31.22796132,89.38053855,1305.631804
3.3550,31.08941942,89.35823783,1305.744581
3.3600,30.9480129,89.33554708,1305.859373
3.3650,30.80228763,89.31301467,1305.97749
3.3700,30.65199861,89.28974641,1306.098663
3.3750,30.49682944,89.26636724,1306.223445
3.3800,30.33496557,89.24143955,1306.352315
3.3850,30.16740147,89.2156518,1306.484939
3.3900,29.99414941,89.18944543,1306.621593
3.3950,29.81337529,89.16174408,1306.762982
3.4000,29.62579038,89.13380495,1306.909291
3.4050,29.43133438,89.10444485,1307.059891
3.4100,29.22992455,89.07582501,1307.216113
3.4150,29.02259066,89.04833801,1307.377459
3.4200,28.80869173,89.02179002,1307.544259
3.4250,28.5876076,88.99579926,1307.716773
3.4300,28.35827077,88.96899391,1307.894955
3.4350,28.12179684,88.94446942,1308.079779
3.4400,27.87556872,88.92072205,1308.272224
3.4450,27.61964403,88.89880234,1308.47292
3.4500,27.35378793,88.8794361,1308.682438
3.4550,27.07643757,88.86318947,1308.902309
3.4600,26.78680383,88.85110258,1309.133734
3.4650,26.48386877,88.84272068,1309.377205
3.4700,26.16645909,88.83755696,1309.633463
3.4750,25.83281507,88.83591168,1309.903961
3.4800,25.48276202,88.83851834,1310.189441
3.4850,25.11667708,88.84440505,1310.489239
3.4900,24.73336254,88.85393046,1310.80459
3.4950,24.33212578,88.86723141,1311.136218
3.5000,23.91169474,88.88259729,1311.4843
3.5050,23.47320948,88.90095193,1311.848736
3.5100,23.0156275,88.92175082,1312.230092
3.5150,22.54145549,88.94538333,1312.626992
3.5200,22.0519906,88.9719888,1313.038708
3.5250,21.54730578,88.99952414,1313.464149
3.5300,21.02876004,89.02771637,1313.902249
3.5350,20.49731082,89.05606525,1314.352127
3.5400,19.95421857,89.08459801,1314.812924
3.5450,19.4023767,89.11391617,1315.282986
3.5500,18.84288817,89.14307228,1315.761021
3.5550,18.27771712,89.17186495,1316.245452
3.5600,17.70880707,89.19971224,1316.734597
3.5650,17.13792477,89.22507752,1317.226233
3.5700,16.56587804,89.24817363,1317.719815
3.5750,15.99365096,89.26746096,1318.213719
3.5800,15.42247754,89.28314847,1318.706988
3.5850,14.85241876,89.29521004,1319.199599
3.5900,14.28383829,89.30207624,1319.690278
3.5950,13.7181404,89.30474595,1320.178437
3.6000,13.15486899,89.30156555,1320.663462
3.6050,12.59487816,89.29266132,1321.144657
3.6100,12.03862628,89.2776783,1321.621391
3.6150,11.48574077,89.2557184,1322.09345
3.6200,10.93581191,89.22585621,1322.560591
3.6250,10.38995103,89.18817033,1323.021932
3.6300,9.846184711,89.13978088,1323.477221
3.6350,9.306687298,89.08193476,1323.925472
3.6400,8.77114334,89.01359167,1324.366277
3.6450,8.241145729,88.93562366,1324.798784
3.6500,7.715290276,88.84623386,1325.222999
3.6550,7.194631834,88.7452678,1325.637775
3.6600,6.679328998,88.63383746,1326.0435
3.6650,6.171032699,88.51120669,1326.438327
3.6700,5.670273802,88.37880068,1326.822461
3.6750,5.177554572,88.23514332,1327.194481
3.6800,4.694041495,88.08270755,1327.554788
3.6850,4.219169125,87.91996363,1327.902823
3.6900,3.754177865,87.74727917,1328.237708
3.6950,3.298498578,87.56400113,1328.559399
3.7000,2.852800275,87.37066967,1328.867584
3.7050,2.416826241,87.16820723,1329.162965
3.7100,1.991575128,86.95554871,1329.44385
3.7150,1.574362757,86.73222615,1329.712182
3.7200,1.166701961,86.50026753,1329.967844
3.7250,0.7681372043,86.26181008,1330.212344
3.7300,0.3801138202,86.01895463,1330.445636
3.7350,0.001968671478,85.77200755,1330.668232
3.7400,-0.3647018445,85.52429441,1330.880745
3.7450,-0.720466957,85.2773161,1331.084358
3.7500,-1.064984288,85.03270938,1331.279602
3.7550,-1.397221521,84.79200103,1331.46644
3.7600,-1.717674552,84.5546087,1331.644672
3.7650,-2.025530497,84.32430202,1331.815763
3.7700,-2.320608151,84.10162048,1331.979709
3.7750,-2.602082759,83.88808305,1332.136618
3.7800,-2.87054867,83.68395393,1332.286946
3.7850,-3.124856391,83.49118746,1332.430659
3.7900,-3.364813684,83.31061183,1332.567891
3.7950,-3.590341355,83.14299772,1332.698827
3.8000,-3.800608668,82.99003837,1332.823642
3.8050,-3.995057066,82.85192941,1332.94171
3.8100,-4.173272672,82.7288598,1333.052729
3.8150,-4.334337585,82.62230246,1333.156629
3.8200,-4.479567939,82.53194292,1333.254174
3.8250,-4.608319628,82.45820222,1333.344995
3.8300,-4.720459198,82.39917094,1333.427787
3.8350,-4.816158005,82.35443089,1333.502341
3.8400,-4.894911613,82.32239649,1333.567291
3.8450,-4.957274231,82.30160165,1333.62216
3.8500,-5.003746217,82.29145235,1333.667101
3.8550,-5.035080784,82.29091625,1333.702124
3.8600,-5.051798199,82.29856533,1333.726826
3.8650,-5.054775438,82.31448646,1333.742093
3.8700,-5.043711392,82.33824692,1333.747398
3.8750,-5.018804322,82.3699545,1333.74305
3.8800,-4.979738677,82.40957611,1333.72882
3.8850,-4.926354138,82.45719936,1333.704662
3.8900,-4.858879555,82.51249683,1333.670653
3.8950,-4.778233761,82.57499257,1333.627408
3.9000,-4.68314029,82.64490928,1333.573938
3.9050,-4.574803423,82.72125194,1333.510939
3.9100,-4.454299697,82.80349655,1333.439127
3.9150,-4.32272298,82.88967188,1333.358425
3.9200,-4.179858689,82.97994137,1333.268782
3.9250,-4.027052295,83.07327902,1333.170954
3.9300,-3.863565996,83.16990445,1333.064575
3.9350,-3.691528988,83.26879191,1332.951006
3.9400,-3.512306899,83.36853734,1332.830773
3.9450,-3.326975375,83.46910245,1332.704864
3.9500,-3.134782165,83.57113201,1332.573067
3.9550,-2.936742129,83.67311415,1332.435599
3.9600,-2.734801672,83.77325882,1332.293165
3.9650,-2.529750972,83.87213725,1332.146895
3.9700,-2.32159327,83.96835338,1331.996064
3.9750,-2.111669052,84.06228676,1331.842198
3.9800,-1.900625546,84.15084645,1331.684142
3.9850,-1.689952656,84.23401757,1331.523271
3.9900,-1.480086726,84.31178667,1331.360035
3.9950,-1.27096662,84.38356086,1331.194124
4.0000,-1.06419437,84.44824926,1331.026402
4.0050,-0.8600431761,84.50556934,1330.85697
4.0100,-0.6584870007,84.55690153,1330.686707
4.0150,-0.4594909038,84.60320927,1330.516169
4.0200,-0.2631635928,84.64371329,1330.34495
4.0250,-0.06955635545,84.67784357,1330.172811
4.0300,0.120567928,84.70648856,1330.000951
4.0350,0.3073326814,84.73001344,1329.829513
4.0400,0.4900236683,84.74700394,1329.658272
4.0450,0.6696454696,84.75817648,1329.486788
4.0500,0.8455166182,84.76268101,1329.315131
4.0550,1.017266904,84.76097802,1329.143877
4.0600,1.185811993,84.75480311,1328.973368
4.0650,1.35010388,84.74230558,1328.803393
4.0700,1.510567408,84.72417802,1328.633955
4.0750,1.666978553,84.69990747,1328.464882
4.0800,1.819782238,84.66973576,1328.296016
4.0850,1.968373837,84.63476166,1328.128517
4.0900,2.112947594,84.59464856,1327.961933
4.0950,2.253912785,84.54987962,1327.796245
4.1000,2.39127612,84.50069795,1327.631546
4.1050,2.524483825,84.44647466,1327.467969
4.1100,2.654244318,84.38922295,1327.306026
4.1150,2.779717436,84.32796831,1327.145756
4.1200,2.901532862,84.26244041,1326.986548
4.1250,3.019560354,84.19304011,1326.828762
4.1300,3.133402794,84.12009091,1326.672882
4.1350,3.243986098,84.044786,1326.518863
4.1400,3.351112345,83.96740274,1326.367002
4.1450,3.454293536,83.88882077,1326.218219
4.1500,3.554579012,83.80963489,1326.071941
4.1550,3.651506115,83.73045405,1325.928844
4.1600,3.744799246,83.65296384,1325.790139
4.1650,3.834971011,83.57640271,1325.654964
4.1700,3.922434677,83.50229315,1325.523811
4.1750,4.006469309,83.42995378,1325.396821
4.1800,4.087316734,83.35955607,1325.273841
4.1850,4.164810373,83.29086771,1325.154821
4.1900,4.23979196,83.22560887,1325.040084
4.1950,4.311492268,83.16184603,1324.929188
4.2000,4.380361402,83.10052378,1324.822267
4.2050,4.446456985,83.04165883,1324.719234
4.2100,4.509891287,82.98425033,1324.619404
4.2150,4.571715757,82.9289397,1324.522224
4.2200,4.631856508,82.87526778,1324.427523
4.2250,4.690759674,82.82397816,1324.335323
4.2300,4.748264311,82.77465888,1324.245422
4.2350,4.804058261,82.72634322,1324.157549
4.2400,4.859308252,82.68014197,1324.071284
4.2450,4.914256742,82.63545245,1323.986044
4.2500,4.968605469,82.59178454,1323.901757
4.2550,5.022638015,82.54915397,1323.818148
4.2600,5.079065877,82.50834665,1323.733425
4.2650,5.136291274,82.46749674,1323.647761
4.2700,5.194291519,82.42677479,1323.561265
4.2750,5.25436716,82.38661238,1323.473038
4.2800,5.316432769,82.34700044,1323.383098
4.2850,5.381730072,82.30832274,1323.290535
4.2900,5.450782592,82.27092076,1323.195098
4.2950,5.524959483,82.23465157,1323.095599
4.3000,5.604871566,82.19940754,1322.991291
4.3050,5.691820171,82.16557717,1322.881271
4.3100,5.786217451,82.13324288,1322.765321
4.3150,5.889130084,82.10079982,1322.641621
4.3200,6.000895106,82.06909949,1322.510389
4.3250,6.122338311,82.03829597,1322.37101
4.3300,6.254504286,82.00755498,1322.222144
4.3350,6.398129955,81.97739311,1322.063412
4.3400,6.554139717,81.94683469,1321.893504
4.3450,6.723898177,81.91545126,1321.711082
4.3500,6.90786301,81.88355412,1321.516016
4.3550,7.106841501,81.85008169,1321.306945
4.3600,7.320822551,81.81422304,1321.083451
4.3650,7.550613559,81.77578013,1320.844878
4.3700,7.796182829,81.73477221,1320.591344
4.3750,8.0578477,81.69052665,1320.322306
4.3800,8.336190564,81.64322387,1320.037459
4.3850,8.630259917,81.59142609,1319.736915
4.3900,8.940846092,81.5347789,1319.419998
4.3950,9.267119343,81.47315191,1319.08744
4.4000,9.609965894,81.407291,1318.738986
4.4050,9.968534087,81.33715674,1318.375455
4.4100,10.34296665,81.26219068,1317.996516
4.4150,10.73438959,81.18253065,1317.601547
4.4200,11.14277284,81.09920454,1317.191216
4.4250,11.56819774,81.01135214,1316.765098
4.4300,12.01076021,80.91979047,1316.323748
4.4350,12.46994928,80.82288056,1315.866872
4.4400,12.94512545,80.72152962,1315.395638
4.4450,13.43668815,80.61489681,1314.909602
4.4500,13.94329819,80.50319588,1314.410015
4.4550,14.46421152,80.3855632,1313.897286
4.4600,14.99986399,80.26192692,1313.371251
4.4650,15.54952934,80.13292462,1312.832991
4.4700,16.11298137,79.99712448,1312.282122
4.4750,16.69032544,79.85561152,1311.719418
4.4800,17.28108342,79.70786798,1311.145207
4.4850,17.88476336,79.55377968,1310.560012
4.4900,18.49959104,79.39169415,1309.964498
4.4950,19.12624853,79.22235933,1309.358753
4.5000,19.76203789,79.04471128,1308.744372
4.5050,20.4067738,78.85899154,1308.121829
4.5100,21.05985972,78.66557064,1307.492033
4.5150,21.72019428,78.46473296,1306.856094
4.5200,22.3858274,78.25615594,1306.215411
4.5250,23.05501226,78.03966282,1305.571342
4.5300,23.72764557,77.81635254,1304.924592
4.5350,24.40316682,77.58745611,1304.276228
4.5400,25.08222122,77.3539422,1303.626285
4.5450,25.76323261,77.11735523,1302.976731
4.5500,26.44698997,76.87908115,1302.327646
4.5550,27.13312537,76.64088885,1301.680135
4.5600,27.82085983,76.40448829,1301.035491
4.5650,28.51262861,76.17184783,1300.392983
4.5700,29.20819074,75.9430303,1299.752737
4.5750,29.90656506,75.71905475,1299.115905
4.5800,30.60874992,75.50066354,1298.482121
4.5850,31.31470785,75.28793761,1297.851431
4.5900,32.02460481,75.08105057,1297.22379
4.5950,32.73790992,74.88036575,1296.599638
4.6000,33.4552775,74.68622814,1295.978847
4.6050,34.17520535,74.49739013,1295.36176
4.6100,34.89817945,74.31300136,1294.747608
4.6150,35.62461531,74.13403276,1294.136562
4.6200,36.35481072,73.96046721,1293.528419
4.6250,37.08892727,73.79071228,1292.92235
4.6300,37.82648729,73.62393653,1292.31827
4.6350,38.567812,73.45887816,1291.715398
4.6400,39.31261416,73.29549724,1291.113879
4.6450,40.060947,73.13210015,1290.512919
4.6500,40.81270295,72.96846716,1289.912479
4.6550,41.56712747,72.80338262,1289.312583
4.6600,42.32422571,72.63616117,1288.71293
4.6650,43.08428124,72.46673484,1288.113309
4.6700,43.84709247,72.29414768,1287.513466
4.6750,44.61341273,72.11931995,1286.91339
4.6800,45.3823978,71.94282306,1286.313767
4.6850,46.15753909,71.76534599,1285.712896
4.6900,46.9385847,71.58839895,1285.111628
4.6950,47.7259581,71.41320032,1284.510254
4.7000,48.51955094,71.23855278,1283.908333
4.7050,49.32145739,71.06549704,1283.305129
4.7100,50.13177717,70.89387547,1282.700641
4.7150,50.95005842,70.72307628,1282.094876
4.7200,51.77652962,70.55188175,1281.487301
4.7250,52.61147493,70.38095841,1280.878194
4.7300,53.45379481,70.20755355,1280.267035
4.7350,54.30358445,70.03246029,1279.654263
4.7400,55.15945594,69.8536957,1279.039952
4.7450,56.02131661,69.67068799,1278.423949
4.7500,56.88933378,69.48249369,1277.805942
4.7550,57.764113,69.28749822,1277.185017
4.7600,58.64371291,69.08458378,1276.561838
4.7650,59.52706354,68.87226964,1275.93635
4.7700,60.41320877,68.65106573,1275.309405
4.7750,61.3023521,68.42023708,1274.680561
4.7800,62.19297082,68.17884333,1274.050287
4.7850,63.08466362,67.92597257,1273.418451
4.7900,63.9780907,67.66248128,1272.785094
4.7950,64.87096427,67.38653775,1272.150748
4.8000,65.76339842,67.09854313,1271.515667
4.8050,66.65307175,66.79683892,1270.880361
4.8100,67.53938183,66.48264933,1270.245782
4.8150,68.42074061,66.15574886,1269.61258
4.8200,69.29710225,65.81668563,1268.981094
4.8250,70.16859342,65.46596604,1268.351398
4.8300,71.03348091,65.10506192,1267.724973
4.8350,71.89345698,64.73529303,1267.101512
4.8400,72.74567761,64.35717299,1266.482631
4.8450,73.59134138,63.97182701,1265.868126
4.8500,74.43040951,63.57938576,1265.258016
4.8550,75.26342037,63.18117006,1264.652511
4.8600,76.09115655,62.77780101,1264.051506
4.8650,76.91146416,62.36903141,1263.455872
4.8700,77.72532935,61.95757654,1262.866245
4.8750,78.53350329,61.54251465,1262.281877
4.8800,79.33624983,61.12594322,1261.70349
4.8850,80.13373981,60.70915075,1261.131565
4.8900,80.92610654,60.29326729,1260.566433
4.8950,81.7145843,59.8794861,1260.008016
4.9000,82.49971525,59.46900211,1259.456405
4.9050,83.28363925,59.06287246,1258.911102
4.9100,84.06546437,58.66124769,1258.372423
4.9150,84.84648455,58.26568146,1257.840362
4.9200,85.62752513,57.87426581,1257.313749
4.9250,86.40899863,57.48893884,1256.793127
4.9300,87.19152333,57.10901483,1256.277908
4.9350,87.97451773,56.73518134,1255.768611
4.9400,88.75811896,56.36553055,1255.264433
4.9450,89.54118025,55.99988559,1254.76584
4.9500,90.32312225,55.63791475,1254.272947
4.9550,91.10454802,55.27879543,1253.785184
4.9600,91.88593933,54.92136422,1253.301992
4.9650,92.66561911,54.56494935,1252.823791
4.9700,93.44489293,54.20917893,1252.349837
4.9750,94.22402303,53.85464406,1251.880253
4.9800,95.00398404,53.49996133,1251.414154
4.9850,95.78444659,53.14433783,1250.95131
4.9900,96.56549313,52.78714512,1250.491406
4.9950,97.34821446,52.42593512,1250.033097
5.0000,98.13318005,52.06172352,1249.576508
5.0050,98.91992954,51.69337073,1249.121419
5.0100,99.70787732,51.32032277,1248.667924
5.0150,100.4958231,50.9418263,1248.216339
5.0200,101.2851443,50.55880696,1247.766474
5.0250,102.0756206,50.16988217,1247.318031
5.0300,102.8683391,49.77754698,1246.871531
5.0350,103.6637386,49.38122128,1246.426621
5.0400,104.4630913,48.98120466,1245.982865
5.0450,105.2663532,48.57808596,1245.540505
5.0500,106.0724296,48.17104,1245.099586
5.0550,106.8819371,47.76085946,1244.660115
5.0600,107.6958335,47.34763026,1244.221705
5.0650,108.5150114,46.93170731,1243.784138
5.0700,109.3396998,46.51299802,1243.347352
5.0750,110.1689279,46.09019073,1242.911313
5.0800,111.0025766,45.66396337,1242.476354
5.0850,111.8384548,45.23391557,1242.043224
5.0900,112.6757717,44.79919729,1241.612058
5.0950,113.5143225,44.36045927,1241.183198
5.1000,114.3548424,43.918219,1240.756636
5.1050,115.197307,43.47344727,1240.332689
5.1100,116.0418728,43.02698041,1239.91152
5.1150,116.8879351,42.57874999,1239.49338
5.1200,117.7355866,42.12998175,1239.078551
5.1250,118.5851665,41.68111125,1238.667065
5.1300,119.4378635,41.2321638,1238.258494
5.1350,120.2927165,40.78302953,1237.85304
5.1400,121.1500375,40.33411981,1237.450708
5.1450,122.0103186,39.88534302,1237.051316
5.1500,122.8713976,39.4376809,1236.65601
5.1550,123.7320255,38.9899757,1236.264858
5.1600,124.5917726,38.54297825,1235.87828
5.1650,125.4497761,38.09763569,1235.496795
5.1700,126.3070013,37.65243856,1235.119792
5.1750,127.1631964,37.21053703,1234.748286
5.1800,128.0180825,36.77122289,1234.382194
5.1850,128.8727369,36.33483728,1234.021239
5.1900,129.727309,35.90061956,1233.665068
5.1950,130.583154,35.46949848,1233.313522
5.2000,131.4399323,35.04040768,1232.966344
5.2050,132.2986582,34.61457472,1232.623554
5.2100,133.1617843,34.19261025,1232.284635
5.2150,134.0289487,33.77407956,1231.949624
5.2200,134.8991078,33.35810443,1231.618644
5.2250,135.7716948,32.94289642,1231.291401
5.2300,136.645804,32.52864667,1230.968331
5.2350,137.522362,32.1149601,1230.64925
5.2400,138.4009565,31.70253095,1230.334643
5.2450,139.2815535,31.29132962,1230.02458
5.2500,140.1631416,30.88080174,1229.719327
5.2550,141.0456791,30.47092021,1229.41899
5.2600,141.9285929,30.06113262,1229.123614
5.2650,142.8133409,29.65097154,1228.832675
5.2700,143.6986509,29.24014563,1228.546522
5.2750,144.5836194,28.82650555,1228.264813
5.2800,145.4675108,28.40859893,1227.987315
5.2850,146.3486565,27.98418884,1227.713717
5.2900,147.2262715,27.55234278,1227.444058
5.2950,148.0991934,27.11312035,1227.178579
5.3000,148.9661313,26.66529136,1226.917242
5.3050,149.8253885,26.20850953,1226.660293
5.3100,150.6766752,25.74257421,1226.40772
5.3150,151.5204761,25.26853154,1226.159491
5.3200,152.356034,24.78566173,1225.915533
5.3250,153.1833977,24.29488362,1225.676022
5.3300,154.0022991,23.7965191,1225.440998
5.3350,154.8122465,23.29000956,1225.210383
5.3400,155.6134183,22.77570173,1224.984183
5.3450,156.4050666,22.25251682,1224.762204
5.3500,157.1877417,21.72140352,1224.544489
5.3550,157.9588176,21.18101118,1224.331286
5.3600,158.717715,20.63169778,1224.122796
5.3650,159.4628488,20.07433516,1223.91954
5.3700,160.1930607,19.50768816,1223.721429
5.3750,160.9073378,18.9331192,1223.528931
5.3800,161.6049562,18.34953125,1223.341792
5.3850,162.2862823,17.75787058,1223.159977
5.3900,162.9501576,17.15777353,1222.983481
5.3950,163.5967741,16.54943291,1222.812076
5.4000,164.2240309,15.93278225,1222.645929
5.4050,164.8324477,15.30641153,1222.484404
5.4100,165.4197252,14.66914955,1222.327482
5.4150,165.986762,14.0211847,1222.174755
5.4200,166.5335832,13.36217751,1222.025977
5.4250,167.0604311,12.69212561,1221.880862
5.4300,167.5671621,12.01222292,1221.739587
5.4350,168.0547406,11.32287601,1221.602095
5.4400,168.5244248,10.62490205,1221.46824
5.4450,168.9766775,9.919827817,1221.338291
5.4500,169.4138766,9.208503513,1221.211752
5.4550,169.8380607,8.494282987,1221.088925
5.4600,170.2493027,7.778445809,1220.970047
5.4650,170.6500354,7.063435082,1220.855357
5.4700,171.0416596,6.35307594,1220.745288
5.4750,171.4264769,5.64664164,1220.639384
5.4800,171.8058669,4.946791268,1220.537906
5.4850,172.1803782,4.254477316,1220.441034
5.4900,172.550749,3.571081916,1220.348945
5.4950,172.9163046,2.896641824,1220.261949
5.5000,173.2771067,2.232330477,1220.180335
5.5050,173.6321666,1.578486027,1220.104457
5.5100,173.9802781,0.9345057662,1220.034513
5.5150,174.3217976,0.300244696,1219.970359
5.5200,174.654532,-0.3227084701,1219.912721
5.5250,174.978685,-0.9336316862,1219.861603
5.5300,175.294436,-1.531411514,1219.817089
5.5350,175.6010185,-2.11763588,1219.778984
5.5400,175.8981946,-2.690851744,1219.747448
5.5450,176.1851951,-3.250653774,1219.722556
5.5500,176.46558,-3.79743495,1219.703487
5.5550,176.7378289,-4.330436905,1219.690505
5.5600,177.0016112,-4.849314373,1219.683534
5.5650,177.2564938,-5.354843739,1219.682457
5.5700,177.5027588,-5.84703085,1219.687012
5.5750,177.739952,-6.326084438,1219.69718
5.5800,177.9686093,-6.7913611,1219.712912
5.5850,178.1886141,-7.24134477,1219.734517
5.5900,178.3999402,-7.676475744,1219.761799
5.5950,178.6033837,-8.096097321,1219.794742
5.6000,178.8002099,-8.500131711,1219.833133
5.6050,178.9906643,-8.888114735,1219.876936
5.6100,179.1760858,-9.260138995,1219.925863
5.6150,179.3573876,-9.615887808,1219.979653
5.6200,179.5353129,-9.956156886,1220.037983
5.6250,179.7086165,-10.28100956,1220.100889
5.6300,179.8779241,-10.59234699,1220.167915
5.6350,180.0424218,-10.89075717,1220.239065
5.6400,180.2016969,-11.17722214,1220.314076
5.6450,180.3556462,-11.45260127,1220.392601
5.6500,180.5051999,-11.71810368,1220.474205
5.6550,180.6500505,-11.9728457,1220.558798
5.6600,180.7898025,-12.21901434,1220.646097
5.6650,180.9239199,-12.45668534,1220.736149
5.6700,181.0534674,-12.68577222,1220.828574
5.6750,181.1781366,-12.90618959,1220.923356
5.6800,181.2983329,-13.11744339,1221.02044
5.6850,181.4141237,-13.32075174,1221.119637
5.6900,181.5259462,-13.51476691,1221.221064
5.6950,181.6347173,-13.70141204,1221.324146
5.7000,181.7404234,-13.88229446,1221.428808
5.7050,181.8427307,-14.05671953,1221.535168
5.7100,181.9426356,-14.22593407,1221.642855
5.7150,182.0402262,-14.39079121,1221.751716
5.7200,182.1350267,-14.55313507,1221.861449
5.7250,182.227056,-14.71282947,1221.972084
5.7300,182.3157738,-14.87209905,1222.083335
5.7350,182.4013195,-15.0309846,1222.194985
5.7400,182.4856967,-15.18978063,1222.306429
5.7450,182.5686034,-15.34886141,1222.417537
5.7500,182.6508496,-15.5079371,1222.528225
5.7550,182.7328711,-15.66814639,1222.638201
5.7600,182.8175545,-15.82984059,1222.746747
5.7650,182.906634,-15.99451666,1222.853144
5.7700,182.9997622,-16.16284828,1222.95729
5.7750,183.0986563,-16.33432253,1223.058817
5.7800,183.2040331,-16.50898809,1223.157424
5.7850,183.3175886,-16.68672108,1223.252587
5.7900,183.4384147,-16.86708479,1223.344601
5.7950,183.5681611,-17.04917052,1223.432988
5.8000,183.7072051,-17.2326831,1223.517644
5.8050,183.8563936,-17.41709251,1223.598429
5.8100,184.0152775,-17.60144669,1223.675457
5.8150,184.1845392,-17.78562089,1223.748802
5.8200,184.365681,-17.9688334,1223.818129
5.8250,184.5581641,-18.15053683,1223.88369
5.8300,184.7618064,-18.33069115,1223.945539
5.8350,184.9761328,-18.50937811,1224.003729
5.8400,185.2006866,-18.68718183,1224.058327
5.8450,185.4346624,-18.86431436,1224.109302
5.8500,185.6751115,-19.04170752,1224.157117
5.8550,185.9223247,-19.2190531,1224.201704
5.8600,186.1757535,-19.39622921,1224.243302
5.8650,186.4345501,-19.57260465,1224.282173
5.8700,186.6973569,-19.74810954,1224.318666
5.8750,186.9639511,-19.9211574,1224.352977
5.8800,187.2326627,-20.09127283,1224.385427
5.8850,187.5034327,-20.25727579,1224.416236
5.8900,187.7752572,-20.4190372,1224.4457
5.8950,188.04731,-20.57646071,1224.474099
5.9000,188.3187087,-20.7284282,1224.501799
5.9050,188.589491,-20.87571383,1224.528841
5.9100,188.8587804,-21.01868292,1224.555346
5.9150,189.1247432,-21.15781825,1224.581738
5.9200,189.386499,-21.29258338,1224.608254
5.9250,189.6437866,-21.42404917,1224.6349
5.9300,189.8953586,-21.55238684,1224.661816
5.9350,190.1410929,-21.67684574,1224.689149
5.9400,190.3798926,-21.79730094,1224.717297
5.9450,190.6100796,-21.91312168,1224.746699
5.9500,190.8303523,-22.02421014,1224.777692
5.9550,191.0413282,-22.13076476,1224.810231
5.9600,191.2430742,-22.231893,1224.84436
5.9650,191.4349602,-22.32768048,1224.880249
5.9700,191.6147367,-22.41911923,1224.918217
5.9750,191.7823997,-22.50503439,1224.958572
5.9800,191.9369917,-22.58663575,1225.001431
5.9850,192.078978,-22.66195806,1225.047001
5.9900,192.2082065,-22.73211095,1225.095075
5.9950,192.3233776,-22.79570492,1225.146095
6.0000,192.4248403,-22.85281896,1225.199797
6.0050,192.5132771,-22.90300061,1225.256142
6.0100,192.5898115,-22.94698961,1225.314808
6.0150,192.6546041,-22.9830437,1225.375965
6.0200,192.7076458,-23.01111181,1225.439606
6.0250,192.7497799,-23.03214274,1225.505437
6.0300,192.781666,-23.04527197,1225.573441
6.0350,192.8036644,-23.05108924,1225.64341
6.0400,192.8167607,-23.04915431,1225.7153
6.0450,192.8224313,-23.04049802,1225.78884
6.0500,192.8200437,-23.02514449,1225.864056
6.0550,192.8120079,-23.00251398,1225.940722
6.0600,192.7971536,-22.97311057,1226.018998
6.0650,192.7774568,-22.93637411,1226.098578
6.0700,192.7522358,-22.89279904,1226.179676
6.0750,192.7217033,-22.84234116,1226.26204
6.0800,192.6851383,-22.78708762,1226.345801
6.0850,192.6422039,-22.72668033,1226.431085
6.0900,192.5945379,-22.66270355,1226.517478
6.0950,192.5412183,-22.59491989,1226.605185
6.1000,192.4837401,-22.52305141,1226.694075
6.1050,192.4222515,-22.44740648,1226.783992
6.1100,192.3578588,-22.36780479,1226.87485
6.1150,192.2903363,-22.28364846,1226.966691
6.1200,192.2198786,-22.19480613,1227.059622
6.1250,192.1472568,-22.10153843,1227.153503
6.1300,192.0744888,-22.00514314,1227.247895
6.1350,192.00178,-21.90386432,1227.342899
6.1400,191.9284905,-21.79865257,1227.438529
6.1450,191.8559712,-21.69121463,1227.534469
6.1500,191.7853433,-21.58083946,1227.630637
6.1550,191.7166146,-21.46882557,1227.726889
6.1600,191.6502762,-21.35642654,1227.822785
6.1650,191.5876715,-21.24332686,1227.917965
6.1700,191.5295074,-21.1313874,1228.012136
6.1750,191.4754276,-21.0212842,1228.105054
6.1800,191.4260748,-20.91319779,1228.196652
6.1850,191.382055,-20.80773018,1228.286568
6.1900,191.3438281,-20.70442938,1228.374715
6.1950,191.3121389,-20.60272208,1228.461081
6.2000,191.2862152,-20.50303911,1228.545695
6.2050,191.2662187,-20.40418354,1228.628611
6.2100,191.2517348,-20.30540264,1228.710003
6.2150,191.2428583,-20.20689976,1228.789835
6.2200,191.2393037,-20.10885537,1228.86815
6.2250,191.2413356,-20.01088435,1228.94494
6.2300,191.2488215,-19.91263816,1229.02031
6.2350,191.2611223,-19.8157293,1229.094158
6.2400,191.2786578,-19.71926732,1229.166454
6.2450,191.3005027,-19.62402351,1229.237255
6.2500,191.3266499,-19.52980166,1229.306466
6.2550,191.3566205,-19.4360576,1229.374261
6.2600,191.3889392,-19.3423516,1229.440945
6.2650,191.4248978,-19.2496663,1229.506087
6.2700,191.4650875,-19.15621411,1229.569839
6.2750,191.5098322,-19.06362949,1229.631821
6.2800,191.5597065,-18.9711648,1229.692036
6.2850,191.6143832,-18.879604,1229.750327
6.2900,191.6743036,-18.7891239,1229.806703
6.2950,191.7401685,-18.69994633,1229.860998
6.3000,191.8132066,-18.6116701,1229.913018
6.3050,191.8922543,-18.52500502,1229.962908
6.3100,191.975968,-18.43951712,1230.01093
6.3150,192.0652438,-18.35624057,1230.056691
6.3200,192.1608686,-18.27516987,1230.100079
6.3250,192.2607037,-18.19636231,1230.141503
6.3300,192.3653918,-18.11923977,1230.180851
6.3350,192.4737853,-18.04435756,1230.218345
6.3400,192.5848555,-17.97067416,1230.254297
6.3450,192.6981819,-17.89918275,1230.288667
6.3500,192.8141814,-17.82888087,1230.32163
6.3550,192.9320228,-17.75918646,1230.353297
6.3600,193.051266,-17.69118479,1230.383793
6.3650,193.170758,-17.62322433,1230.413473
6.3700,193.2905551,-17.55613952,1230.44223
6.3750,193.4097259,-17.48978567,1230.47044
6.3800,193.5283941,-17.42224974,1230.498258
6.3850,193.6459619,-17.35415433,1230.525775
6.3900,193.7616039,-17.28501587,1230.553209
6.3950,193.8747939,-17.21540729,1230.580651
6.4000,193.9848506,-17.14383447,1230.60839
6.4050,194.0900659,-17.07134092,1230.636766
6.4100,194.1896834,-16.99699872,1230.666079
6.4150,194.2819844,-16.92143689,1230.69659
6.4200,194.3678038,-16.8453352,1230.728184
6.4250,194.4460215,-16.76750869,1230.76124
6.4300,194.5152843,-16.68777238,1230.796078
6.4350,194.5749372,-16.6070936,1230.832755
6.4400,194.6256214,-16.52490614,1230.87117
6.4450,194.6662038,-16.44081076,1230.911764
6.4500,194.6965778,-16.35489853,1230.954378
6.4550,194.716561,-16.26826396,1230.998979
6.4600,194.7261634,-16.18003646,1231.045744
6.4650,194.7240632,-16.09089751,1231.094888
6.4700,194.7103029,-16.0008671,1231.146305
6.4750,194.6858941,-15.91012718,1231.199944
6.4800,194.6499681,-15.81884203,1231.255838
6.4850,194.6029864,-15.72725456,1231.313976
6.4900,194.5453634,-15.63607603,1231.374133
6.4950,194.4777816,-15.54606689,1231.435976
6.5000,194.4005251,-15.45750378,1231.499351
6.5050,194.3140883,-15.37131427,1231.564152
6.5100,194.220058,-15.28790793,1231.629977
6.5150,194.1189363,-15.20719668,1231.696667
6.5200,194.0107781,-15.13011687,1231.764121
6.5250,193.8972985,-15.05615405,1231.832127
6.5300,193.7793906,-14.98667714,1231.900317
6.5350,193.6576201,-14.92057579,1231.968645
6.5400,193.5330956,-14.85875586,1232.036818
6.5450,193.4076634,-14.80098408,1232.104541
6.5500,193.2817464,-14.74806256,1232.171681
6.5550,193.157035,-14.70066298,1232.237785
6.5600,193.0350827,-14.65893966,1232.302561
6.5650,192.9158625,-14.62268108,1232.366075
6.5700,192.7992185,-14.59343946,1232.428148
6.5750,192.6862557,-14.57085684,1232.488572
6.5800,192.577831,-14.55499277,1232.547177
6.5850,192.4743519,-14.54630228,1232.603878
6.5900,192.3751132,-14.54485856,1232.658745
6.5950,192.2798853,-14.551092,1232.711819
6.6000,192.1876394,-14.56504896,1232.763331
6.6050,192.0998369,-14.58604776,1232.813032
6.6100,192.017987,-14.61447387,1232.860573
6.6150,191.9399845,-14.6502025,1232.906437
6.6200,191.865817,-14.6930876,1232.950572
6.6250,191.7966245,-14.74288942,1232.992772
6.6300,191.7315907,-14.79990135,1233.033337
6.6350,191.670616,-14.86243687,1233.072441
6.6400,191.6134987,-14.93174807,1233.109929
6.6450,191.5605216,-15.00609302,1233.145994
6.6500,191.5111497,-15.08572133,1233.180715
6.6550,191.4649712,-15.17094829,1233.214162
6.6600,191.4214047,-15.26150573,1233.24646
6.6650,191.3802837,-15.35774477,1233.277628
6.6700,191.3410118,-15.45904091,1233.307898
6.6750,191.303744,-15.56569942,1233.337238
6.6800,191.2687071,-15.67768419,1233.365566
6.6850,191.2363632,-15.79387263,1233.39304
6.6900,191.2050013,-15.91375317,1233.419987
6.6950,191.1757639,-16.0367281,1233.44625
6.7000,191.1480229,-16.16381876,1233.471851
6.7050,191.1235928,-16.29399856,1233.496453
6.7100,191.1027835,-16.42773175,1233.519941
6.7150,191.0864409,-16.56401686,1233.542303
6.7200,191.0744683,-16.70282482,1233.563442
6.7250,191.0679241,-16.84504667,1233.583144
6.7300,191.0663782,-16.98970878,1233.60146
6.7350,191.0710474,-17.13726762,1233.618249
6.7400,191.081551,-17.28762141,1233.6336
6.7450,191.0987704,-17.44074469,1233.647234
6.7500,191.1222159,-17.59652534,1233.659396
6.7550,191.1509655,-17.75387792,1233.670348
6.7600,191.1850185,-17.91271256,1233.680114
6.7650,191.2237116,-18.07390727,1233.688742
6.7700,191.2674188,-18.23586014,1233.696363
6.7750,191.3153225,-18.39841002,1233.703109
6.7800,191.368545,-18.56095813,1233.70882
6.7850,191.4256933,-18.72440806,1233.71366
6.7900,191.4868416,-18.88722739,1233.717823
6.7950,191.5516531,-19.04940579,1233.721439
6.8000,191.6201884,-19.21093621,1233.724558
6.8050,191.6920796,-19.37179295,1233.727172
6.8100,191.7671426,-19.5315147,1233.7294
6.8150,191.8453018,-19.69068152,1233.731266
6.8200,191.9266818,-19.84890172,1233.73265
6.8250,192.0105134,-20.00732059,1233.733556
6.8300,192.0981713,-20.16464757,1233.733847
6.8350,192.1897184,-20.32164762,1233.733391
6.8400,192.285095,-20.47906074,1233.732051
6.8450,192.384956,-20.63624821,1233.729769
6.8500,192.4892747,-20.79248065,1233.726554
6.8550,192.5983588,-20.94865973,1233.722207
6.8600,192.711878,-21.10566909,1233.716663
6.8650,192.8316264,-21.26275924,1233.709624
6.8700,192.957349,-21.41878937,1233.701219
6.8750,193.0898055,-21.5739955,1233.691235
6.8800,193.228297,-21.72853119,1233.679775
6.8850,193.3731749,-21.8830578,1233.666694
6.8900,193.5246708,-22.03716482,1233.651989
6.8950,193.6827372,-22.19030324,1233.635708
6.9000,193.8479535,-22.34244617,1233.617709
6.9050,194.0174264,-22.49400698,1233.598466
6.9100,194.1905036,-22.64436679,1233.578308
6.9150,194.3670136,-22.79284206,1233.557196
6.9200,194.5461161,-22.93873916,1233.535526
6.9250,194.7275895,-23.0809086,1233.513501
6.9300,194.9104459,-23.21961549,1233.491134
6.9350,195.0953292,-23.35504528,1233.468355
6.9400,195.2802811,-23.48599001,1233.445685
6.9450,195.464532,-23.61214442,1233.423307
6.9500,195.6477481,-23.73372354,1233.401264
6.9550,195.8285577,-23.85133203,1233.379806
6.9600,196.0071798,-23.96260667,1233.359072
6.9650,196.1817514,-24.06707954,1233.339632
6.9700,196.3518713,-24.16475614,1233.321495
6.9750,196.516382,-24.25361685,1233.305102
6.9800,196.6739958,-24.33458875,1233.290573
6.9850,196.823595,-24.40758099,1233.27808
6.9900,196.9665542,-24.47205788,1233.26746
6.9950,197.1009059,-24.52749145,1233.259154
7.0000,197.226292,-24.57341354,1233.253363
7.0050,197.3415348,-24.60941699,1233.250382
7.0100,197.4462663,-24.63511369,1233.250265
7.0150,197.5399133,-24.65027018,1233.253198
7.0200,197.6221647,-24.65464075,1233.259342
7.0250,197.6931911,-24.64720025,1233.26868
7.0300,197.7537834,-24.62888892,1233.281149
7.0350,197.803618,-24.59920363,1233.296748
7.0400,197.8434326,-24.55772152,1233.315526
7.0450,197.8727525,-24.50537273,1233.337465
7.0500,197.8923957,-24.44221705,1233.362432
7.0550,197.9036827,-24.36832433,1233.390249
7.0600,197.9064549,-24.2847693,1233.420915
7.0650,197.9016667,-24.19167602,1233.454251
7.0700,197.8898112,-24.08873919,1233.49033
7.0750,197.8712618,-23.97716688,1233.529043
7.0800,197.8454702,-23.8582728,1233.570442
7.0850,197.8142012,-23.73142395,1233.614421
7.0900,197.7769247,-23.59750508,1233.66096
7.0950,197.7333713,-23.45742973,1233.71015
7.1000,197.6833761,-23.31171536,1233.761989
7.1050,197.6277674,-23.16187961,1233.816265
7.1100,197.5674995,-23.00749305,1233.872845
7.1150,197.5018584,-22.85006841,1233.931702
7.1200,197.4330533,-22.68928793,1233.992491
7.1250,197.361853,-22.52664423,1234.054905
7.1300,197.2886154,-22.362277,1234.118808
7.1350,197.2146409,-22.19729056,1234.183872
7.1400,197.1412329,-22.03223585,1234.249759
7.1450,197.0679825,-21.86767038,1234.316446
7.1500,196.9964008,-21.7057057,1234.383363
7.1550,196.9258935,-21.54531549,1234.450603
7.1600,196.857036,-21.38761444,1234.517878
7.1650,196.7892818,-21.23316547,1234.585112
7.1700,196.7242923,-21.08354806,1234.651774
7.1750,196.6610579,-20.93968756,1234.718008
7.1800,196.6010117,-20.80162271,1234.783332
7.1850,196.5443355,-20.66929486,1234.847664
7.1900,196.4906961,-20.54295076,1234.910961
7.1950,196.4404832,-20.42290169,1234.973006
7.2000,196.3935026,-20.30872097,1235.033783
7.2050,196.3511372,-20.20135348,1235.092862
7.2100,196.3121015,-20.10116451,1235.150249
7.2150,196.2774756,-20.00787347,1235.205794
7.2200,196.2465453,-19.92062492,1235.259527
7.2250,196.2181783,-19.84087229,1235.311382
7.2300,196.1914087,-19.7680591,1235.361493
7.2350,196.165233,-19.70206123,1235.409961
7.2400,196.1388332,-19.64261359,1235.456882
7.2450,196.110245,-19.58944215,1235.50253
7.2500,196.0789582,-19.54171307,1235.546941
7.2550,196.0435022,-19.49758358,1235.590517
7.2600,196.0033973,-19.45870178,1235.633123
7.2650,195.9566585,-19.42363328,1235.675204
7.2700,195.9037804,-19.39216721,1235.716694
7.2750,195.8431481,-19.36341652,1235.757909
7.2800,195.7744827,-19.33667384,1235.799105
7.2850,195.6978052,-19.31081664,1235.840465
7.2900,195.6121015,-19.28476411,1235.882383
7.2950,195.5185919,-19.25859635,1235.924627
7.3000,195.4180144,-19.23193473,1235.967064
7.3050,195.3109882,-19.2035882,1236.009917
7.3100,195.1993379,-19.1746488,1236.0528
7.3150,195.0845733,-19.14474139,1236.095567
7.3200,194.9687319,-19.11373616,1236.13788
7.3250,194.8533543,-19.08259359,1236.179501
7.3300,194.7397417,-19.05186543,1236.220111
7.3350,194.6307655,-19.02185374,1236.25927
7.3400,194.5285467,-18.99382974,1236.296355
7.3450,194.4358328,-18.96831817,1236.330907
7.3500,194.3540086,-18.94571488,1236.362605
7.3550,194.2850993,-18.92639386,1236.39095
7.3600,194.2307798,-18.91172907,1236.415449
7.3650,194.1933057,-18.90103996,1236.435838
7.3700,194.1725265,-18.8964761,1236.451705
7.3750,194.1689199,-18.89814424,1236.462961
7.3800,194.183377,-18.90546616,1236.469553
7.3850,194.2147959,-18.91962557,1236.471427
7.3900,194.262758,-18.94074476,1236.46875
7.3950,194.3261453,-18.96778642,1236.461808
7.4000,194.4046841,-19.00146,1236.450545
7.4050,194.4956776,-19.0394158,1236.435812
7.4100,194.5959895,-19.08309903,1236.418111
7.4150,194.7050041,-19.13096891,1236.397803
7.4200,194.8189985,-19.1828336,1236.375771
7.4250,194.935999,-19.23659611,1236.352667
7.4300,195.0525977,-19.29242399,1236.329162
7.4350,195.1676862,-19.34968208,1236.305727
7.4400,195.2784452,-19.40674849,1236.283134
7.4450,195.3854734,-19.46357651,1236.261441
7.4500,195.486859,-19.51819253,1236.241259
7.4550,195.5827726,-19.57226027,1236.222494
7.4600,195.6732807,-19.62399397,1236.20535
7.4650,195.7587917,-19.67477799,1236.189658
7.4700,195.8379441,-19.72447111,1236.175662
7.4750,195.9123216,-19.77263967,1236.163056
7.4800,195.9811635,-19.81978574,1236.151872
7.4850,196.0452958,-19.86645678,1236.141827
7.4900,196.1068108,-19.91330988,1236.132406
7.4950,196.165523,-19.96046342,1236.123549
7.5000,196.2224946,-20.00897156,1236.114948
7.5050,196.2777692,-20.05801182,1236.106734
7.5100,196.3328645,-20.10708646,1236.098576
7.5150,196.3875637,-20.15725042,1236.090366
7.5200,196.4427246,-20.20890483,1236.081885
7.5250,196.4983492,-20.26097341,1236.073055
7.5300,196.5544149,-20.31290193,1236.063999
7.5350,196.6112916,-20.36511917,1236.054444
7.5400,196.6682328,-20.41796943,1236.044338
7.5450,196.7263845,-20.47033416,1236.033513
7.5500,196.7853573,-20.52205927,1236.022013
7.5550,196.8453263,-20.57504602,1236.009496
7.5600,196.9054681,-20.62715084,1235.996261
7.5650,196.9665035,-20.68034821,1235.98178
7.5700,197.0281216,-20.73304619,1235.966293
7.5750,197.0902709,-20.7858252,1235.949651
7.5800,197.1533084,-20.83823305,1235.931764
7.5850,197.2175066,-20.89085706,1235.912437
7.5900,197.2840308,-20.94297473,1235.891507
7.5950,197.3545847,-20.9954575,1235.868561
7.6000,197.4304542,-21.0483311,1235.843358
7.6050,197.5131304,-21.10311462,1235.815399
7.6100,197.6027417,-21.1583864,1235.78476
7.6150,197.700949,-21.21579588,1235.750869
7.6200,197.8093962,-21.27600649,1235.713365
7.6250,197.9290384,-21.33973229,1235.671812
7.6300,198.0621096,-21.40768198,1235.625807
7.6350,198.2081547,-21.48136232,1235.57507
7.6400,198.3697166,-21.56243608,1235.519055
7.6450,198.5465985,-21.65082421,1235.457737
7.6500,198.7392482,-21.74839776,1235.390763
7.6550,198.948353,-21.85464019,1235.318105
7.6600,199.1740798,-21.96982938,1235.239823
7.6650,199.4158507,-22.09464048,1235.155794
7.6700,199.6733959,-22.22819801,1235.066341
7.6750,199.9463507,-22.370124,1234.971648
7.6800,200.2346602,-22.52040448,1234.871723
7.6850,200.5360458,-22.67786536,1234.767205
7.6900,200.8497297,-22.84134316,1234.658466
7.6950,201.1750818,-23.01098804,1234.545668
7.7000,201.5098283,-23.18493188,1234.429527
7.7050,201.8533546,-23.36310583,1234.310191
7.7100,202.2041315,-23.54389001,1234.188123
7.7150,202.5602339,-23.72715444,1234.063656
7.7200,202.9206693,-23.91176934,1233.937104
7.7250,203.2832146,-24.09816969,1233.808748
7.7300,203.6480625,-24.28587951,1233.678716
7.7350,204.0126431,-24.47399145,1233.547345
7.7400,204.3761959,-24.66264192,1233.414675
7.7450,204.73763,-24.85219557,1233.280624
7.7500,205.0957786,-25.04349252,1233.145296
7.7550,205.4510906,-25.23449702,1233.008666
7.7600,205.8015649,-25.42665729,1232.870823
7.7650,206.1460242,-25.6193564,1232.731991
7.7700,206.4851799,-25.81204917,1232.59207
7.7750,206.819573,-26.00446388,1232.450994
7.7800,207.1483416,-26.19620214,1232.308889
7.7850,207.4703683,-26.38580346,1232.166149
7.7900,207.7849814,-26.57306562,1232.022916
7.7950,208.0923768,-26.75663735,1231.879346
7.8000,208.3910233,-26.93465208,1231.73584
7.8050,208.6810406,-27.1071353,1231.592284
7.8100,208.9611399,-27.27315918,1231.449108
7.8150,209.2293706,-27.43182141,1231.306725
7.8200,209.4847806,-27.58245995,1231.165333
7.8250,209.7258842,-27.72396765,1231.025385
7.8300,209.9523384,-27.85688187,1230.886866
7.8350,210.1627495,-27.98040025,1230.750191
7.8400,210.3558675,-28.09400307,1230.615563
7.8450,210.5308221,-28.19935403,1230.482976
7.8500,210.6856783,-28.29570272,1230.35281
7.8550,210.8207689,-28.38209148,1230.225157
7.8600,210.9355956,-28.46012151,1230.099831
7.8650,211.0297975,-28.52948895,1229.976931
7.8700,211.102684,-28.59096518,1229.856369
7.8750,211.1557309,-28.64482488,1229.737982
7.8800,211.1897698,-28.6918411,1229.621467
7.8850,211.2039689,-28.73285159,1229.506706
7.8900,211.2004738,-28.76964873,1229.393257
7.8950,211.1786068,-28.80240799,1229.281096
7.9000,211.1403927,-28.83178495,1229.16983
7.9050,211.0857593,-28.85838556,1229.059298
7.9100,211.0168551,-28.88435218,1228.949004
7.9150,210.9352022,-28.91028813,1228.838716
7.9200,210.8415599,-28.9364437,1228.728228
7.9250,210.7378314,-28.96335089,1228.617255
7.9300,210.6253945,-28.99163399,1228.505538
7.9350,210.5054105,-29.02057878,1228.393036
7.9400,210.3786115,-29.05081007,1228.279582
7.9450,210.2469162,-29.0819564,1228.165047
7.9500,210.1117009,-29.11374608,1228.049274
7.9550,209.9736756,-29.147635,1227.932153
7.9600,209.8336528,-29.18257872,1227.813548
7.9650,209.6916223,-29.21899626,1227.693522
7.9700,209.5485473,-29.25696041,1227.571996
7.9750,209.4047619,-29.29761387,1227.448805
7.9800,209.260279,-29.34130454,1227.324
7.9850,209.1157825,-29.38733717,1227.197507
7.9900,208.9725344,-29.43729689,1227.068984
7.9950,208.8310746,-29.48979278,1226.938542
8.0000,208.6904867,-29.54521681,1226.806344
8.0050,208.5513927,-29.60240916,1226.672402
8.0100,208.4148126,-29.6612374,1226.536642
8.0150,208.2820989,-29.7199347,1226.399184
8.0200,208.1529789,-29.77928599,1226.25998
8.0250,208.029123,-29.83661291,1226.119124
8.0300,207.9087687,-29.89236971,1225.976845
8.0350,207.7937879,-29.9448555,1225.83305
8.0400,207.6836999,-29.99403592,1225.687938
8.0450,207.5784915,-30.03836328,1225.541747
8.0500,207.4785606,-30.07731926,1225.394429
8.0550,207.3818432,-30.11146608,1225.246401
8.0600,207.2898194,-30.1393643,1225.097629
8.0650,207.2021021,-30.15962366,1224.948179
8.0700,207.1186027,-30.17278113,1224.79815
8.0750,207.0369861,-30.17909922,1224.647814
8.0800,206.956789,-30.17782199,1224.497375
8.0850,206.8781886,-30.16913831,1224.346796
8.0900,206.7992968,-30.15292544,1224.196349
8.0950,206.7201654,-30.1295639,1224.046054
8.1000,206.6403545,-30.09847901,1223.896041
8.1050,206.5600615,-30.05973518,1223.746364
8.1100,206.4793849,-30.01295632,1223.597005
8.1150,206.3985714,-29.95632947,1223.448082
8.1200,206.3164312,-29.89063178,1223.299736
8.1250,206.2332554,-29.81661803,1223.151952
8.1300,206.1499185,-29.73256112,1223.004666
8.1350,206.0654621,-29.63727374,1222.858102
8.1400,205.9807897,-29.5320217,1222.712179
8.1450,205.8949055,-29.41561492,1222.567057
8.1500,205.8088973,-29.28927635,1222.422449
8.1550,205.7211754,-29.15321557,1222.278645
8.1600,205.6326217,-29.00613264,1222.135709
8.1650,205.5433919,-28.8493142,1221.99352
8.1700,205.4528387,-28.68242953,1221.852226
8.1750,205.3605542,-28.50728309,1221.711605
8.1800,205.2659396,-28.32355299,1221.571842
8.1850,205.1695146,-28.13192677,1221.432824
8.1900,205.0695805,-27.93201225,1221.294826
8.1950,204.9665863,-27.72339773,1221.157891
8.2000,204.8592986,-27.50660016,1221.022303
8.2050,204.7487059,-27.28063535,1220.887984
8.2100,204.6351574,-27.0454193,1220.755053
8.2150,204.5175742,-26.80088063,1220.623687
8.2200,204.3969588,-26.54686107,1220.493821
8.2250,204.2725109,-26.28373027,1220.365706
8.2300,204.1440385,-26.01033937,1220.239393
8.2350,204.0126743,-25.72728043,1220.114821
8.2400,203.8787888,-25.43315927,1219.99204
8.2450,203.7423398,-25.12822425,1219.871009
8.2500,203.6032571,-24.81252779,1219.752023
8.2550,203.461461,-24.48583142,1219.63502
8.2600,203.3182517,-24.14873972,1219.519908
8.2650,203.1739453,-23.8000417,1219.40677
8.2700,203.0284715,-23.44016835,1219.295681
8.2750,202.882792,-23.06841366,1219.18667
8.2800,202.736287,-22.68497578,1219.079851
8.2850,202.5890109,-22.29054029,1218.975246
8.2900,202.4401418,-21.88439868,1218.87321
8.2950,202.2890309,-21.4683048,1218.773591
8.3000,202.137033,-21.04241187,1218.676226
8.3050,201.9839074,-20.60694258,1218.581245
8.3100,201.8285574,-20.16323779,1218.488731
8.3150,201.6704805,-19.71163528,1218.398692
8.3200,201.5104184,-19.25120132,1218.311241
8.3250,201.3483746,-18.78315905,1218.226328
8.3300,201.1836935,-18.30713299,1218.144094
8.3350,201.0160585,-17.82337633,1218.064608
8.3400,200.8450561,-17.33255401,1217.987845
8.3450,200.670264,-16.83535018,1217.913791
8.3500,200.4911937,-16.33093041,1217.84268
8.3550,200.3094546,-15.81991124,1217.774252
8.3600,200.1235316,-15.30204028,1217.708781
8.3650,199.9335642,-14.77955677,1217.646054
8.3700,199.7395289,-14.25016758,1217.586271
8.3750,199.5419068,-13.71401935,1217.529445
8.3800,199.3412479,-13.17273981,1217.475433
8.3850,199.1373326,-12.62599376,1217.424372
8.3900,198.9298272,-12.07283524,1217.376597
8.3950,198.7185844,-11.51241064,1217.332392
8.4000,198.5031733,-10.94802226,1217.29151
8.4050,198.2827355,-10.37833919,1217.254314
8.4100,198.0561919,-9.803667828,1217.220866
8.4150,197.8238475,-9.225694375,1217.190986
8.4200,197.5865264,-8.64353267,1217.164743
8.4250,197.3430311,-8.057937621,1217.142197
8.4300,197.091755,-7.470140605,1217.123566
8.4350,196.8320326,-6.88234046,1217.108492
8.4400,196.5643043,-6.29256744,1217.097222
8.4450,196.2875287,-5.701412076,1217.089859
8.4500,196.0005582,-5.109377899,1217.086476
8.4550,195.7041977,-4.515749074,1217.087021
8.4600,195.396622,-3.920910736,1217.091707
8.4650,195.0786783,-3.322883957,1217.100933
8.4700,194.7505344,-2.723379977,1217.114497
8.4750,194.4124611,-2.120421665,1217.132842
8.4800,194.0643392,-1.51363322,1217.156186
8.4850,193.7065759,-0.902104965,1217.184809
8.4900,193.3391926,-0.2850198023,1217.218883
8.4950,192.9626892,0.3375157051,1217.258575
8.5000,192.5773284,0.9656622008,1217.303841
8.5050,192.1822749,1.597019273,1217.354443
8.5100,191.7760716,2.231446045,1217.410564
8.5150,191.3585369,2.868451461,1217.472109
8.5200,190.926904,3.506365185,1217.539278
8.5250,190.4820084,4.146151481,1217.612055
8.5300,190.0226169,4.787701064,1217.690654
8.5350,189.5500891,5.43096925,1217.774847
8.5400,189.0643085,6.076974624,1217.865012
8.5450,188.5666154,6.726765281,1217.961273
8.5500,188.0599735,7.382121885,1218.063505
8.5550,187.5459137,8.044206484,1218.171923
8.5600,187.0254039,8.713026232,1218.286515
8.5650,186.4988209,9.387134809,1218.407057
8.5700,185.968296,10.06559174,1218.533127
8.5750,185.4328044,10.74681299,1218.664642
8.5800,184.8918699,11.42982647,1218.801425
8.5850,184.345839,12.1136098,1218.943307
8.5900,183.79625,12.79702997,1219.08978
8.5950,183.2437031,13.48155485,1219.241123
8.6000,182.690307,14.16742728,1219.397117
8.6050,182.1372924,14.85407846,1219.557433
8.6100,181.5874914,15.54376342,1219.722055
8.6150,181.0412416,16.23492276,1219.8906
8.6200,180.5002996,16.92737611,1220.062593
8.6250,179.9641581,17.62084904,1220.237908
8.6300,179.4353614,18.31676226,1220.41627
8.6350,178.9132433,19.01329764,1220.597268
8.6400,178.3990417,19.71062255,1220.780524
8.6450,177.8939908,20.40948996,1220.965777
8.6500,177.39797,21.10918438,1221.152677
8.6550,176.9105931,21.8100106,1221.341188
8.6600,176.4341909,22.51317741,1221.530997
8.6650,175.9699704,23.21927616,1221.721931
8.6700,175.5183613,23.92695268,1221.913431
8.6750,175.0791003,24.63556763,1222.105214
8.6800,174.6526445,25.34549731,1222.297184
8.6850,174.2388,26.05544095,1222.488925
8.6900,173.8374971,26.76431259,1222.680089
8.6950,173.4471329,27.46978325,1222.870255
8.7000,173.0657634,28.17163797,1223.059592
8.7050,172.6910666,28.86700517,1223.247639
8.7100,172.3204851,29.5540592,1223.434391
8.7150,171.9519224,30.23269795,1223.620171
8.7200,171.5827648,30.90246328,1223.80529
8.7250,171.2124668,31.56497066,1223.990336
8.7300,170.8395645,32.22252157,1224.176206
8.7350,170.4634818,32.87744896,1224.363888
8.7400,170.0833249,33.52964747,1224.553614
8.7450,169.6990014,34.17951947,1224.745749
8.7500,169.3106087,34.828379,1224.940725
8.7550,168.915212,35.47460424,1225.138781
8.7600,168.5121423,36.11769194,1225.339952
8.7650,168.0991012,36.75865839,1225.545037
8.7700,167.6753447,37.4001228,1225.75496
8.7750,167.2405179,38.04215934,1225.969997
8.7800,166.7944221,38.68471155,1226.190237
8.7850,166.3362681,39.32865072,1226.416128
8.7900,165.865443,39.97229514,1226.647419
8.7950,165.3795709,40.6148637,1226.884285
8.8000,164.876949,41.2568469,1227.127289
8.8050,164.3564863,41.8993446,1227.37707
8.8100,163.8188103,42.54222427,1227.633559
8.8150,163.2639928,43.18615932,1227.897086
8.8200,162.6917704,43.8343573,1228.168736
8.8250,162.103431,44.4866344,1228.448472
8.8300,161.4999781,45.14383225,1228.736483
8.8350,160.8811265,45.80633449,1229.033159
8.8400,160.247434,46.47353162,1229.338294
8.8450,159.5989761,47.1446398,1229.651715
8.8500,158.9340594,47.81935059,1229.973806
8.8550,158.2528176,48.49630117,1230.304199
8.8600,157.552891,49.17604814,1230.643651
8.8650,156.837047,49.85994473,1230.992251
8.8700,156.10535,50.54870172,1231.350307
8.8750,155.3612431,51.24251479,1231.717322
8.8800,154.6073979,51.94200283,1232.093069
8.8850,153.8468154,52.6461897,1232.476617
8.8900,153.0795866,53.35322239,1232.867386
8.8950,152.3070299,54.06111732,1233.264436
8.9000,151.5279214,54.76810305,1233.667451
8.9050,150.7418974,55.47125152,1234.075462
8.9100,149.9483132,56.16656774,1234.487175
8.9150,149.1466216,56.85382908,1234.902521
8.9200,148.3348089,57.53148117,1235.321459
8.9250,147.5145863,58.19945871,1235.7435
8.9300,146.685905,58.85680406,1236.168267
8.9350,145.8507881,59.5055335,1236.596038
8.9400,145.0099897,60.14691993,1237.027039
8.9450,144.1628986,60.77979159,1237.460975
8.9500,143.3108581,61.40341688,1237.897107
8.9550,142.4541021,62.01815817,1238.335436
8.9600,141.5929271,62.62417815,1238.775971
8.9650,140.7299408,63.22310814,1239.218704
8.9700,139.8652813,63.81512471,1239.663693
8.9750,138.9999928,64.40019197,1240.110671
8.9800,138.1354107,64.97986844,1240.55989
8.9850,137.2738437,65.55482351,1241.011097
8.9900,136.4186456,66.12485488,1241.463333
8.9950,135.5718068,66.68966256,1241.915763
9.0000,134.7347361,67.24853311,1242.36766
9.0050,133.9088612,67.80064232,1242.818268
9.0100,133.0963131,68.34636923,1243.267068
9.0150,132.2976787,68.88416815,1243.713065
9.0200,131.513759,69.41276567,1244.155359
9.0250,130.7454342,69.9303418,1244.592807
9.0300,129.9945917,70.4373714,1245.024807
9.0350,129.2626151,70.93173422,1245.449915
9.0400,128.5510893,71.41378469,1245.867554
9.0450,127.8611388,71.88442352,1246.277535
9.0500,127.1932665,72.34389073,1246.679662
9.0550,126.5496675,72.7937425,1247.073718
9.0600,125.9320544,73.23570385,1247.459781
9.0650,125.3418301,73.66993757,1247.837185
9.0700,124.7819314,74.0977739,1248.205469
9.0750,124.2532517,74.52001053,1248.564517
9.0800,123.7561027,74.93871646,1248.914905
9.0850,123.2914415,75.35248384,1249.255526
9.0900,122.8610859,75.76298988,1249.586347
9.0950,122.4647551,76.1716015,1249.907868
9.1000,122.1041799,76.57804001,1250.219278
9.1050,121.7792397,76.98277236,1250.520609
9.1100,121.4877418,77.3852957,1250.812143
9.1150,121.2293185,77.78531,1251.093642
9.1200,121.0037554,78.18025112,1251.363778
9.1250,120.806978,78.57006398,1251.623548
9.1300,120.6361703,78.95271757,1251.872813
9.1350,120.4882889,79.32755249,1252.112035
9.1400,120.3605995,79.69556897,1252.342347
9.1450,120.2498318,80.05610252,1252.564415
9.1500,120.1553781,80.41133212,1252.779346
9.1550,120.0747295,80.76216339,1252.988182
9.1600,120.0059867,81.10922148,1253.191768
9.1650,119.9461034,81.45338652,1253.391355
9.1700,119.8919325,81.79442066,1253.587812
9.1750,119.8407624,82.13356893,1253.782555
9.1800,119.7879169,82.46867966,1253.97607
9.1850,119.7300319,82.80119213,1254.170201
9.1900,119.6641344,83.13271934,1254.366695
9.1950,119.5886529,83.46439764,1254.566761
9.2000,119.5037963,83.79499864,1254.769834
9.2050,119.4077578,84.12597752,1254.977322
9.2100,119.2989828,84.45844428,1255.190424
9.2150,119.1765207,84.7928888,1255.409812
9.2200,119.0395415,85.12850783,1255.635396
9.2250,118.8841365,85.46383563,1255.867861
9.2300,118.7083573,85.79795032,1256.10744
9.2350,118.5099139,86.12965763,1256.354302
9.2400,118.2877908,86.45918509,1256.609005
9.2450,118.0408058,86.78514027,1256.871338
9.2500,117.7685892,87.10817595,1257.141878
9.2550,117.4699409,87.42840067,1257.421086
9.2600,117.1431179,87.74432466,1257.708874
9.2650,116.7866577,88.05635109,1258.005938
9.2700,116.4018109,88.36615401,1258.312775
9.2750,115.989631,88.67588909,1258.630194
9.2800,115.5506924,88.98490684,1258.957737
9.2850,115.0836524,89.29515222,1259.296878
9.2900,114.5895578,89.6080407,1259.648075
9.2950,114.0683015,89.92459098,1260.012077
9.3000,113.521667,90.24763924,1260.389864
9.3050,112.952649,90.57903762,1260.7815
9.3100,112.3629187,90.91856605,1261.186524
9.3150,111.7543789,91.2655051,1261.604082
9.3200,111.1291614,91.6207381,1262.033969
9.3250,110.4882781,91.98342359,1262.47554
9.3300,109.8333055,92.35080783,1262.926987
9.3350,109.1662647,92.72444858,1263.388542
9.3400,108.487001,93.10257247,1263.859542
9.3450,107.7965753,93.48446143,1264.339364
9.3500,107.0965183,93.86967438,1264.827338
9.3550,106.3891754,94.25869597,1265.32292
9.3600,105.6763686,94.650174,1265.824787
9.3650,104.9596809,95.04324606,1266.332048
9.3700,104.2385059,95.43527672,1266.843568
9.3750,103.512369,95.8248734,1267.358762
9.3800,102.78351,96.21104993,1267.876314
9.3850,102.0524836,96.59384958,1268.396022
9.3900,101.3188898,96.97196793,1268.917326
9.3950,100.5847545,97.34431296,1269.438903
9.4000,99.85003975,97.70983465,1269.960156
9.4050,99.11704935,98.06793895,1270.479862
9.4100,98.38719317,98.41893069,1270.997585
9.4150,97.66203384,98.76215321,1271.512283
9.4200,96.94143029,99.09743795,1272.023928
9.4250,96.2268613,99.42375992,1272.531243
9.4300,95.51946237,99.74231287,1273.034277
9.4350,94.81995258,100.052999,1273.532595
9.4400,94.12867283,100.3549052,1274.025462
9.4450,93.44695425,100.6492358,1274.512855
9.4500,92.77389937,100.932809,1274.993236
9.4550,92.10951807,101.2055561,1275.466459
9.4600,91.45488132,101.4686425,1275.932508
9.4650,90.81041079,101.7210065,1276.390542
9.4700,90.176902,101.9629428,1276.840257
9.4750,89.55362706,102.1948261,1277.28204
9.4800,88.94243995,102.4179762,1277.715714
9.4850,88.34208844,102.6312506,1278.141039
9.4900,87.75284302,102.8340115,1278.557431
9.4950,87.17269809,103.0255379,1278.965202
9.5000,86.60107332,103.2070241,1279.365172
9.5050,86.03745057,103.3787578,1279.757641
9.5100,85.48184589,103.5411827,1280.142755
9.5150,84.93373367,103.6926874,1280.519721
9.5200,84.39195406,103.8350037,1280.889932
9.5250,83.8578397,103.9686147,1281.252958
9.5300,83.33014135,104.0939882,1281.609554
9.5350,82.80888713,104.2114143,1281.959846
9.5400,82.29327803,104.3199902,1282.303645
9.5450,81.78366296,104.42134,1282.64161
9.5500,81.27941638,104.5159068,1282.97426
9.5550,80.78074351,104.604248,1283.30178
9.5600,80.28843469,104.6882417,1283.624794
9.5650,79.80143814,104.7680344,1283.943835
9.5700,79.31822607,104.8434889,1284.259504
9.5750,78.83924565,104.9156166,1284.572162
9.5800,78.36469184,104.9854345,1284.882282
9.5850,77.89569075,105.0527624,1285.189228
9.5900,77.43123683,105.1179153,1285.493575
9.5950,76.97247136,105.1820001,1285.795472
9.6000,76.5186,105.2442638,1286.094778
9.6050,76.06961862,105.3052655,1286.391749
9.6100,75.62440282,105.3645083,1286.686589
9.6150,75.18248427,105.4230376,1286.980094
9.6200,74.74244972,105.479893,1287.272473
9.6250,74.30395844,105.5361395,1287.564489
9.6300,73.8660474,105.5917007,1287.856698
9.6350,73.42632665,105.6445267,1288.148982
9.6400,72.98448804,105.6952394,1288.441846
9.6450,72.5410097,105.743804,1288.735079
9.6500,72.09486376,105.7893435,1289.0287
9.6550,71.64514213,105.8328191,1289.323752
9.6600,71.19160171,105.8734607,1289.619952
9.6650,70.73268258,105.9113677,1289.918094
9.6700,70.26768134,105.9457787,1290.218137
9.6750,69.79656643,105.9769499,1290.520314
9.6800,69.31822083,106.0045742,1290.825014
9.6850,68.83224667,106.0284751,1291.132483
9.6900,68.33851059,106.0481564,1291.44254
9.6950,67.8373482,106.0631989,1291.754746
9.7000,67.32735426,106.0737951,1292.070004
9.7050,66.80993468,106.0799668,1292.387639
9.7100,66.28466602,106.081531,1292.707798
9.7150,65.75071556,106.0774967,1293.030411
9.7200,65.20858733,106.0688851,1293.355857
9.7250,64.66039702,106.0560535,1293.68329
9.7300,64.10699338,106.0380092,1294.011694
9.7350,63.5498769,106.0157125,1294.34087
9.7400,62.98958746,105.9886243,1294.670186
9.7450,62.42666437,105.9559646,1294.99877
9.7500,61.86169242,105.9184201,1295.326745
9.7550,61.29701634,105.8763428,1295.652991
9.7600,60.73346705,105.8291611,1295.9768
9.7650,60.1708578,105.7763293,1296.297854
9.7700,59.61067778,105.7184591,1296.615583
9.7750,59.05350565,105.6560076,1296.929843
9.7800,58.50105681,105.5892133,1297.239767
9.7850,57.95521887,105.5189519,1297.544759
9.7900,57.41738596,105.4461501,1297.844361
9.7950,56.88932935,105.3703489,1298.137151
9.8000,56.3703325,105.293028,1298.424299
9.8050,55.86283075,105.2150484,1298.704731
9.8100,55.3680202,105.1376553,1298.978353
9.8150,54.88664873,105.0625582,1299.245653
9.8200,54.4215874,104.9900245,1299.505041
9.8250,53.97306547,104.921243,1299.756934
9.8300,53.54190721,104.8565398,1300.000935
9.8350,53.12886321,104.79684,1300.236959
9.8400,52.73471777,104.7428085,1300.464818
9.8450,52.35855419,104.6960248,1300.68596
9.8500,52.00067022,104.6574464,1300.90061
9.8550,51.66062974,104.6275125,1301.109262
9.8600,51.338344,104.6061862,1301.311816
9.8650,51.0333746,104.5948926,1301.509279
9.8700,50.74612243,104.5938057,1301.701513
9.8750,50.47534902,104.6017117,1301.888461
9.8800,50.22134458,104.6193983,1302.070409
9.8850,49.98278654,104.6470218,1302.248205
9.8900,49.75904274,104.6841235,1302.421902
9.8950,49.54816604,104.7298088,1302.592149
9.9000,49.35079313,104.7850475,1302.759172
9.9050,49.16359811,104.8476314,1302.923604
9.9100,48.98601723,104.9186523,1303.086459
9.9150,48.8174963,104.9976277,1303.247844
9.9200,48.65792808,105.0841206,1303.407612
9.9250,48.50687293,105.1780565,1303.565973
9.9300,48.36297143,105.2781861,1303.722962
9.9350,48.22622762,105.3844993,1303.878642
9.9400,48.09664006,105.4961095,1304.032489
9.9450,47.97222166,105.6119606,1304.185056
9.9500,47.85377941,105.7329162,1304.336425
9.9550,47.73957811,105.8566793,1304.486278
9.9600,47.62828155,105.9831797,1304.635503
9.9650,47.52107855,106.1125499,1304.783491
9.9700,47.4181672,106.2448965,1304.930187
9.9750,47.31850037,106.378585,1305.075242
9.9800,47.2209801,106.5126267,1305.218757
9.9850,47.12621339,106.6468407,1305.360189
9.9900,47.03416812,106.7813102,1305.499654
9.9950,46.94395844,106.9153447,1305.63726
10.0000,46.8569208,107.049413,1305.772518
10.0050,46.77084131,107.1818891,1305.905792
10.0100,46.68695602,107.3122882,1306.03597
10.0150,46.60639064,107.4420543,1306.163301
10.0200,46.53005962,107.5688608,1306.285688
10.0250,46.4577374,107.6925883,1306.403252
10.0300,46.39029281,107.8128955,1306.515204
10.0350,46.32688633,107.9281114,1306.621046
10.0400,46.26828316,108.0382622,1306.720275
10.0450,46.2149152,108.1418721,1306.811799
10.0500,46.1673587,108.2396491,1306.895634
10.0550,46.12302668,108.3301535,1306.972481
10.0600,46.08357424,108.4135099,1307.04129
10.0650,46.04942461,108.4896835,1307.101737
10.0700,46.02053819,108.5594417,1307.154293
10.0750,45.99792448,108.6219192,1307.197732
10.0800,45.98208112,108.6788476,1307.232839
10.0850,45.97320922,108.7298706,1307.259199
10.0900,45.9729514,108.7761217,1307.276555
10.0950,45.9811525,108.8183681,1307.28543
10.1000,45.99978609,108.8564964,1307.284512
10.1050,46.02814933,108.8901849,1307.273997
10.1100,46.06498198,108.9187687,1307.254261
10.1150,46.111292,108.9428083,1307.224932
10.1200,46.1658725,108.9617873,1307.186413
10.1250,46.22886383,108.9761277,1307.138937
10.1300,46.30200638,108.9875973,1307.082502
10.1350,46.38374976,108.995346,1307.017563
10.1400,46.47449529,109.0009525,1306.944831
10.1450,46.57466421,109.0034585,1306.863454
10.1500,46.68332597,109.0037295,1306.77461
10.1550,46.80252139,109.0032399,1306.677944
10.1600,46.93146519,109.002275,1306.574247
10.1650,47.06912143,108.9990278,1306.463031
10.1700,47.21593664,108.9951114,1306.345087
10.1750,47.37202803,108.9915692,1306.221065
10.1800,47.53544486,108.9875593,1306.091785
10.1850,47.70727421,108.983383,1305.956724
10.1900,47.88486111,108.9784789,1305.817326
10.1950,48.06923016,108.9745358,1305.674009
10.2000,48.25904239,108.970796,1305.527177
10.2050,48.45459147,108.9689836,1305.377807
10.2100,48.65622097,108.968497,1305.225309
10.2150,48.86264129,108.969507,1305.070659
10.2200,49.07370657,108.9724889,1304.914224
10.2250,49.28839395,108.9763694,1304.756024
10.2300,49.50660397,108.9814281,1304.596285
10.2350,49.72804746,108.9869499,1304.434764
10.2400,49.95155843,108.9919726,1304.271605
10.2450,50.1781136,108.9972217,1304.106696
10.2500,50.40675956,109.0010602,1303.939627
10.2550,50.63778741,109.003757,1303.770396
10.2600,50.87021573,109.0048534,1303.599349
10.2650,51.10263048,109.0023344,1303.4261
10.2700,51.33430439,108.9961558,1303.25106
10.2750,51.56553597,108.9864006,1303.074134
10.2800,51.7958926,108.9724709,1302.895279
10.2850,52.02528901,108.9544549,1302.714625
10.2900,52.25244263,108.931422,1302.53232
10.2950,52.47746288,108.9030393,1302.348138
10.3000,52.7000864,108.8692148,1302.162116
10.3050,52.92127583,108.8297253,1301.973573
10.3100,53.14129094,108.7850754,1301.78271
10.3150,53.36001388,108.7335627,1301.588494
10.3200,53.57716824,108.6760569,1301.391723
10.3250,53.79233195,108.6114252,1301.191823
10.3300,54.00554623,108.5399527,1300.98903
10.3350,54.2174425,108.4617721,1300.782967
10.3400,54.42836254,108.3767046,1300.573486
10.3450,54.63849297,108.2853611,1300.360776
10.3500,54.84829526,108.1869025,1300.144055
10.3550,55.05962671,108.0827186,1299.923126
10.3600,55.27142043,107.9711048,1299.697545
10.3650,55.48420497,107.8537434,1299.468064
10.3700,55.69830409,107.7285794,1299.233258
10.3750,55.91357291,107.5965208,1298.993791
10.3800,56.13059651,107.4572918,1298.749098
10.3850,56.34944415,107.3114643,1298.49952
10.3900,56.56977414,107.1582378,1298.244821
10.3950,56.79163803,106.9983045,1297.985487
10.4000,57.01460507,106.8324993,1297.722272
10.4050,57.23982088,106.661646,1297.455074
10.4100,57.46813311,106.4868231,1297.18408
10.4150,57.69924698,106.3095488,1296.910404
10.4200,57.93391439,106.1304142,1296.633996
10.4250,58.17232974,105.9503039,1296.35521
10.4300,58.41406605,105.7699588,1296.074777
10.4350,58.66012097,105.589824,1295.792335
10.4400,58.91005976,105.4099669,1295.508255
10.4450,59.16465427,105.2320579,1295.223009
10.4500,59.42441362,105.0560119,1294.936369
10.4550,59.68871951,104.880885,1294.648176
10.4600,59.95718616,104.7078197,1294.359313
10.4650,60.23107604,104.5374192,1294.069528
10.4700,60.50988859,104.3688501,1293.778601
10.4750,60.79214529,104.2020177,1293.487357
10.4800,61.07900378,104.0379531,1293.195694
10.4850,61.36831474,103.8751014,1292.903975
10.4900,61.6615407,103.7143235,1292.611889
10.4950,61.95670819,103.55516,1292.32031
10.5000,62.25355676,103.3973632,1292.0292
10.5050,62.55161352,103.2408044,1291.73877
10.5100,62.84992472,103.0849034,1291.449241
10.5150,63.14908985,102.9295028,1291.160195
10.5200,63.44793077,102.7741339,1290.872028
10.5250,63.74634512,102.6177976,1290.584229
10.5300,64.04351057,102.4607899,1290.297472
10.5350,64.33910796,102.3022402,1290.011445
10.5400,64.63369557,102.1435472,1289.726718
10.5450,64.92557264,101.9834004,1289.443431
10.5500,65.21359854,101.8215949,1289.162162
10.5550,65.49843598,101.6581496,1288.882525
10.5600,65.78042595,101.4926232,1288.604084
10.5650,66.05950752,101.3252803,1288.326937
10.5700,66.33639681,101.1563775,1288.050893
10.5750,66.61094766,100.9855327,1287.775778
10.5800,66.88402058,100.8123351,1287.500813
10.5850,67.15450746,100.6361405,1287.226291
10.5900,67.42335153,100.4568099,1286.951596
10.5950,67.69108984,100.2749636,1286.676804
10.6000,67.95763146,100.0888623,1286.401076
10.6050,68.22222697,99.89859147,1286.124808
10.6100,68.48525386,99.70421,1285.847823
10.6150,68.7464073,99.50604275,1285.570487
10.6200,69.00843186,99.30526553,1285.291995
10.6250,69.27079113,99.10157489,1285.012512
10.6300,69.53350561,98.89441738,1284.731684
10.6350,69.79777005,98.68376597,1284.44885
10.6400,70.06405757,98.47031762,1284.164075
10.6450,70.33234683,98.25407232,1283.877373
10.6500,70.60280358,98.03548829,1283.588865
10.6550,70.87547854,97.81381759,1283.298132
10.6600,71.15169813,97.5899028,1283.005027
10.6650,71.43195304,97.36451385,1282.709732
10.6700,71.71698129,97.13841701,1282.412315
10.6750,72.00660766,96.91161736,1282.112855
10.6800,72.30034004,96.68340186,1281.811297
10.6850,72.59929334,96.45484422,1281.507717
10.6900,72.90361438,96.2265824,1281.202378
10.6950,73.2144147,95.9985795,1280.894772
10.7000,73.53165981,95.77077907,1280.584873
10.7050,73.8542996,95.5425864,1280.272984
10.7100,74.18204716,95.31382198,1279.95911
10.7150,74.51525551,95.0838913,1279.642832
10.7200,74.85261987,94.85244252,1279.324595
10.7250,75.1947443,94.61988484,1279.004429
10.7300,75.54106951,94.38456478,1278.681771
10.7350,75.89092633,94.14776338,1278.357674
10.7400,76.24400074,93.90895879,1278.032029
10.7450,76.60044551,93.66776529,1277.704646
10.7500,76.96014721,93.42462693,1277.37571
10.7550,77.32238925,93.18030692,1277.046017
10.7600,77.68807928,92.9332971,1276.714353
10.7650,78.05665089,92.6849855,1276.38175
10.7700,78.4279329,92.43522414,1276.048231
10.7750,78.80249383,92.1835539,1275.713217
10.7800,79.17891801,91.929801,1275.377371
10.7850,79.55786867,91.67511981,1275.041015
10.7900,79.93829742,91.4197253,1274.704744
10.7950,80.32070074,91.1616228,1274.367318
10.8000,80.70390578,90.90089812,1274.029399
10.8050,81.08803043,90.63799816,1273.691217
10.8100,81.47224534,90.37301643,1273.353225
10.8150,81.85662256,90.10618477,1273.015566
10.8200,82.24175453,89.83775481,1272.678122
10.8250,82.62757682,89.56826906,1272.341232
10.8300,83.01425315,89.297085,1272.004485
10.8350,83.40099693,89.02513278,1271.668745
10.8400,83.78769266,88.75147751,1271.333614
10.8450,84.17532572,88.47566379,1270.998441
10.8500,84.5642527,88.19848148,1270.663385
10.8550,84.9537421,87.91864201,1270.328197
10.8600,85.34233876,87.63649217,1269.993591
10.8650,85.73008867,87.35177778,1269.65952
10.8700,86.114798,87.06449262,1269.326958
10.8750,86.4982843,86.77582406,1268.995718
10.8800,86.8799127,86.486095,1268.666298
10.8850,87.26156769,86.19636907,1268.338335
10.8900,87.64282964,85.90670749,1268.012179
10.8950,88.02351484,85.61766706,1267.688066
10.9000,88.40284775,85.32828357,1267.365826
10.9050,88.78182573,85.03966355,1267.04554
10.9100,89.16048936,84.75197464,1266.727266
10.9150,89.53923207,84.46523227,1266.410828
10.9200,89.91705445,84.17828022,1266.096089
10.9250,90.29388746,83.89197372,1265.783428
10.9300,90.67005785,83.60633901,1265.472687
10.9350,91.04591852,83.32237433,1265.164256
10.9400,91.42141731,83.04042794,1264.858266
10.9450,91.7978508,82.7602386,1264.554059
10.9500,92.17532778,82.48184942,1264.251698
10.9550,92.55472927,82.20489,1263.950626
10.9600,92.93529392,81.93018142,1263.651516
10.9650,93.31745428,81.65548701,1263.353142
10.9700,93.70101461,81.38149197,1263.055911
10.9750,94.0874676,81.1080157,1262.759182
10.9800,94.47710905,80.83442738,1262.462578
10.9850,94.86917187,80.55924241,1262.165765
10.9900,95.26383182,80.28230221,1261.868603
10.9950,95.66192828,80.00295405,1261.570441
11.0000,96.06334788,79.7209446,1261.27125
11.0050,96.46881217,79.43698114,1260.97103
11.0100,96.87944962,79.15121273,1260.669466
11.0150,97.29424616,78.86267176,1260.366564
11.0200,97.71398279,78.57230536,1260.062452
11.0250,98.13759172,78.27917249,1259.757148
11.0300,98.56543027,77.98371216,1259.45069
11.0350,98.998275,77.68520366,1259.142553
11.0400,99.4363702,77.38414867,1258.832823
11.0450,99.87955435,77.08056227,1258.521578
11.0500,100.3272976,76.77393657,1258.208927
11.0550,100.780325,76.46535625,1257.89504
11.0600,101.2377629,76.15395681,1257.579908
11.0650,101.7008143,75.84000551,1257.2632
11.0700,102.1693193,75.52414536,1256.945248
11.0750,102.6432243,75.206139,1256.626039
11.0800,103.1229247,74.88658053,1256.305651
11.0850,103.6073202,74.56436339,1255.984053
11.0900,104.09866,74.24023987,1255.66078
11.0950,104.596524,73.91605131,1255.336821
11.1000,105.1013258,73.59192909,1255.012099
11.1050,105.6129041,73.26794905,1254.686695
11.1100,106.1321359,72.94444849,1254.360458
11.1150,106.6583791,72.62130322,1254.033542
11.1200,107.1914416,72.29782628,1253.70578
11.1250,107.7315664,71.97420571,1253.377147
11.1300,108.2791172,71.65020075,1253.047531
11.1350,108.8346833,71.32648892,1252.717024
11.1400,109.3977283,71.0034743,1252.386012
11.1450,109.9673945,70.68107495,1252.054759
11.1500,110.5436598,70.36031384,1251.723762
11.1550,111.1269166,70.04109392,1251.392833
11.1600,111.7192964,69.72389949,1251.061496
11.1650,112.3206073,69.4096191,1250.730131
11.1700,112.9329885,69.09850827,1250.39808
11.1750,113.5552209,68.79034743,1250.065635
11.1800,114.1884291,68.48459224,1249.732152
11.1850,114.8313994,68.18081133,1249.397954
11.1900,115.4858939,67.87920381,1249.062377
11.1950,116.1527544,67.57864382,1248.724793
11.2000,116.8342424,67.28196741,1248.385618
11.2050,117.5302829,66.98914195,1248.044991
11.2100,118.2415587,66.69898108,1247.702299
11.2150,118.968552,66.41059701,1247.357159
11.2200,119.7116418,66.1241721,1247.009662
11.2250,120.4721027,65.83894115,1246.659243
11.2300,121.2495742,65.55365561,1246.305754
11.2350,122.0424355,65.26720326,1245.949392
11.2400,122.8506872,64.97801792,1245.589757
11.2450,123.6731217,64.68518761,1245.227033
11.2500,124.5083198,64.38710487,1244.861192
11.2550,125.3550501,64.08286323,1244.492485
11.2600,126.2129718,63.77076259,1244.120504
11.2650,127.0814655,63.45015728,1243.74541
11.2700,127.9582109,63.11968431,1243.367588
11.2750,128.8414095,62.77740614,1242.986981
11.2800,129.7300984,62.42356932,1242.604101
11.2850,130.623373,62.05903188,1242.21962
11.2900,131.5202945,61.68229717,1241.833379
11.2950,132.4193635,61.29414322,1241.446144
11.3000,133.3187255,60.89452972,1241.05849
11.3050,134.2160701,60.48325412,1240.671061
11.3100,135.1098466,60.06005074,1240.284223
11.3150,135.9985212,59.62599788,1239.89874
11.3200,136.8824792,59.18211975,1239.514965
11.3250,137.762434,58.72989087,1239.133193
11.3300,138.6374353,58.27061937,1238.75427
11.3350,139.5074784,57.80676556,1238.379059
11.3400,140.3722824,57.33996027,1238.008218
11.3450,141.232192,56.87080948,1237.64184
11.3500,142.0889301,56.40023918,1237.279715
11.3550,142.9429038,55.92917562,1236.922076
11.3600,143.794996,55.45962479,1236.56935
11.3650,144.6442597,54.99186649,1236.221901
11.3700,145.4906003,54.52575136,1235.879734
11.3750,146.3318091,54.06211813,1235.543714
11.3800,147.1677387,53.60184095,1235.21418
11.3850,147.9987286,53.14655855,1234.891543
11.3900,148.8216724,52.69617723,1234.576483
11.3950,149.6357342,52.24923769,1234.268658
11.4000,150.4392941,51.80637911,1233.968605
11.4050,151.2325705,51.36768006,1233.676209
11.4100,152.0149262,50.93429433,1233.391951
11.4150,152.7876987,50.50715642,1233.115732
11.4200,153.5498991,50.08635341,1232.847733
11.4250,154.3014978,49.67516045,1232.588913
11.4300,155.0425345,49.27327049,1232.339037
11.4350,155.7728703,48.88120819,1232.098165
11.4400,156.4928487,48.50020635,1231.866469
11.4450,157.2029383,48.13176857,1231.644309
11.4500,157.9038601,47.77522922,1231.431172
11.4550,158.5961309,47.43209437,1231.227271
11.4600,159.280417,47.10240759,1231.032431
11.4650,159.9570298,46.78630375,1230.846596
11.4700,160.6257127,46.48399689,1230.669885
11.4750,161.2885513,46.1943553,1230.501429
11.4800,161.9457237,45.91836971,1230.341528
11.4850,162.5986006,45.6547553,1230.189345
11.4900,163.2471066,45.40206709,1230.044458
11.4950,163.8918503,45.16048406,1229.906856
11.5000,164.5315043,44.926634,1229.775692
11.5050,165.1656216,44.69836327,1229.650386
11.5100,165.7931163,44.4732998,1229.530347
11.5150,166.4127709,44.25068301,1229.41547
11.5200,167.0212891,44.02727616,1229.305427
11.5250,167.6181367,43.80160297,1229.199771
11.5300,168.2033354,43.57401995,1229.098507
11.5350,168.7755064,43.34317926,1229.001416
11.5400,169.3340613,43.10697127,1228.907913
11.5450,169.8772903,42.86562991,1228.818323
11.5500,170.4063371,42.61803486,1228.731947
11.5550,170.9215636,42.36477385,1228.648812
11.5600,171.4227803,42.10503285,1228.568634
11.5650,171.9110015,41.83865255,1228.491035
11.5700,172.3874496,41.56531551,1228.41563
11.5750,172.8524929,41.28527911,1228.342348
11.5800,173.3064435,40.99728418,1228.270764
11.5850,173.7505661,40.69934232,1228.200027
11.5900,174.1823389,40.3909309,1228.130431
11.5950,174.6019051,40.07218498,1228.062174
11.6000,175.0096145,39.74277359,1227.995106
11.6050,175.4072604,39.40373467,1227.929149
11.6100,175.7956682,39.05653471,1227.864564
11.6150,176.1781535,38.70221148,1227.801103
11.6200,176.5549743,38.34116675,1227.738552
11.6250,176.9264492,37.97292547,1227.67663
11.6300,177.2954056,37.5991253,1227.615177
11.6350,177.662305,37.21826742,1227.553595
11.6400,178.0286615,36.83065974,1227.491598
11.6450,178.3937599,36.43749993,1227.429701
11.6500,178.7568136,36.03962435,1227.368373
11.6550,179.1177512,35.63622424,1227.307402
11.6600,179.4757644,35.22692796,1227.246775
11.6650,179.8306229,34.81275988,1227.1868
11.6700,180.1828581,34.39365704,1227.127249
11.6750,180.5348615,33.97143616,1227.068236
11.6800,180.8864887,33.5447756,1227.009393
11.6850,181.2377021,33.11471005,1226.95098
11.6900,181.5894426,32.68037041,1226.892611
11.6950,181.9421791,32.24379871,1226.834552
11.7000,182.2978582,31.80459579,1226.776188
11.7050,182.6561853,31.36451717,1226.717947
11.7100,183.0172368,30.92288934,1226.659581
11.7150,183.3799352,30.47945817,1226.601106
11.7200,183.746033,30.03491581,1226.54225
11.7250,184.1138915,29.58766915,1226.482854
11.7300,184.4838634,29.13899093,1226.42306
11.7350,184.8561247,28.68984104,1226.36295
11.7400,185.2310616,28.23967844,1226.302313
11.7450,185.6092108,27.78950568,1226.241243
11.7500,185.9894525,27.34072814,1226.180235
11.7550,186.3723667,26.89273739,1226.119106
11.7600,186.7586457,26.44733233,1226.05815
11.7650,187.1482244,26.00415963,1225.997204
11.7700,187.5422129,25.563734,1225.936084
11.7750,187.9396416,25.12791969,1225.875564
11.7800,188.3396696,24.69516582,1225.815383
11.7850,188.7412484,24.26653722,1225.75615
11.7900,189.1441296,23.84189173,1225.69792
11.7950,189.546857,23.41914395,1225.64039
11.8000,189.9488201,22.99918913,1225.584068
11.8050,190.3502595,22.5811435,1225.528725
11.8100,190.7487612,22.16525291,1225.475062
11.8150,191.1435121,21.75046039,1225.423069
11.8200,191.5347265,21.33664693,1225.372701
11.8250,191.9205021,20.92421351,1225.324466
11.8300,192.2990429,20.51147415,1225.278293
11.8350,192.6707725,20.09816696,1225.234082
11.8400,193.034339,19.68536172,1225.192203
11.8450,193.3910701,19.27282106,1225.152309
11.8500,193.7419983,18.86079912,1225.114243
11.8550,194.0864812,18.44889473,1225.077914
11.8600,194.4240503,18.0383823,1225.043616
11.8650,194.7532012,17.62970636,1225.011728
11.8700,195.0737581,17.22350318,1224.982397
11.8750,195.3859267,16.82150967,1224.955842
11.8800,195.6901388,16.42436837,1224.932028
11.8850,195.9855053,16.03421471,1224.911502
11.8900,196.2738059,15.65182349,1224.894165
11.8950,196.5548716,15.27684453,1224.879854
11.9000,196.8295669,14.90993128,1224.868737
11.9050,197.0977849,14.55060744,1224.860751
11.9100,197.3584113,14.1973228,1224.855883
11.9150,197.6111518,13.84965202,1224.85402
11.9200,197.8551855,13.50660274,1224.855271
11.9250,198.0909406,13.16909865,1224.859782
11.9300,198.3168269,12.83526726,1224.867417
11.9350,198.5326668,12.5049247,1224.878099
11.9400,198.7377947,12.17763253,1224.891892
11.9450,198.9338262,11.85262265,1224.908177
11.9500,199.1222731,11.5297468,1224.92653
11.9550,199.3037638,11.20982418,1224.946874
11.9600,199.4789104,10.8937851,1224.969348
11.9650,199.6498405,10.58234574,1224.993613
11.9700,199.8174645,10.27686163,1225.019838
11.9750,199.9834295,9.977002626,1225.047451
11.9800,200.1486973,9.684279489,1225.076653
11.9850,200.3152248,9.397402019,1225.106868
11.9900,200.4841204,9.117843448,1225.137983
11.9950,200.6563577,8.84558439,1225.16999
12.0000,200.8322644,8.581270985,1225.202955
12.0050,201.0122417,8.32436873,1225.236832
12.0100,201.1959614,8.074742384,1225.271553
12.0150,201.3840043,7.832641878,1225.307151
12.0200,201.5741857,7.59898634,1225.344098
12.0250,201.7678468,7.373316153,1225.382214
12.0300,201.9631754,7.156210131,1225.422014
12.0350,202.1602057,6.9473738,1225.463497
12.0400,202.3569831,6.746698406,1225.506818
12.0450,202.552651,6.553830843,1225.552097
12.0500,202.7466312,6.367269409,1225.599241
12.0550,202.9382605,6.18754322,1225.648408
12.0600,203.1256455,6.012330932,1225.69926
12.0650,203.3090655,5.841417393,1225.751815
12.0700,203.4864129,5.673491999,1225.806164
12.0750,203.6573107,5.506805895,1225.861961
12.0800,203.8214879,5.340872361,1225.91912
12.0850,203.9784218,5.174576985,1225.977544
12.0900,204.1274897,5.008058207,1226.037347
12.0950,204.2687988,4.842316564,1226.098742
12.1000,204.4011511,4.675614299,1226.161567
12.1050,204.5232772,4.507610232,1226.225934
12.1100,204.6354958,4.338632925,1226.291776
12.1150,204.7380487,4.169165237,1226.359069
12.1200,204.8319625,3.999761051,1226.427706
12.1250,204.9167773,3.829818501,1226.497576
12.1300,204.9932142,3.659975531,1226.568536
12.1350,205.0613397,3.489698851,1226.640525
12.1400,205.1205347,3.319075215,1226.713596
12.1450,205.1698831,3.147666784,1226.787871
12.1500,205.2074309,2.976087935,1226.863623
12.1550,205.2333451,2.803899273,1226.940763
12.1600,205.2485736,2.630414585,1227.019097
12.1650,205.2524185,2.454790528,1227.098555
12.1700,205.2451166,2.277579069,1227.179046
12.1750,205.2260082,2.095890747,1227.260308
12.1800,205.1947991,1.909719752,1227.342326
12.1850,205.1513298,1.717155617,1227.424743
12.1900,205.0967667,1.518793504,1227.507622
12.1950,205.0315713,1.312793612,1227.590554
12.2000,204.9569058,1.098459271,1227.673119
12.2050,204.8734558,0.8758205259,1227.755287
12.2100,204.7827032,0.6460796779,1227.836979
12.2150,204.6861281,0.4092821302,1227.918081
12.2200,204.5873002,0.1668460265,1227.998305
12.2250,204.4871335,-0.08009820449,1228.077868
12.2300,204.3891882,-0.3305831596,1228.156365
12.2350,204.2960016,-0.5815763223,1228.23405
12.2400,204.210117,-0.8324072182,1228.310595
12.2450,204.1333808,-1.08039648,1228.386259
12.2500,204.0677602,-1.323741434,1228.461042
12.2550,204.0143281,-1.561418111,1228.534901
12.2600,203.9754131,-1.79153299,1228.607755
12.2650,203.9504797,-2.013528776,1228.679652
12.2700,203.93975,-2.227139536,1228.750512
12.2750,203.9426204,-2.43322118,1228.82036
12.2800,203.959265,-2.630045058,1228.88934
12.2850,203.9888632,-2.816686094,1228.957693
12.2900,204.0298122,-2.993546213,1229.025595
12.2950,204.0808138,-3.161593456,1229.093036
12.3000,204.1396955,-3.321272789,1229.160316
12.3050,204.2047992,-3.473035246,1229.227435
12.3100,204.2747776,-3.617449116,1229.294649
12.3150,204.3463318,-3.756739377,1229.362081
12.3200,204.4185214,-3.891009354,1229.429925
12.3250,204.4896362,-4.02185956,1229.498158
12.3300,204.5575157,-4.150272416,1229.567012
12.3350,204.6200927,-4.277011446,1229.636645
12.3400,204.6770187,-4.402573983,1229.707196
12.3450,204.7264202,-4.528421496,1229.778704
12.3500,204.7671922,-4.653798181,1229.851372
12.3550,204.7993776,-4.779121239,1229.925128
12.3600,204.8218242,-4.903754006,1230.000419
12.3650,204.8352707,-5.026900215,1230.07718
12.3700,204.841852,-5.148953672,1230.155135
12.3750,204.8415699,-5.26943977,1230.234305
12.3800,204.8358597,-5.386989246,1230.3147
12.3850,204.825268,-5.501020344,1230.396261
12.3900,204.8101635,-5.611373111,1230.478985
12.3950,204.7907449,-5.718337694,1230.562725
12.4000,204.7681127,-5.820657207,1230.647494
12.4050,204.7427611,-5.917092192,1230.733407
12.4100,204.7146382,-6.007634457,1230.820442
12.4150,204.6825804,-6.093261086,1230.908676
12.4200,204.6460455,-6.173958961,1230.998224
12.4250,204.6043564,-6.250139511,1231.089132
12.4300,204.5571225,-6.32188696,1231.181462
12.4350,204.5034324,-6.389285261,1231.275254
12.4400,204.4443394,-6.453365221,1231.37016
12.4450,204.3799474,-6.514247498,1231.46607
12.4500,204.3112284,-6.573086719,1231.56285
12.4550,204.2385571,-6.630562077,1231.660195
12.4600,204.1612071,-6.686732854,1231.758158
12.4650,204.0815565,-6.7425039,1231.856173
12.4700,203.9992587,-6.798853742,1231.954117
12.4750,203.9164822,-6.855385204,1232.051726
12.4800,203.8341381,-6.912209424,1232.148774
12.4850,203.7531024,-6.969035612,1232.245185
12.4900,203.6741059,-7.027525036,1232.340482
12.4950,203.5974153,-7.086695442,1232.434643
12.5000,203.524283,-7.146985397,1232.527452
12.5050,203.45434,-7.209316275,1232.618806
12.5100,203.3889498,-7.27384363,1232.708493
12.5150,203.3267748,-7.340656996,1232.796744
12.5200,203.2668657,-7.410181962,1232.88364
12.5250,203.2087531,-7.482230767,1232.96919
12.5300,203.152111,-7.555415563,1233.053748
12.5350,203.0951756,-7.630314254,1233.137472
12.5400,203.0371046,-7.705917953,1233.220633
12.5450,202.9771054,-7.781740247,1233.303484
12.5500,202.9134679,-7.85779971,1233.386315
12.5550,202.8456938,-7.934216561,1233.469263
12.5600,202.7726608,-8.0110233,1233.552395
12.5650,202.6927607,-8.088000257,1233.63609
12.5700,202.6049941,-8.164922363,1233.720521
12.5750,202.5105921,-8.239124871,1233.805845
12.5800,202.4106272,-8.31104005,1233.891878
12.5850,202.3050877,-8.379723714,1233.978672
12.5900,202.1951817,-8.444059206,1234.066244
12.5950,202.0807113,-8.504112695,1234.154565
12.6000,201.9620329,-8.559418269,1234.243529
12.6050,201.8394898,-8.611949759,1234.332831
12.6100,201.71306,-8.662220823,1234.422331
12.6150,201.5851808,-8.709705992,1234.511567
12.6200,201.4564905,-8.755022173,1234.60034
12.6250,201.3292704,-8.798590128,1234.68813
12.6300,201.2068857,-8.840413337,1234.774241
12.6350,201.0906122,-8.881469139,1234.858273
12.6400,200.9812207,-8.92176711,1234.940021
12.6450,200.8808323,-8.960197086,1235.019253
12.6500,200.7902001,-8.998455569,1235.095639
12.6550,200.7086236,-9.034714861,1235.169517
12.6600,200.6364777,-9.068103005,1235.24089
12.6650,200.5729603,-9.097635563,1235.310142
12.6700,200.5173839,-9.121313909,1235.37757
12.6750,200.4703955,-9.137081195,1235.443399
12.6800,200.4319213,-9.145780521,1235.507582
12.6850,200.4017563,-9.144960163,1235.570372
12.6900,200.3788,-9.134544047,1235.632007
12.6950,200.3616115,-9.114577384,1235.692765
12.7000,200.3496792,-9.085595986,1235.752545
12.7050,200.3426224,-9.047758532,1235.811499
12.7100,200.3405062,-9.00223289,1235.869455
12.7150,200.3443251,-8.948712429,1235.926246
12.7200,200.3547968,-8.887128512,1235.981786
12.7250,200.3733099,-8.81813657,1236.035791
12.7300,199.4125007,-7.636559448,1236.811119
12.7350,199.6475435,-7.65958683,1236.742857
12.7400,199.8850198,-7.679027642,1236.676793
12.7450,200.1261087,-7.694628568,1236.612861
12.7500,200.370481,-7.706245075,1236.551148
12.7550,200.6191985,-7.714159178,1236.491423
12.7600,200.8731631,-7.71894262,1236.433638
12.7650,201.1327907,-7.720002901,1236.377675
12.7700,201.3987279,-7.718269624,1236.323462
12.7750,201.6702946,-7.713601081,1236.271025
12.7800,201.9472427,-7.706596637,1236.220114
12.7850,202.2295751,-7.697154446,1236.170756
12.7900,202.5166558,-7.685860487,1236.122706
12.7950,202.8085865,-7.672134751,1236.076005
12.8000,203.1036344,-7.655757274,1236.030492
12.8050,203.4010845,-7.636838005,1235.986211
12.8100,203.7002588,-7.615384105,1235.942994
12.8150,204.0010516,-7.591067464,1235.900981
12.8200,204.3017249,-7.563790758,1235.860028
12.8250,203.1126677,-6.618742722,1236.708385
12.8300,203.3150914,-6.498466035,1236.73215
12.8350,203.514442,-6.379952812,1236.756265
12.8400,203.7105026,-6.263641304,1236.780734
12.8450,203.9009067,-6.151355016,1236.805503
12.8500,204.0872601,-6.042033371,1236.830439
12.8550,204.2679888,-5.936221365,1236.855612
12.8600,204.4436441,-5.833613098,1236.880891
12.8650,204.6167242,-5.735048165,1236.905668
12.8700,204.7884933,-5.640430362,1236.929771
12.8750,204.9575235,-5.550460572,1236.953133
12.8800,205.1217765,-5.465333494,1236.975883
12.8850,205.280961,-5.386759554,1236.997735
12.8900,205.4345444,-5.314924571,1237.018681
12.8950,205.5830307,-5.249669239,1237.038581
12.9000,205.726471,-5.191259601,1237.05736
12.9050,205.8653141,-5.138501996,1237.075085
12.9100,205.9991444,-5.090871553,1237.091803
12.9150,206.1258466,-5.047773624,1237.107926
12.9200,206.2450227,-5.009024277,1237.123407
12.9250,206.3539154,-4.974005126,1237.138639
12.9300,206.4495854,-4.943508109,1237.153896
12.9350,206.5306659,-4.915902156,1237.169631
12.9400,206.5955864,-4.891906298,1237.185833
12.9450,206.6427437,-4.871688508,1237.202664
12.9500,206.6712383,-4.854043687,1237.220367
12.9550,206.681012,-4.839229975,1237.238915
12.9600,206.6725283,-4.827499795,1237.258103
12.9650,206.6442263,-4.819612594,1237.277986
12.9700,206.5956174,-4.815901585,1237.298559
12.9750,206.5256152,-4.81718684,1237.319839
12.9800,206.4328747,-4.821909991,1237.342206
12.9850,206.3177054,-4.832389034,1237.365425
12.9900,206.1798897,-4.848640863,1237.389412
12.9950,206.0209705,-4.869613537,1237.414214
13.0000,205.8416333,-4.894999723,1237.439913
13.0050,205.6426547,-4.924656987,1237.466323
13.0100,205.4249728,-4.957755556,1237.493517
13.0150,205.1898332,-4.993958464,1237.521458
13.0200,204.9364489,-5.033760492,1237.550219
13.0250,204.6671631,-5.076349757,1237.57962
13.0300,204.3825566,-5.123378603,1237.609321
13.0350,204.0835477,-5.17449889,1237.639362
13.0400,203.7714038,-5.22994918,1237.669601
13.0450,203.4473948,-5.291340807,1237.699551
13.0500,203.1129019,-5.358029748,1237.729125
13.0550,202.769742,-5.43036215,1237.758085
13.0600,202.4178512,-5.507169622,1237.786627
13.0650,202.0577033,-5.589359669,1237.814514
13.0700,201.691582,-5.675862645,1237.841718
13.0750,201.3226105,-5.767291777,1237.867628
13.0800,200.954196,-5.862710346,1237.891841
13.0850,200.5896524,-5.962697501,1237.913709
13.0900,200.2322567,-6.06583544,1237.932979
13.0950,199.8837155,-6.172643621,1237.949206
13.1000,199.5463051,-6.282959496,1237.961927
13.1050,199.2217576,-6.397130756,1237.970875
13.1100,198.9103396,-6.515782625,1237.975872
13.1150,198.6118926,-6.638856899,1237.977031
13.1200,198.3285775,-6.767737984,1237.973829
13.1250,198.0606204,-6.903087729,1237.966114
13.1300,197.8079699,-7.043988872,1237.95415
13.1350,197.5703954,-7.190720763,1237.937968
13.1400,197.3470493,-7.343043866,1237.917735
13.1450,197.1384944,-7.498603917,1237.893836
13.1500,196.9433576,-7.657871687,1237.866543
13.1550,196.7610452,-7.818865153,1237.836368
13.1600,196.589457,-7.979942619,1237.803985
13.1650,196.4264355,-8.140043731,1237.770017
13.1700,196.2693962,-8.296965505,1237.735317
13.1750,196.1148382,-8.449599192,1237.70071
13.1800,195.9619922,-8.596718017,1237.66657
13.1850,195.8081199,-8.73711663,1237.6337
13.1900,195.6505831,-8.86879655,1237.602805
13.1950,195.4869762,-8.990667536,1237.5745
13.2000,195.316214,-9.101946622,1237.549015
13.2050,195.1351842,-9.203073491,1237.526775
13.2100,194.9441957,-9.293215271,1237.5078
13.2150,194.7420982,-9.372847432,1237.492163
13.2200,194.5280563,-9.443158079,1237.479738
13.2250,194.3032542,-9.504757051,1237.470166
13.2300,194.0673527,-9.558367426,1237.463266
13.2350,193.8220712,-9.606610208,1237.45825
13.2400,193.5684232,-9.649658361,1237.454832
13.2450,193.3064045,-9.688915884,1237.452605
13.2500,193.0380469,-9.725285479,1237.451027
13.2550,192.7635291,-9.760600907,1237.449633
13.2600,192.4842806,-9.795169698,1237.448113
13.2650,192.2027507,-9.83001412,1237.445667
13.2700,191.9207666,-9.865449445,1237.441921
13.2750,191.6393326,-9.902098429,1237.436396
13.2800,191.360806,-9.941841895,1237.42842
13.2850,191.0860083,-9.983926737,1237.417751
13.2900,190.8159631,-10.02745089,1237.404405
13.2950,190.5507855,-10.07251205,1237.388249
13.3000,190.2908566,-10.1199673,1237.369064
13.3050,190.0362505,-10.16985227,1237.34686
13.3100,189.7871457,-10.22214017,1237.32161
13.3150,189.5430407,-10.27736075,1237.293365
13.3200,189.304828,-10.33605321,1237.261798
13.3250,189.0711129,-10.3988544,1237.227123
13.3300,188.8414577,-10.46494451,1237.189505
13.3350,188.6159884,-10.5350712,1237.148827
13.3400,188.394204,-10.609967,1237.104985
13.3450,188.1767696,-10.688462,1237.058042
13.3500,187.9651674,-10.77269393,1237.007341
13.3550,187.7596997,-10.86145459,1236.952967
13.3600,187.5639926,-10.95671013,1236.893833
13.3650,187.3800424,-11.05954392,1236.829329
13.3700,187.2085573,-11.17051672,1236.759033
13.3750,187.0509348,-11.28954096,1236.682594
13.3800,186.908254,-11.41697445,1236.599609
13.3850,186.7823855,-11.55170418,1236.509674
13.3900,186.6746871,-11.6950321,1236.412138
13.3950,186.5866636,-11.84587271,1236.306851
13.4000,186.521983,-12.00603449,1236.192845
13.4050,186.482806,-12.17445073,1236.069703
13.4100,186.4711336,-12.35165229,1235.936918
13.4150,186.4886086,-12.5367733,1235.79422
13.4200,186.534931,-12.73002702,1235.641597
13.4250,186.6117538,-12.93003935,1235.478908
13.4300,186.7182772,-13.13597491,1235.306292
13.4350,186.8563091,-13.34802255,1235.123479
13.4400,187.0253777,-13.56484155,1234.930763
13.4450,187.2265201,-13.78704373,1234.727883
13.4500,187.4583678,-14.01381005,1234.515274
13.4550,187.7222424,-14.24510974,1234.292689
13.4600,188.0189134,-14.48035616,1234.060284
13.4650,188.3478569,-14.7194363,1233.818233
13.4700,188.7113165,-14.96238832,1233.56613
13.4750,189.11022,-15.20832966,1233.304124
13.4800,189.5446947,-15.45787622,1233.032273
13.4850,190.0145559,-15.70904207,1232.750851
13.4900,190.5209534,-15.96319793,1232.459705
13.4950,191.0655241,-16.21924729,1232.158717
13.5000,191.6483667,-16.47662748,1231.848148
13.5050,192.2714735,-16.73263135,1231.528134
13.5100,192.933007,-16.98732215,1231.199184
13.5150,193.6343811,-17.23857772,1230.861648
13.5200,194.3749522,-17.48548716,1230.51604
13.5250,195.151659,-17.72684782,1230.163561
13.5300,195.9627196,-17.9610317,1229.805038
13.5350,196.8029376,-18.18719874,1229.44205
13.5400,197.6678694,-18.40410472,1229.075879
13.5450,198.5536321,-18.61142105,1228.707721
13.5500,199.4537294,-18.80848856,1228.339038
13.5550,200.3624565,-18.99508613,1227.971171
13.5600,201.2719746,-19.17165402,1227.605596
13.5650,202.1750374,-19.33799983,1227.243814
13.5700,203.0645168,-19.49443983,1226.886919
13.5750,203.9328941,-19.64130974,1226.536275
13.5800,204.773176,-19.77682495,1226.193075
13.5850,205.5786283,-19.90135498,1225.858238
13.5900,206.3438726,-20.01552011,1225.532334
13.5950,207.0650988,-20.11930939,1225.215855
13.6000,207.7393167,-20.21270167,1224.909088
13.6050,208.3614356,-20.29490282,1224.612577
13.6100,208.9295667,-20.36573553,1224.326415
13.6150,209.4408385,-20.42505655,1224.050736
13.6200,209.8941809,-20.47156612,1223.785584
13.6250,210.2894249,-20.50513198,1223.53081
13.6300,210.6276655,-20.52445049,1223.286132
13.6350,210.9106914,-20.52747458,1223.051346
13.6400,211.1405905,-20.51203938,1222.826327
13.6450,211.3203056,-20.47765956,1222.610674
13.6500,211.4532949,-20.42138209,1222.404168
13.6550,211.5430431,-20.34277797,1222.206356
13.6600,211.5921046,-20.2404698,1222.01707
13.6650,211.6040804,-20.11153989,1221.836199
13.6700,211.583629,-19.95474729,1221.66346
13.6750,211.5328908,-19.77038258,1221.498624
13.6800,211.4543255,-19.55904902,1221.341448
13.6850,211.3494231,-19.32174799,1221.191816
13.6900,211.2206784,-19.05758535,1221.049501
13.6950,211.0708693,-18.76880481,1220.913938
13.7000,210.9015412,-18.45409327,1220.785089
13.7050,210.7139271,-18.11487095,1220.662666
13.7100,210.5109027,-17.75057255,1220.546423
13.7150,210.295042,-17.36318825,1220.435823
13.7200,210.0697085,-16.9529289,1220.33035
13.7250,209.8371326,-16.5221038,1220.229521
13.7300,209.5993267,-16.073077,1220.132868
13.7350,209.3585844,-15.60652931,1220.040012
13.7400,209.1166218,-15.12465248,1219.950516
13.7450,208.874694,-14.62905589,1219.86404
13.7500,208.6342557,-14.12223958,1219.780098
13.7550,208.3947313,-13.60518491,1219.698673
13.7600,208.1564615,-13.0807558,1219.619309
13.7650,207.9213036,-12.54851538,1219.541985
13.7700,207.6883494,-12.00965459,1219.466735
13.7750,207.459432,-11.4640813,1219.393333
13.7800,207.2345072,-10.91169682,1219.322007
13.7850,207.0136574,-10.3540055,1219.252741
13.7900,206.7969399,-9.790879439,1219.185611
13.7950,206.58244,-9.222475464,1219.121021
13.8000,206.3690503,-8.649304485,1219.059112
