type,name,time_units,begin_time,frequency,count,units
signal_3d,"Noraxon MyoMotion-Trajectories-Body center of mass","s",0.0000,200,5068,"mm"

time,x,y,z
0.0000,0.1572637576,18.0413789,1075.466704
0.0050,0.15852573,18.04214169,1075.466575
0.0100,0.1597875761,18.04290468,1075.466446
0.0150,0.161049296,18.04366788,1075.466318
0.0200,0.1626620227,18.04441952,1075.466123
0.0250,0.164666462,18.04514204,1075.465851
0.0300,0.1671019272,18.04581792,1075.465493
0.0350,0.170005067,18.04643079,1075.46504
0.0400,0.1734083893,18.04696624,1075.464484
0.0450,0.1773388657,18.04741243,1075.463821
0.0500,0.1818169591,18.04776058,1075.463044
0.0550,0.1868560207,18.04800535,1075.462153
0.0600,0.1924617285,18.04814463,1075.461148
0.0650,0.1986314604,18.04817917,1075.460029
0.0700,0.2053537891,18.04811249,1075.458801
0.0750,0.2126081711,18.04795094,1075.45747
0.0800,0.2203647196,18.04770365,1075.456044
0.0850,0.2285841196,18.04738247,1075.454534
0.0900,0.2372179452,18.04700192,1075.452951
0.0950,0.2462094004,18.0465789,1075.45131
0.1000,0.2554942345,18.04613213,1075.449625
0.1050,0.26500178,18.04568183,1075.447913
0.1100,0.2746560995,18.04524943,1075.446192
0.1150,0.2843770955,18.04485705,1075.444479
0.1200,0.2940816847,18.04452691,1075.442794
0.1250,0.3036851993,18.04428065,1075.441153
0.1300,0.3131029445,18.04413867,1075.439574
0.1350,0.32225183,18.04411943,1075.438074
0.1400,0.3310520934,18.04423872,1075.436669
0.1450,0.339429095,18.04450891,1075.435371
0.1500,0.3473150417,18.04493851,1075.434192
0.1550,0.3572251098,18.04552359,1075.432716
0.1600,0.3664118392,18.04621254,1075.431383
0.1650,0.3748031986,18.0470106,1075.430211
0.1700,0.3823824728,18.04787554,1075.429189
0.1750,0.3891248995,18.04882743,1075.428323
0.1800,0.3950238017,18.04981437,1075.427603
0.1850,0.4001013726,18.05082554,1075.427019
0.1900,0.404337965,18.05187647,1075.426577
0.1950,0.4077111092,18.05289446,1075.426268
0.2000,0.4102381443,18.05384243,1075.426079
0.2050,0.4119145486,18.05470823,1075.426008
0.2100,0.4127865705,18.0554913,1075.426049
0.2150,0.4128689393,18.05612355,1075.426185
0.2200,0.4121647244,18.05655483,1075.426406
0.2250,0.4107278731,18.05678835,1075.426706
0.2300,0.4085798587,18.05680592,1075.427078
0.2350,0.4057593949,18.05656913,1075.42751
0.2400,0.4022688659,18.05611111,1075.428007
0.2450,0.3981497826,18.05545897,1075.428569
0.2500,0.3934471729,18.05457296,1075.42918
0.2550,0.388134921,18.05345523,1075.42985
0.2600,0.3823637525,18.05217741,1075.430565
0.2650,0.3761460691,18.05072222,1075.431323
0.2700,0.3695227648,18.04911072,1075.432122
0.2750,0.3625314159,18.04738157,1075.432965
0.2800,0.3552443578,18.04552725,1075.433838
0.2850,0.3477147776,18.04360091,1075.434745
0.2900,0.3399639639,18.04162961,1075.435689
0.2950,0.332114376,18.03963442,1075.436651
0.3000,0.3242416602,18.03761069,1075.437619
0.3050,0.3163324455,18.03557152,1075.438597
0.3100,0.3084994015,18.0335807,1075.439577
0.3150,0.3007993885,18.03162691,1075.440546
0.3200,0.293311702,18.02969687,1075.44149
0.3250,0.2860766817,18.02781207,1075.442405
0.3300,0.2791019335,18.02593626,1075.443283
0.3350,0.2724308953,18.02412481,1075.444127
0.3400,0.2661266769,18.02231953,1075.444913
0.3450,0.2601830464,18.02057107,1075.445649
0.3500,0.254659901,18.01890667,1075.44633
0.3550,0.2494993491,18.01727341,1075.446955
0.3600,0.2447108616,18.01566656,1075.447523
0.3650,0.240277671,18.01412377,1075.44804
0.3700,0.2361986874,18.01263313,1075.448506
0.3750,0.2324387305,18.0111962,1075.448922
0.3800,0.2289822251,18.00980393,1075.449291
0.3850,0.2258143312,18.00848861,1075.449619
0.3900,0.222862182,18.00724524,1075.44992
0.3950,0.2201438995,18.00602559,1075.450177
0.4000,0.2175787045,18.00486788,1075.450414
0.4050,0.2151800166,18.003741,1075.450622
0.4100,0.2129311198,18.00262881,1075.4508
0.4150,0.2108012398,18.00152207,1075.450951
0.4200,0.2087915189,18.00044136,1075.451079
0.4250,0.206869006,17.99935628,1075.451186
0.4300,0.2050380527,17.99823135,1075.451265
0.4350,0.2032866087,17.9970924,1075.451322
0.4400,0.2016423692,17.99586658,1075.45134
0.4450,0.2000753583,17.99454136,1075.451324
0.4500,0.1985862121,17.99313845,1075.451276
0.4550,0.1971837183,17.99163456,1075.451191
0.4600,0.1958895088,17.98995615,1075.451055
0.4650,0.1946554804,17.98810002,1075.450875
0.4700,0.1934953747,17.9861107,1075.450658
0.4750,0.1923849365,17.98392304,1075.450399
0.4800,0.1913351246,17.98157633,1075.4501
0.4850,0.1903042557,17.97907289,1075.44977
0.4900,0.189324015,17.97640949,1075.449404
0.4950,0.1883730787,17.97364043,1075.449014
0.5000,0.1874356218,17.97075276,1075.448602
0.5050,0.1865123152,17.96778645,1075.448175
0.5100,0.185611592,17.96471051,1075.447724
0.5150,0.1846954433,17.96152495,1075.44726
0.5200,0.1838283969,17.9582572,1075.446772
0.5250,0.1829969216,17.95490658,1075.446262
0.5300,0.1822602495,17.95148742,1075.445723
0.5350,0.1815895587,17.94801665,1075.445164
0.5400,0.1810084684,17.94451039,1075.444584
0.5450,0.1805076233,17.94094678,1075.44398
0.5500,0.180137164,17.9373224,1075.443345
0.5550,0.1799154667,17.93371336,1075.442686
0.5600,0.1797969,17.93005853,1075.442003
0.5650,0.1797751232,17.92638429,1075.441301
0.5700,0.1798383441,17.92270791,1075.440585
0.5750,0.1800545135,17.91903942,1075.439846
0.5800,0.1804000478,17.91541179,1075.439091
0.5850,0.1808774059,17.91178416,1075.438315
0.5900,0.1815313744,17.9081817,1075.437512
0.5950,0.182334177,17.90460755,1075.436686
0.6000,0.1832617613,17.90110544,1075.435852
0.6050,0.1843812564,17.89767053,1075.434995
0.6100,0.1856769053,17.89428977,1075.434114
0.6150,0.1871576966,17.89097483,1075.433212
0.6200,0.1888216067,17.88771797,1075.432285
0.6250,0.1906876671,17.88453862,1075.431333
0.6300,0.1927592906,17.88141025,1075.430352
0.6350,0.1950358081,17.87834921,1075.429339
0.6400,0.1975125563,17.87535575,1075.4283
0.6450,0.200218148,17.87241431,1075.427226
0.6500,0.203079311,17.86946435,1075.426119
0.6550,0.2061276324,17.86657352,1075.424983
0.6600,0.2093622984,17.86369473,1075.423813
0.6650,0.2127480411,17.86082691,1075.422614
0.6700,0.2162561497,17.85794444,1075.421392
0.6750,0.2198583643,17.85504084,1075.420149
0.6800,0.22352534,17.85209909,1075.418889
0.6850,0.2272614621,17.84908053,1075.417606
0.6900,0.2310301066,17.84597826,1075.416305
0.6950,0.2347876166,17.84276436,1075.414995
0.7000,0.2384953057,17.83942972,1075.413678
0.7050,0.242113746,17.83600783,1075.412369
0.7100,0.2456222549,17.83244688,1075.411066
0.7150,0.2490018681,17.82876872,1075.409773
0.7200,0.2522114172,17.82492238,1075.408492
0.7250,0.2552678617,17.82092619,1075.407222
0.7300,0.2581149367,17.81681126,1075.405977
0.7350,0.2607701577,17.81254523,1075.404751
0.7400,0.2631546857,17.80814493,1075.40356
0.7450,0.2653327722,17.80362305,1075.402394
0.7500,0.2672520087,17.79895511,1075.401257
0.7550,0.2689007496,17.79416189,1075.400156
0.7600,0.2702736763,17.78929564,1075.3991
0.7650,0.2714192512,17.78436005,1075.398077
0.7700,0.2723215482,17.77935055,1075.39709
0.7750,0.2729841121,17.77431812,1075.396145
0.7800,0.273409005,17.76926152,1075.395241
0.7850,0.2736204559,17.76418495,1075.394375
0.7900,0.2736104047,17.75908618,1075.393546
0.7950,0.2734001862,17.75395639,1075.392747
0.8000,0.2730217971,17.74880607,1075.391975
0.8050,0.2724981474,17.74367342,1075.391232
0.8100,0.2718361173,17.73857834,1075.390519
0.8150,0.2710918387,17.73354319,1075.389829
0.8200,0.2702137657,17.72856247,1075.389171
0.8250,0.2692051985,17.72367068,1075.388549
0.8300,0.2680246078,17.71886108,1075.387969
0.8350,0.2667033848,17.71414215,1075.387428
0.8400,0.2652576432,17.70948846,1075.386918
0.8450,0.2636826208,17.70496651,1075.386454
0.8500,0.2619737163,17.7005459,1075.386029
0.8550,0.260105091,17.69625178,1075.385653
0.8600,0.2580740555,17.69208349,1075.385326
0.8650,0.2559030378,17.68807367,1075.385053
0.8700,0.2536091563,17.6842292,1075.384827
0.8750,0.2511353846,17.68053747,1075.384658
0.8800,0.2484804366,17.67704988,1075.384553
0.8850,0.2456866018,17.67377643,1075.384507
0.8900,0.2427161137,17.67071794,1075.384527
0.8950,0.2395681056,17.66786823,1075.384614
0.9000,0.2362713483,17.66519673,1075.384757
0.9050,0.2328558245,17.66270439,1075.384952
0.9100,0.2292953212,17.66037718,1075.385202
0.9150,0.2256206844,17.65822874,1075.385502
0.9200,0.2218577,17.65627662,1075.385849
0.9250,0.2180515211,17.65451202,1075.386235
0.9300,0.2142190873,17.65295816,1075.386657
0.9350,0.2103983094,17.65157071,1075.387107
0.9400,0.2065968309,17.65038496,1075.387585
0.9450,0.2028881915,17.64939154,1075.388078
0.9500,0.1992912382,17.6485925,1075.388581
0.9550,0.195773749,17.64794762,1075.389098
0.9600,0.1923805077,17.64749367,1075.389621
0.9650,0.1891210514,17.64720535,1075.390147
0.9700,0.1859851472,17.64708711,1075.390678
0.9750,0.1829217959,17.64712059,1075.391222
0.9800,0.1799518282,17.64731159,1075.391775
0.9850,0.1769773539,17.64769707,1075.392362
0.9900,0.1740080438,17.64825646,1075.392977
0.9950,0.1710153652,17.64901668,1075.393629
1.0000,0.1679617047,17.64995085,1075.394324
1.0050,0.1648192995,17.65107245,1075.395068
1.0100,0.1616139199,17.65237035,1075.395854
1.0150,0.1582599615,17.65382685,1075.396699
1.0200,0.1547975037,17.65548337,1075.397603
1.0250,0.1511918858,17.65730066,1075.39857
1.0300,0.1474668922,17.65917478,1075.399579
1.0350,0.1435834559,17.66113279,1075.400645
1.0400,0.1396050075,17.66315385,1075.401758
1.0450,0.1354797319,17.66516656,1075.402919
1.0500,0.13124668,17.66715329,1075.404119
1.0550,0.1269037712,17.66906088,1075.405357
1.0600,0.1224983731,17.67090338,1075.406626
1.0650,0.1179857898,17.67260458,1075.407928
1.0700,0.1134318448,17.67417374,1075.409252
1.0750,0.1088536286,17.67557424,1075.410593
1.0800,0.1042402915,17.67678487,1075.411954
1.0850,0.09961624995,17.67778575,1075.413328
1.0900,0.09498205137,17.6785681,1075.414717
1.0950,0.09032654403,17.6791238,1075.416124
1.1000,0.0856197471,17.67947499,1075.417561
1.1050,0.08086921117,17.67956094,1075.419019
1.1100,0.07604199682,17.67939948,1075.420508
1.1150,0.07113116156,17.67902162,1075.42204
1.1200,0.06616833523,17.67841319,1075.423605
1.1250,0.06108324228,17.67755821,1075.425221
1.1300,0.05590263404,17.67645269,1075.426881
1.1350,0.05059761436,17.6750973,1075.428592
1.1400,0.04514986803,17.67349892,1075.43036
1.1450,0.03956452486,17.67163396,1075.432182
1.1500,0.0338437446,17.66954592,1075.434068
1.1550,0.02799130288,17.66716792,1075.436008
1.1600,0.02202471396,17.66451662,1075.438001
1.1650,0.01593395093,17.66162431,1075.440057
1.1700,0.00974178841,17.65848417,1075.442175
1.1750,0.003450735511,17.65510125,1075.444355
1.1800,-0.002942444109,17.65142383,1075.446592
1.1850,-0.009437663576,17.64748507,1075.448893
1.1900,-0.01604283739,17.6432769,1075.451261
1.1950,-0.02272070031,17.63884548,1075.453698
1.2000,-0.02947862721,17.6341651,1075.456202
1.2050,-0.03630174702,17.62930257,1075.458781
1.2100,-0.04316486937,17.6242751,1075.461433
1.2150,-0.05009396358,17.61910123,1075.46417
1.2200,-0.05708792154,17.61379567,1075.466994
1.2250,-0.0642300951,17.60834709,1075.469918
1.2300,-0.07143962239,17.60284704,1075.472945
1.2350,-0.07877292774,17.59727982,1075.476083
1.2400,-0.08622369029,17.59164543,1075.479336
1.2450,-0.0938955324,17.58596681,1075.482724
1.2500,-0.101751475,17.58029165,1075.486252
1.2550,-0.1098142583,17.57461416,1075.489925
1.2600,-0.1181180083,17.56892735,1075.493752
1.2650,-0.1266535175,17.563293,1075.497741
1.2700,-0.1354749456,17.55770677,1075.501901
1.2750,-0.1445274167,17.5522262,1075.506238
1.2800,-0.1538026853,17.54685742,1075.51075
1.2850,-0.1633057365,17.54159374,1075.515442
1.2900,-0.1730271209,17.53644658,1075.520322
1.2950,-0.1829967926,17.53140887,1075.525395
1.3000,-0.1931956502,17.52649686,1075.530666
1.3050,-0.2036501889,17.52168763,1075.536141
1.3100,-0.2143891793,17.51698768,1075.541831
1.3150,-0.2253819365,17.51236819,1075.54773
1.3200,-0.2366697927,17.50783275,1075.553846
1.3250,-0.2482495974,17.50338979,1075.560182
1.3300,-0.2601325379,17.49910527,1075.566754
1.3350,-0.2723034649,17.49491383,1075.573554
1.3400,-0.2847772947,17.49083492,1075.580589
1.3450,-0.297536714,17.48689677,1075.587865
1.3500,-0.3105758496,17.48307124,1075.595381
1.3550,-0.3238525188,17.47945091,1075.603139
1.3600,-0.337379001,17.47595644,1075.611136
1.3650,-0.351114969,17.47266799,1075.619374
1.3700,-0.3650733869,17.46955524,1075.627858
1.3750,-0.3792082724,17.46666857,1075.636591
1.3800,-0.3935499084,17.46402485,1075.645578
1.3850,-0.40805209,17.46162774,1075.654813
1.3900,-0.4227196602,17.459482,1075.664304
1.3950,-0.4375416844,17.45760463,1075.67405
1.4000,-0.4525154576,17.45599027,1075.684051
1.4050,-0.4676320805,17.45464189,1075.694303
1.4100,-0.482899225,17.4535983,1075.704813
1.4150,-0.4983386772,17.45278753,1075.715572
1.4200,-0.5140013255,17.45224791,1075.726594
1.4250,-0.5298208026,17.45200963,1075.737863
1.4300,-0.545817394,17.45203245,1075.74938
1.4350,-0.561996964,17.45235822,1075.761146
1.4400,-0.5783955874,17.45294972,1075.773166
1.4450,-0.5949888776,17.45382686,1075.785439
1.4500,-0.6118033469,17.45498724,1075.797955
1.4550,-0.6288751857,17.45645252,1075.810729
1.4600,-0.6461773837,17.45821891,1075.823759
1.4650,-0.6637179253,17.46024221,1075.837035
1.4700,-0.6815043971,17.46250907,1075.850556
1.4750,-0.6995437033,17.46500092,1075.864322
1.4800,-0.7178557374,17.46773208,1075.878345
1.4850,-0.7364308246,17.47067897,1075.892622
1.4900,-0.7552544454,17.4738752,1075.907152
1.4950,-0.7743319107,17.47725541,1075.921919
1.5000,-0.7936369863,17.48086681,1075.936936
1.5050,-0.8131860163,17.48470314,1075.952208
1.5100,-0.8329785062,17.48876814,1075.967729
1.5150,-0.8529937416,17.4930917,1075.983509
1.5200,-0.8732391513,17.49765728,1075.999547
1.5250,-0.8936529227,17.50252091,1076.015847
1.5300,-0.9142727997,17.50757816,1076.032409
1.5350,-0.9351269528,17.51290126,1076.04925
1.5400,-0.9562131355,17.51849567,1076.066368
1.5450,-0.9774928863,17.52438478,1076.083768
1.5500,-0.9989465478,17.53054646,1076.101448
1.5550,-1.020567928,17.53703676,1076.119408
1.5600,-1.042335641,17.54383966,1076.137654
1.5650,-1.064254617,17.55094229,1076.15618
1.5700,-1.08629609,17.55832535,1076.174984
1.5750,-1.10843928,17.56596602,1076.194061
1.5800,-1.130734876,17.57385567,1076.21342
1.5850,-1.153144547,17.58197766,1076.233058
1.5900,-1.175690479,17.59035859,1076.252974
1.5950,-1.198314748,17.59896152,1076.27316
1.6000,-1.220959541,17.60783294,1076.293604
1.6050,-1.243597093,17.61694983,1076.31431
1.6100,-1.266244895,17.62634393,1076.335286
1.6150,-1.288813118,17.63605705,1076.356528
1.6200,-1.311315253,17.64601214,1076.378028
1.6250,-1.333733486,17.65627801,1076.399788
1.6300,-1.356043535,17.666845,1076.421814
1.6350,-1.378250728,17.67772056,1076.444092
1.6400,-1.400340895,17.68893069,1076.46663
1.6450,-1.422289419,17.7004823,1076.489416
1.6500,-1.444097446,17.71240671,1076.51245
1.6550,-1.465816648,17.72466997,1076.535748
1.6600,-1.487400643,17.7373012,1076.559297
1.6650,-1.508856924,17.75027261,1076.583094
1.6700,-1.530218995,17.76360605,1076.607152
1.6750,-1.551478294,17.77724607,1076.631463
1.6800,-1.572594797,17.79123104,1076.656019
1.6850,-1.593593929,17.80554602,1076.680832
1.6900,-1.61445863,17.82014577,1076.705887
1.6950,-1.635184772,17.83499128,1076.731186
1.7000,-1.655782675,17.8500518,1076.756717
1.7050,-1.676265921,17.86530742,1076.782485
1.7100,-1.696622797,17.88068436,1076.808465
1.7150,-1.716876137,17.89619707,1076.834666
1.7200,-1.736965765,17.91175324,1076.861062
1.7250,-1.756910389,17.92733205,1076.887648
1.7300,-1.776708202,17.94290566,1076.914423
1.7350,-1.796362146,17.9583739,1076.941369
1.7400,-1.815839605,17.97378785,1076.968483
1.7450,-1.835128502,17.98909534,1076.995751
1.7500,-1.854213941,18.00426192,1077.023177
1.7550,-1.873018233,18.01925003,1077.05074
1.7600,-1.891591528,18.03404477,1077.078444
1.7650,-1.909905964,18.04863224,1077.106285
1.7700,-1.927994536,18.06300712,1077.134257
1.7750,-1.945804188,18.07714868,1077.162365
1.7800,-1.963283832,18.09106477,1077.190593
1.7850,-1.980399049,18.10474637,1077.218942
1.7900,-1.997166072,18.11812164,1077.247408
1.7950,-2.013556589,18.13122173,1077.276007
1.8000,-2.029574996,18.14404778,1077.304725
1.8050,-2.045208733,18.15653528,1077.333563
1.8100,-2.060435086,18.16870947,1077.362532
1.8150,-2.075260079,18.18050587,1077.391612
1.8200,-2.089696009,18.19190892,1077.420802
1.8250,-2.1037911,18.2029066,1077.450103
1.8300,-2.117601001,18.21349731,1077.47952
1.8350,-2.131093016,18.22371167,1077.50906
1.8400,-2.144318313,18.23353208,1077.538724
1.8450,-2.15729971,18.24293674,1077.568509
1.8500,-2.17012424,18.25195572,1077.598429
1.8550,-2.182824202,18.26055673,1077.628484
1.8600,-2.195465065,18.26876397,1077.658669
1.8650,-2.208135656,18.27658796,1077.689005
1.8700,-2.220864335,18.28406546,1077.719496
1.8750,-2.233745004,18.29119263,1077.750153
1.8800,-2.246753887,18.29801466,1077.780975
1.8850,-2.259932829,18.30458157,1077.81196
1.8900,-2.27328748,18.31087691,1077.843109
1.8950,-2.286877235,18.31697725,1077.874451
1.9000,-2.300768429,18.32281774,1077.905972
1.9050,-2.314998605,18.32850152,1077.937678
1.9100,-2.329515121,18.33403601,1077.969567
1.9150,-2.344362287,18.3394149,1078.001627
1.9200,-2.359496317,18.34472803,1078.033863
1.9250,-2.374857026,18.34991764,1078.066253
1.9300,-2.390477291,18.3550037,1078.0988
1.9350,-2.406319432,18.36001965,1078.131512
1.9400,-2.422377228,18.36498853,1078.164382
1.9450,-2.438635979,18.36989619,1078.197398
1.9500,-2.455032254,18.37476203,1078.230549
1.9550,-2.471478061,18.37964147,1078.263817
1.9600,-2.488019697,18.38455038,1078.297225
1.9650,-2.504610084,18.38952038,1078.330768
1.9700,-2.521259739,18.39457278,1078.364444
1.9750,-2.538004774,18.39978767,1078.39827
1.9800,-2.554818781,18.40509669,1078.432221
1.9850,-2.571761274,18.41048625,1078.466291
1.9900,-2.588832756,18.41604292,1078.500494
1.9950,-2.606050189,18.42173204,1078.534818
2.0000,-2.623367981,18.42762779,1078.569268
2.0050,-2.640820506,18.43373463,1078.603846
2.0100,-2.658367058,18.44004286,1078.638554
2.0150,-2.675977869,18.44653087,1078.673369
2.0200,-2.693656366,18.45325882,1078.708305
2.0250,-2.711375646,18.46021722,1078.743369
2.0300,-2.729090843,18.46740024,1078.778527
2.0350,-2.746775594,18.47485548,1078.813804
2.0400,-2.764436854,18.48250526,1078.849179
2.0450,-2.782063159,18.4903161,1078.884651
2.0500,-2.799709119,18.49830435,1078.920214
2.0550,-2.817360882,18.50641007,1078.955855
2.0600,-2.834979765,18.51461671,1078.991559
2.0650,-2.852593003,18.52292109,1079.02733
2.0700,-2.870139792,18.53127411,1079.063156
2.0750,-2.887617611,18.53969752,1079.099032
2.0800,-2.90505791,18.54819256,1079.134963
2.0850,-2.922469946,18.55672478,1079.170947
2.0900,-2.939820615,18.56533473,1079.206993
2.0950,-2.957096064,18.5740345,1079.243104
2.1000,-2.974292634,18.58276204,1079.27927
2.1050,-2.991383983,18.59154212,1079.315493
2.1100,-3.00843337,18.60030725,1079.351759
2.1150,-3.025437869,18.60906996,1079.388076
2.1200,-3.042388867,18.61781239,1079.424449
2.1250,-3.059336148,18.62646518,1079.46087
2.1300,-3.076289339,18.63507377,1079.497336
2.1350,-3.093329529,18.64355786,1079.533831
2.1400,-3.110456764,18.65197223,1079.570364
2.1450,-3.127720295,18.66032268,1079.606938
2.1500,-3.145091754,18.66859268,1079.643554
2.1550,-3.162579089,18.6768276,1079.680202
2.1600,-3.180208571,18.68508643,1079.716905
2.1650,-3.197941233,18.69341543,1079.753655
2.1700,-3.215750245,18.7018289,1079.790436
2.1750,-3.23364593,18.71037492,1079.827255
2.1800,-3.251642134,18.71907044,1079.864117
2.1850,-3.269737116,18.72791972,1079.901024
2.1900,-3.287990391,18.73698671,1079.938006
2.1950,-3.306366227,18.74628911,1079.975038
2.2000,-3.324810788,18.75591452,1080.012146
2.2050,-3.343313379,18.76580036,1080.049336
2.2100,-3.361906066,18.77595219,1080.086595
2.2150,-3.380553611,18.78641837,1080.123941
2.2200,-3.399248148,18.79710374,1080.161368
2.2250,-3.418008068,18.80800706,1080.198893
2.2300,-3.436771557,18.81913693,1080.236498
2.2350,-3.455542697,18.83044169,1080.27418
2.2400,-3.474267253,18.84181537,1080.311911
2.2450,-3.492994658,18.85325698,1080.349707
2.2500,-3.511716989,18.86474428,1080.387567
2.2550,-3.530482132,18.87618917,1080.425482
2.2600,-3.549311794,18.88753713,1080.463428
2.2650,-3.568219786,18.89878779,1080.501403
2.2700,-3.587220571,18.90992321,1080.539405
2.2750,-3.606258364,18.92093023,1080.577411
2.2800,-3.625332564,18.93188977,1080.615439
2.2850,-3.644394197,18.94288779,1080.653486
2.2900,-3.663393449,18.95390687,1080.691534
2.2950,-3.682314705,18.96500475,1080.729582
2.3000,-3.70121448,18.9761199,1080.767618
2.3050,-3.720057887,18.98728516,1080.805627
2.3100,-3.738905889,18.99854424,1080.843642
2.3150,-3.757753627,19.00987904,1080.881648
2.3200,-3.776600963,19.02125666,1080.919637
2.3250,-3.795411555,19.03262776,1080.957575
2.3300,-3.814186598,19.04398351,1080.995463
2.3350,-3.832976803,19.05521508,1081.033273
2.3400,-3.851826031,19.06631357,1081.071014
2.3450,-3.870827276,19.07723853,1081.108691
2.3500,-3.889989543,19.08792692,1081.1463
2.3550,-3.909361304,19.09837277,1081.183841
2.3600,-3.928967661,19.10857265,1081.221321
2.3650,-3.9488099,19.1184681,1081.258712
2.3700,-3.968877258,19.12808782,1081.296019
2.3750,-3.989238603,19.13741612,1081.333249
2.3800,-4.009812731,19.14644827,1081.370389
2.3850,-4.030610929,19.15522513,1081.407426
2.3900,-4.051608709,19.16371885,1081.444351
2.3950,-4.072831496,19.17190476,1081.481157
2.4000,-4.094281184,19.17984028,1081.517873
2.4050,-4.115977358,19.18760833,1081.554531
2.4100,-4.137823185,19.19524657,1081.591119
2.4150,-4.159815072,19.20283612,1081.627652
2.4200,-4.18186883,19.21038971,1081.664125
2.4250,-4.203975694,19.21794064,1081.700537
2.4300,-4.226064069,19.22546672,1081.736883
2.4350,-4.248042692,19.2329735,1081.773134
2.4400,-4.269875528,19.24043867,1081.809277
2.4450,-4.291538919,19.24782135,1081.845305
2.4500,-4.313003343,19.25514573,1081.881214
2.4550,-4.334203909,19.26238837,1081.916977
2.4600,-4.3551072,19.26953324,1081.952589
2.4650,-4.375669199,19.27648491,1081.988011
2.4700,-4.39591353,19.28322899,1082.023256
2.4750,-4.415791161,19.28978468,1082.058322
2.4800,-4.435275655,19.29607918,1082.093169
2.4850,-4.454391035,19.30215798,1082.127812
2.4900,-4.47308468,19.30797846,1082.162215
2.4950,-4.491398561,19.31353038,1082.196395
2.5000,-4.509337917,19.31878806,1082.230325
2.5050,-4.526942413,19.32376842,1082.264017
2.5100,-4.544206229,19.32848996,1082.297478
2.5150,-4.561138592,19.33294665,1082.330698
2.5200,-4.577730136,19.33722097,1082.363711
2.5250,-4.593954283,19.34138732,1082.396514
2.5300,-4.609825152,19.34541737,1082.429106
2.5350,-4.625312578,19.34936177,1082.461494
2.5400,-4.640397518,19.35330965,1082.493686
2.5450,-4.655076939,19.35724832,1082.525678
2.5500,-4.669374346,19.36112439,1082.557464
2.5550,-4.683341708,19.3649315,1082.589055
2.5600,-4.696971612,19.36870304,1082.620464
2.5650,-4.710284686,19.37243092,1082.651708
2.5700,-4.723262219,19.37608878,1082.682755
2.5750,-4.736006067,19.37964203,1082.713634
2.5800,-4.748532527,19.38302969,1082.744329
2.5850,-4.760831197,19.38623916,1082.77484
2.5900,-4.772946031,19.38925955,1082.805183
2.5950,-4.784876501,19.39212415,1082.83536
2.6000,-4.796594659,19.3948501,1082.86539
2.6050,-4.808074879,19.39743515,1082.895257
2.6100,-4.819298111,19.39986034,1082.924931
2.6150,-4.830297174,19.40216899,1082.954458
2.6200,-4.841106018,19.40434397,1082.983836
2.6250,-4.851771386,19.40639749,1083.013099
2.6300,-4.862371907,19.40831988,1083.042298
2.6350,-4.872901067,19.41017663,1083.071445
2.6400,-4.883313909,19.41196304,1083.100521
2.6450,-4.893554425,19.41370328,1083.129532
2.6500,-4.903587922,19.41542684,1083.158464
2.6550,-4.913369871,19.4171883,1083.187317
2.6600,-4.922861841,19.41896591,1083.216078
2.6650,-4.932036198,19.42078943,1083.244751
2.6700,-4.940909057,19.42258473,1083.273327
2.6750,-4.949437549,19.42435618,1083.301797
2.6800,-4.957694919,19.42601063,1083.33014
2.6850,-4.965702972,19.42752586,1083.35839
2.6900,-4.973452277,19.42890047,1083.386518
2.6950,-4.980999234,19.43011622,1083.414546
2.7000,-4.988297519,19.43114986,1083.442458
2.7050,-4.995357392,19.43195693,1083.470229
2.7100,-5.002220417,19.43255247,1083.497864
2.7150,-5.008890133,19.43288711,1083.525358
2.7200,-5.01546295,19.43296029,1083.55274
2.7250,-5.021894555,19.43281235,1083.579994
2.7300,-5.028194787,19.43245372,1083.607121
2.7350,-5.03439481,19.43189872,1083.634125
2.7400,-5.040520458,19.43115104,1083.661029
2.7450,-5.046545786,19.43020286,1083.687811
2.7500,-5.052515154,19.42909136,1083.714478
2.7550,-5.058438942,19.42784186,1083.741059
2.7600,-5.064300312,19.42639377,1083.767506
2.7650,-5.070176802,19.4247937,1083.793865
2.7700,-5.076057937,19.42305233,1083.82012
2.7750,-5.081973037,19.42115472,1083.846273
2.7800,-5.087957616,19.41916262,1083.87236
2.7850,-5.093991513,19.41703211,1083.898355
2.7900,-5.100093281,19.41482066,1083.924285
2.7950,-5.106250396,19.41257053,1083.950152
2.8000,-5.112479441,19.41029665,1083.975974
2.8050,-5.118735864,19.40805398,1084.001731
2.8100,-5.12498824,19.40586247,1084.027416
2.8150,-5.131291883,19.40369626,1084.053046
2.8200,-5.137582899,19.40157893,1084.078585
2.8250,-5.143867815,19.39950669,1084.104041
2.8300,-5.150156551,19.39755047,1084.129445
2.8350,-5.156424013,19.39566295,1084.154754
2.8400,-5.162716381,19.39381605,1084.179991
2.8450,-5.169006175,19.39200063,1084.205142
2.8500,-5.175329253,19.39025303,1084.230243
2.8550,-5.181649662,19.38857184,1084.25527
2.8600,-5.187920701,19.3869897,1084.280209
2.8650,-5.19416602,19.38548331,1084.30505
2.8700,-5.200377553,19.38408018,1084.329802
2.8750,-5.206518672,19.3827696,1084.354436
2.8800,-5.212563259,19.38158998,1084.378954
2.8850,-5.218514979,19.38051453,1084.403355
2.8900,-5.224385873,19.37954017,1084.42764
2.8950,-5.230190205,19.37861435,1084.45181
2.9000,-5.235913329,19.37776635,1084.475844
2.9050,-5.241584686,19.37694358,1084.499748
2.9100,-5.247197271,19.37614276,1084.523514
2.9150,-5.252740605,19.37534052,1084.547129
2.9200,-5.258224547,19.37458948,1084.570615
2.9250,-5.263682717,19.37388451,1084.593992
2.9300,-5.26906164,19.37327079,1084.617236
2.9350,-5.274349321,19.37273285,1084.640333
2.9400,-5.279521073,19.37234,1084.663296
2.9450,-5.284570769,19.37209575,1084.686099
2.9500,-5.289453025,19.3720166,1084.70873
2.9550,-5.294160088,19.37209654,1084.731205
2.9600,-5.298719899,19.37232077,1084.75352
2.9650,-5.303115433,19.37267018,1084.775657
2.9700,-5.30737009,19.37319513,1084.797621
2.9750,-5.311479387,19.37384155,1084.819398
2.9800,-5.315434364,19.37462084,1084.840986
2.9850,-5.319192567,19.3755312,1084.862352
2.9900,-5.322803995,19.37652855,1084.883507
2.9950,-5.326217148,19.37764068,1084.904436
3.0000,-5.329473702,19.37882988,1084.925127
3.0050,-5.332620074,19.38007957,1084.945594
3.0100,-5.335613706,19.38137633,1084.965824
3.0150,-5.338462221,19.38269663,1084.985803
3.0200,-5.34115576,19.38408583,1085.005542
3.0250,-5.343673042,19.38552134,1085.025025
3.0300,-5.346053794,19.38696666,1085.044246
3.0350,-5.348294985,19.38842239,1085.063242
3.0400,-5.350372789,19.38988512,1085.081973
3.0450,-5.352302077,19.39136675,1085.10045
3.0500,-5.354081006,19.39284968,1085.118673
3.0550,-5.355737765,19.39427104,1085.136632
3.0600,-5.357313989,19.39568283,1085.154361
3.0650,-5.358767498,19.39707663,1085.171822
3.0700,-5.360134583,19.39845237,1085.189045
3.0750,-5.361413788,19.39980718,1085.206024
3.0800,-5.362573247,19.40117499,1085.222755
3.0850,-5.36360461,19.40256625,1085.239233
3.0900,-5.364510071,19.40393807,1085.255439
3.0950,-5.365240224,19.40533314,1085.271358
3.1000,-5.365806314,19.40672293,1085.286972
3.1050,-5.366188061,19.40810665,1085.302276
3.1100,-5.36643474,19.40943852,1085.317282
3.1150,-5.366479582,19.41071645,1085.331959
3.1200,-5.366403383,19.4119396,1085.346345
3.1250,-5.366189981,19.4130611,1085.360417
3.1300,-5.365848969,19.41408068,1085.374179
3.1350,-5.365428939,19.41497192,1085.387668
3.1400,-5.364890609,19.41577258,1085.400874
3.1450,-5.364246129,19.41650953,1085.413818
3.1500,-5.363478027,19.41717269,1085.426481
3.1550,-5.362551251,19.41777518,1085.438849
3.1600,-5.361505492,19.41830765,1085.450957
3.1650,-5.360279131,19.41875087,1085.462767
3.1700,-5.358885716,19.41915544,1085.474305
3.1750,-5.35727763,19.41949208,1085.485561
3.1800,-5.355481169,19.41974045,1085.496542
3.1850,-5.35357599,19.41989908,1085.507298
3.1900,-5.351519693,19.4199757,1085.517808
3.1950,-5.349274664,19.4199393,1085.528043
3.2000,-5.346848254,19.41978399,1085.538003
3.2050,-5.344243828,19.41951511,1085.547702
3.2100,-5.341445199,19.41911413,1085.557128
3.2150,-5.338499938,19.4185298,1085.566286
3.2200,-5.335408321,19.41772127,1085.575174
3.2250,-5.332140151,19.41670237,1085.583774
3.2300,-5.328734409,19.41547356,1085.592116
3.2350,-5.325177745,19.41403378,1085.600209
3.2400,-5.321503564,19.41232629,1085.60805
3.2450,-5.317746992,19.41036217,1085.615678
3.2500,-5.313923127,19.40811768,1085.623098
3.2550,-5.310052759,19.40559848,1085.63032
3.2600,-5.306126226,19.40284161,1085.637352
3.2650,-5.302150088,19.39988622,1085.644233
3.2700,-5.298101314,19.39669437,1085.650952
3.2750,-5.293987073,19.39332994,1085.657522
3.2800,-5.289791262,19.38981545,1085.663976
3.2850,-5.285534584,19.38613789,1085.670303
3.2900,-5.281188348,19.3823589,1085.676521
3.2950,-5.276795088,19.37847408,1085.682645
3.3000,-5.272351387,19.37451717,1085.688697
3.3050,-5.267829477,19.37049418,1085.694657
3.3100,-5.263258815,19.36641277,1085.700554
3.3150,-5.258643496,19.36231622,1085.706407
3.3200,-5.253972268,19.3581888,1085.712196
3.3250,-5.249285524,19.35400227,1085.717936
3.3300,-5.244546309,19.3498387,1085.723644
3.3350,-5.239798506,19.34567388,1085.729319
3.3400,-5.235076773,19.34151413,1085.734992
3.3450,-5.230421201,19.33732761,1085.740675
3.3500,-5.225816217,19.33309185,1085.746361
3.3550,-5.221314454,19.32887041,1085.752097
3.3600,-5.216904412,19.32462893,1085.757886
3.3650,-5.212641963,19.32038731,1085.763775
3.3700,-5.208534961,19.31612609,1085.769759
3.3750,-5.204608227,19.31187335,1085.775857
3.3800,-5.200919987,19.30756686,1085.782086
3.3850,-5.197439951,19.30325249,1085.788438
3.3900,-5.194180236,19.29895113,1085.794921
3.3950,-5.191196917,19.29463573,1085.801568
3.4000,-5.188473825,19.29034889,1085.808384
3.4050,-5.186014888,19.28605055,1085.815344
3.4100,-5.183840658,19.28181794,1085.822494
3.4150,-5.181920236,19.2776728,1085.829816
3.4200,-5.180284845,19.27360339,1085.837318
3.4250,-5.178952913,19.26959528,1085.845014
3.4300,-5.177970228,19.26560794,1085.852903
3.4350,-5.177296197,19.26174798,1085.861019
3.4400,-5.177027271,19.25796743,1085.869403
3.4450,-5.177162137,19.25430448,1085.878079
3.4500,-5.177706896,19.25077753,1085.887066
3.4550,-5.178720752,19.24741176,1085.896423
3.4600,-5.180233854,19.24424681,1085.906195
3.4650,-5.182283454,19.24126333,1085.916402
3.4700,-5.184890628,19.238444,1085.927076
3.4750,-5.188137859,19.23581257,1085.938272
3.4800,-5.192018058,19.23339129,1085.950019
3.4850,-5.19648594,19.23113248,1085.962296
3.4900,-5.20157858,19.22904992,1085.975149
3.4950,-5.207322781,19.22715461,1085.988607
3.5000,-5.213744631,19.22539065,1086.002683
3.5050,-5.220791431,19.2237786,1086.01737
3.5100,-5.228505579,19.22229313,1086.032688
3.5150,-5.236785147,19.22095603,1086.048587
3.5200,-5.245584394,19.21976791,1086.065037
3.5250,-5.254889785,19.21864819,1086.081999
3.5300,-5.264648902,19.21758499,1086.099431
3.5350,-5.274837779,19.2165754,1086.117303
3.5400,-5.2854255,19.21561199,1086.135577
3.5450,-5.296300677,19.21470825,1086.154187
3.5500,-5.307421135,19.21382122,1086.173084
3.5550,-5.318724761,19.21293229,1086.192202
3.5600,-5.330139683,19.21202273,1086.211478
3.5650,-5.341605401,19.21103423,1086.230828
3.5700,-5.353095006,19.2099729,1086.250231
3.5750,-5.364562988,19.20877739,1086.269624
3.5800,-5.375988682,19.20746131,1086.288971
3.5850,-5.387358694,19.20601496,1086.30827
3.5900,-5.398659876,19.20438655,1086.327475
3.5950,-5.40984467,19.2026037,1086.34656
3.6000,-5.420908764,19.20060212,1086.365505
3.6050,-5.43183152,19.19839689,1086.384285
3.6100,-5.442589984,19.1959765,1086.402877
3.6150,-5.453183363,19.19330181,1086.421273
3.6200,-5.463623549,19.19034081,1086.439466
3.6250,-5.473875436,19.18711411,1086.457425
3.6300,-5.483993337,19.18351264,1086.475145
3.6350,-5.493900272,19.17958182,1086.492586
3.6400,-5.503610042,19.17528954,1086.509733
3.6450,-5.513076791,19.17067196,1086.526554
3.6500,-5.522353255,19.16568696,1086.543057
3.6550,-5.531398864,19.16031984,1086.559196
3.6600,-5.540223396,19.1546065,1086.574982
3.6650,-5.548767779,19.14852756,1086.590348
3.6700,-5.557041653,19.14213871,1086.605299
3.6750,-5.565016744,19.13538028,1086.619783
3.6800,-5.572668392,19.12834288,1086.633812
3.6850,-5.5800274,19.12096405,1086.647363
3.6900,-5.587043682,19.1132681,1086.660406
3.6950,-5.593754661,19.10522652,1086.672938
3.7000,-5.600135006,19.09686591,1086.684948
3.7050,-5.606203873,19.08823624,1086.696468
3.7100,-5.611923588,19.07928798,1086.707433
3.7150,-5.617397487,19.07002238,1086.717921
3.7200,-5.622564155,19.06050851,1086.727926
3.7250,-5.627467539,19.05082202,1086.737503
3.7300,-5.632058556,19.0410341,1086.746647
3.7350,-5.636391416,19.03116342,1086.75538
3.7400,-5.640413598,19.02132025,1086.76372
3.7450,-5.644156152,19.01154597,1086.771708
3.7500,-5.647630375,19.00190718,1086.779365
3.7550,-5.650795435,18.99245295,1086.786688
3.7600,-5.653693283,18.98315446,1086.79367
3.7650,-5.656321674,18.97415125,1086.800363
3.7700,-5.658682328,18.96544671,1086.806764
3.7750,-5.660771244,18.95710578,1086.812878
3.7800,-5.662622224,18.9491303,1086.818722
3.7850,-5.664236502,18.94160083,1086.824297
3.7900,-5.66562763,18.93454405,1086.829608
3.7950,-5.666806626,18.92798315,1086.834661
3.8000,-5.667751895,18.92197247,1086.839463
3.8050,-5.668481644,18.91653417,1086.843993
3.8100,-5.668978284,18.91167444,1086.848243
3.8150,-5.669227257,18.90743565,1086.852208
3.8200,-5.669296941,18.9038087,1086.855918
3.8250,-5.669180109,18.90081974,1086.859363
3.8300,-5.668872004,18.89840252,1086.862499
3.8350,-5.6683826,18.89653916,1086.865318
3.8400,-5.667689251,18.89519097,1086.867776
3.8450,-5.666821927,18.89430813,1086.869858
3.8500,-5.665801512,18.89388959,1086.871578
3.8550,-5.664658538,18.89390299,1086.872937
3.8600,-5.663402162,18.89429919,1086.873924
3.8650,-5.662063468,18.89509306,1086.874576
3.8700,-5.660635022,18.89627346,1086.874876
3.8750,-5.659105834,18.89782662,1086.874828
3.8800,-5.657462008,18.89975571,1086.874428
3.8850,-5.655690246,18.90206365,1086.873671
3.8900,-5.653786914,18.90472412,1086.872558
3.8950,-5.651771913,18.90771305,1086.871111
3.9000,-5.64960734,18.91103475,1086.869289
3.9050,-5.647303873,18.91463918,1086.867116
3.9100,-5.644897383,18.9184955,1086.864615
3.9150,-5.642392886,18.92252249,1086.86178
3.9200,-5.63978898,18.92672621,1086.858611
3.9250,-5.637104015,18.93105673,1086.855131
3.9300,-5.634302028,18.93551624,1086.851324
3.9350,-5.631441879,18.94007008,1086.847242
3.9400,-5.628548112,18.94465907,1086.842903
3.9450,-5.625645648,18.94927694,1086.838343
3.9500,-5.62269175,18.95392973,1086.833549
3.9550,-5.619693273,18.958569,1086.82853
3.9600,-5.616708642,18.96314267,1086.823318
3.9650,-5.613752051,18.96766172,1086.817953
3.9700,-5.610802402,18.97207456,1086.812406
3.9750,-5.607893323,18.97639665,1086.806736
3.9800,-5.605030584,18.9805279,1086.800904
3.9850,-5.602253472,18.98447088,1086.794962
3.9900,-5.599565151,18.98821903,1086.788926
3.9950,-5.596944644,18.99176127,1086.782787
4.0000,-5.594433341,18.99505357,1086.776577
4.0050,-5.592030861,18.99807027,1086.770297
4.0100,-5.589729445,19.00087469,1086.763982
4.0150,-5.58752018,19.00348619,1086.757648
4.0200,-5.585409046,19.00588031,1086.751282
4.0250,-5.583379188,19.00804014,1086.744877
4.0300,-5.581453312,19.00998967,1086.738475
4.0350,-5.579620059,19.01173406,1086.73208
4.0400,-5.57789539,19.01322859,1086.725687
4.0450,-5.576246641,19.01450676,1086.71928
4.0500,-5.574689638,19.01552577,1086.712861
4.0550,-5.573243974,19.01629744,1086.706449
4.0600,-5.571865165,19.01688468,1086.700055
4.0650,-5.570589942,19.01723263,1086.693678
4.0700,-5.569409271,19.01736839,1086.687317
4.0750,-5.568322369,19.0172627,1086.680964
4.0800,-5.567311252,19.01692852,1086.674615
4.0850,-5.566399101,19.01640362,1086.668311
4.0900,-5.565581257,19.0156755,1086.662037
4.0950,-5.564840682,19.01477094,1086.655794
4.1000,-5.564184965,19.01370072,1086.649585
4.1050,-5.563618331,19.01243595,1086.643417
4.1100,-5.563128728,19.01104249,1086.637303
4.1150,-5.56275014,19.00949393,1086.63125
4.1200,-5.562460788,19.00778919,1086.625237
4.1250,-5.562248803,19.00593025,1086.619274
4.1300,-5.562142126,19.00394029,1086.613383
4.1350,-5.562100597,19.00185825,1086.607559
4.1400,-5.562127699,18.99968137,1086.601812
4.1450,-5.56224684,18.99745105,1086.596177
4.1500,-5.562418535,18.99517433,1086.59063
4.1550,-5.562662984,18.99287013,1086.585194
4.1600,-5.563003522,18.99060774,1086.579916
4.1650,-5.563416007,18.98835205,1086.574763
4.1700,-5.563880024,18.98615513,1086.569751
4.1750,-5.564433693,18.98400503,1086.56489
4.1800,-5.565070602,18.98189744,1086.56017
4.1850,-5.565802081,18.97982589,1086.555592
4.1900,-5.566601119,18.97785945,1086.551166
4.1950,-5.567490036,18.97592578,1086.546878
4.2000,-5.56845702,18.97406467,1086.542733
4.2050,-5.569510938,18.97227778,1086.538727
4.2100,-5.570640453,18.97053856,1086.534838
4.2150,-5.571837142,18.96888809,1086.531048
4.2200,-5.573082145,18.96729467,1086.527348
4.2250,-5.574372045,18.96579382,1086.52374
4.2300,-5.575715626,18.96437682,1086.520217
4.2350,-5.577126342,18.96301364,1086.516773
4.2400,-5.578575132,18.96174647,1086.513389
4.2450,-5.580046257,18.9605521,1086.510044
4.2500,-5.581563387,18.95942058,1086.506738
4.2550,-5.583122981,18.95835118,1086.503459
4.2600,-5.584636677,18.9573739,1086.500137
4.2650,-5.586161783,18.9564256,1086.496782
4.2700,-5.587699348,18.95552499,1086.493402
4.2750,-5.589219399,18.95470196,1086.489964
4.2800,-5.590731207,18.9539494,1086.486467
4.2850,-5.592205439,18.95328554,1086.482876
4.2900,-5.593640653,18.95273803,1086.479183
4.2950,-5.594982081,18.95228846,1086.475339
4.3000,-5.596235758,18.95194277,1086.471317
4.3050,-5.597367135,18.95172655,1086.467085
4.3100,-5.59836405,18.9516443,1086.462631
4.3150,-5.599195766,18.95164925,1086.457892
4.3200,-5.599864585,18.95177049,1086.45287
4.3250,-5.600350132,18.95201382,1086.447543
4.3300,-5.60062479,18.95236015,1086.441859
4.3350,-5.600680237,18.95283019,1086.435804
4.3400,-5.600490104,18.95339594,1086.429328
4.3450,-5.600015371,18.95404597,1086.422379
4.3500,-5.599239108,18.95479946,1086.414954
4.3550,-5.598140536,18.95562541,1086.407002
4.3600,-5.596741142,18.9565005,1086.398505
4.3650,-5.595003313,18.95742086,1086.389439
4.3700,-5.592932899,18.95838968,1086.379807
4.3750,-5.590527186,18.95937985,1086.369585
4.3800,-5.587785745,18.96041712,1086.358762
4.3850,-5.584733631,18.96145077,1086.347342
4.3900,-5.581338759,18.96246962,1086.3353
4.3950,-5.577637616,18.9634681,1086.322658
4.4000,-5.573609064,18.96446226,1086.309401
4.4050,-5.569285222,18.96546014,1086.29556
4.4100,-5.564670282,18.96645135,1086.281121
4.4150,-5.55972755,18.96743936,1086.266057
4.4200,-5.554453383,18.96844027,1086.250384
4.4250,-5.548856126,18.96943746,1086.234088
4.4300,-5.542924644,18.97044678,1086.217183
4.4350,-5.536675613,18.97140787,1086.199656
4.4400,-5.530142573,18.9723574,1086.181546
4.4450,-5.523288975,18.97326411,1086.162837
4.4500,-5.516182762,18.9741313,1086.143568
4.4550,-5.508834771,18.97492993,1086.123756
4.4600,-5.501216172,18.97564797,1086.103389
4.4650,-5.493348399,18.97630223,1086.082505
4.4700,-5.485246095,18.97683772,1086.061084
4.4750,-5.476892874,18.97729024,1086.039153
4.4800,-5.468299574,18.97763639,1086.01672
4.4850,-5.459465314,18.97786272,1085.993803
4.4900,-5.450438411,18.97791452,1085.97043
4.4950,-5.441180135,18.9778112,1085.946601
4.5000,-5.431784632,18.97751375,1085.922375
4.5050,-5.422244312,18.97703323,1085.89777
4.5100,-5.412559446,18.97636812,1085.872818
4.5150,-5.402762316,18.97552606,1085.847559
4.5200,-5.392908998,18.97449255,1085.822046
4.5250,-5.38304376,18.97325888,1085.796332
4.5300,-5.37316262,18.97184872,1085.770439
4.5350,-5.363271269,18.97029634,1085.744407
4.5400,-5.353340045,18.96862436,1085.718234
4.5450,-5.343412662,18.96687819,1085.691992
4.5500,-5.333460175,18.96510435,1085.665684
4.5550,-5.323492031,18.96335084,1085.639346
4.5600,-5.313528664,18.96166181,1085.613024
4.5650,-5.303481245,18.96009953,1085.586687
4.5700,-5.293350796,18.95864171,1085.560336
4.5750,-5.283172263,18.95731603,1085.534012
4.5800,-5.272913366,18.95615883,1085.507702
4.5850,-5.262574581,18.95516295,1085.481403
4.5900,-5.252143997,18.95432682,1085.455115
4.5950,-5.241664348,18.95368219,1085.428851
4.6000,-5.231089821,18.95323364,1085.402608
4.6050,-5.22047719,18.95294097,1085.3764
4.6100,-5.209820641,18.95278501,1085.350197
4.6150,-5.199107876,18.95279609,1085.324003
4.6200,-5.188328011,18.95298032,1085.297809
4.6250,-5.177475848,18.95330174,1085.271588
4.6300,-5.166568297,18.95373685,1085.245338
4.6350,-5.155587198,18.95424739,1085.219031
4.6400,-5.144543279,18.95483812,1085.192673
4.6450,-5.133433585,18.9554623,1085.166237
4.6500,-5.122269406,18.95612026,1085.139719
4.6550,-5.111076067,18.95678553,1085.113124
4.6600,-5.099837187,18.95743244,1085.086442
4.6650,-5.088568832,18.95806788,1085.059659
4.6700,-5.077267443,18.95866222,1085.032767
4.6750,-5.065909708,18.95926225,1085.005765
4.6800,-5.054530683,18.95986752,1084.978673
4.6850,-5.043006566,18.96051048,1084.951422
4.6900,-5.031360592,18.96123827,1084.924036
4.6950,-5.019574903,18.96208154,1084.896523
4.7000,-5.007665499,18.96301363,1084.868863
4.7050,-4.995560273,18.96405299,1084.841019
4.7100,-4.983244111,18.96519778,1084.812993
4.7150,-4.97073726,18.96641962,1084.784782
4.7200,-4.958036933,18.96769293,1084.756365
4.7250,-4.945127975,18.9690401,1084.727748
4.7300,-4.93205727,18.9703778,1084.698912
4.7350,-4.918829537,18.9717453,1084.669868
4.7400,-4.905487377,18.97307936,1084.640621
4.7450,-4.892046883,18.9743653,1084.611159
4.7500,-4.878492065,18.97558687,1084.581472
4.7550,-4.864791069,18.97669369,1084.551528
4.7600,-4.85101251,18.97764672,1084.521351
4.7650,-4.83720479,18.97840964,1084.490937
4.7700,-4.823389576,18.97900884,1084.46032
4.7750,-4.809568953,18.97942658,1084.429478
4.7800,-4.795784141,18.97964025,1084.398435
4.7850,-4.782045615,18.97961852,1084.367185
4.7900,-4.768338674,18.97939066,1084.33572
4.7950,-4.754732427,18.97890074,1084.304066
4.8000,-4.741213154,18.97816325,1084.272232
4.8050,-4.727865879,18.97710497,1084.240235
4.8100,-4.71472306,18.97579231,1084.208104
4.8150,-4.701845124,18.97420448,1084.175857
4.8200,-4.689230452,18.97238028,1084.143507
4.8250,-4.676880168,18.97031533,1084.111046
4.8300,-4.664850184,18.96806002,1084.078532
4.8350,-4.653085667,18.96565077,1084.04594
4.8400,-4.641679508,18.9631037,1084.013335
4.8450,-4.630593508,18.96045391,1083.980701
4.8500,-4.619809261,18.95768582,1083.948042
4.8550,-4.60930619,18.95483593,1083.915362
4.8600,-4.599053433,18.95192434,1083.882653
4.8650,-4.589138481,18.94894384,1083.849941
4.8700,-4.579517992,18.94597338,1083.817245
4.8750,-4.570158923,18.94297752,1083.784537
4.8800,-4.561048332,18.94001747,1083.75184
4.8850,-4.552170646,18.93713805,1083.719172
4.8900,-4.543528055,18.9343678,1083.686536
4.8950,-4.535066125,18.93173691,1083.653928
4.9000,-4.526782407,18.92928903,1083.621339
4.9050,-4.518584155,18.92705157,1083.58875
4.9100,-4.510506238,18.92502629,1083.556169
4.9150,-4.502501007,18.92326339,1083.523592
4.9200,-4.49453395,18.92169634,1083.490973
4.9250,-4.486582266,18.92038157,1083.458331
4.9300,-4.478627074,18.91930623,1083.425641
4.9350,-4.470674863,18.91849998,1083.392926
4.9400,-4.462730589,18.91789514,1083.360147
4.9450,-4.454830425,18.917493,1083.327322
4.9500,-4.446982376,18.91728282,1083.29446
4.9550,-4.439170398,18.91723135,1083.261532
4.9600,-4.431384165,18.91731657,1083.228506
4.9650,-4.42366779,18.91751728,1083.195409
4.9700,-4.415977771,18.91781938,1083.162202
4.9750,-4.408291856,18.91824352,1083.128896
4.9800,-4.400564816,18.91874267,1083.095459
4.9850,-4.392807719,18.91929208,1083.061879
4.9900,-4.385002534,18.91986065,1083.028153
4.9950,-4.377105379,18.92036433,1082.994229
5.0000,-4.36908046,18.92083444,1082.960118
5.0050,-4.360949656,18.92122998,1082.925805
5.0100,-4.352725194,18.92152539,1082.891298
5.0150,-4.344453726,18.92170767,1082.856601
5.0200,-4.336085072,18.9217973,1082.821702
5.0250,-4.327618748,18.92173488,1082.786592
5.0300,-4.31900789,18.92159872,1082.751291
5.0350,-4.310226671,18.92134787,1082.715791
5.0400,-4.301227376,18.92098368,1082.680072
5.0450,-4.292012889,18.92053474,1082.644139
5.0500,-4.282614586,18.91995062,1082.608002
5.0550,-4.27300754,18.91926047,1082.57166
5.0600,-4.263160821,18.91845823,1082.535091
5.0650,-4.253028148,18.91754285,1082.498295
5.0700,-4.242594542,18.9165173,1082.461274
5.0750,-4.231880718,18.9153115,1082.42404
5.0800,-4.220901534,18.91394333,1082.386593
5.0850,-4.209738015,18.91240554,1082.348958
5.0900,-4.198401292,18.91065977,1082.311157
5.0950,-4.186917311,18.90872467,1082.273182
5.1000,-4.175252854,18.9066181,1082.235033
5.1050,-4.163407721,18.90437546,1082.196722
5.1100,-4.151375145,18.90200147,1082.158256
5.1150,-4.139169766,18.89949538,1082.11965
5.1200,-4.126792244,18.89687321,1082.080912
5.1250,-4.114225043,18.89415752,1082.042045
5.1300,-4.10142286,18.89134496,1082.003032
5.1350,-4.088410455,18.88841903,1081.963895
5.1400,-4.075175262,18.88539435,1081.924632
5.1450,-4.061702647,18.88225763,1081.885232
5.1500,-4.048075365,18.87905696,1081.845731
5.1550,-4.034341186,18.87575555,1081.806127
5.1600,-4.020521787,18.87238077,1081.766424
5.1650,-4.006635536,18.86895836,1081.726659
5.1700,-3.992655685,18.86545211,1081.686788
5.1750,-3.978600996,18.86195491,1081.646838
5.1800,-3.964484315,18.85844517,1081.606796
5.1850,-3.950272576,18.85493214,1081.566638
5.1900,-3.935956679,18.85138299,1081.526351
5.1950,-3.921490363,18.84783168,1081.485918
5.2000,-3.906879981,18.84422811,1081.445334
5.2050,-3.892090073,18.84061483,1081.404591
5.2100,-3.877029735,18.83700066,1081.363662
5.2150,-3.861705951,18.83339498,1081.322545
5.2200,-3.846157119,18.82976369,1081.281238
5.2250,-3.830406547,18.82604388,1081.239718
5.2300,-3.814486324,18.82224158,1081.197994
5.2350,-3.798370002,18.81835002,1081.15603
5.2400,-3.782059077,18.8144004,1081.113852
5.2450,-3.76556392,18.81039389,1081.071436
5.2500,-3.748919113,18.80631795,1081.028779
5.2550,-3.7321182,18.80219611,1080.985876
5.2600,-3.715170985,18.79801437,1080.94273
5.2650,-3.698011326,18.7937524,1080.899327
5.2700,-3.680679636,18.78940622,1080.855676
5.2750,-3.663195014,18.78489892,1080.811774
5.2800,-3.645568499,18.78019734,1080.767622
5.2850,-3.627845435,18.77520906,1080.723232
5.2900,-3.610044882,18.76993311,1080.678597
5.2950,-3.592190949,18.76438105,1080.633745
5.3000,-3.574317389,18.75850778,1080.588691
5.3050,-3.556469763,18.75230732,1080.543467
5.3100,-3.538652566,18.74577924,1080.498069
5.3150,-3.520835663,18.73894417,1080.452519
5.3200,-3.503037587,18.73177664,1080.406826
5.3250,-3.485253234,18.72431244,1080.360992
5.3300,-3.467487476,18.71656189,1080.315021
5.3350,-3.449752345,18.70849482,1080.268917
5.3400,-3.432030239,18.70010936,1080.222701
5.3450,-3.414340492,18.69134353,1080.17639
5.3500,-3.396654088,18.68222563,1080.130003
5.3550,-3.379065538,18.67270333,1080.083555
5.3600,-3.361584385,18.66279176,1080.037074
5.3650,-3.344267246,18.65250195,1079.990596
5.3700,-3.327157285,18.64177137,1079.944127
5.3750,-3.310283757,18.63066827,1079.897694
5.3800,-3.293661882,18.61914988,1079.851323
5.3850,-3.277268919,18.60724405,1079.805048
5.3900,-3.26114612,18.59494233,1079.758879
5.3950,-3.245281289,18.58223428,1079.712846
5.4000,-3.229753696,18.56910751,1079.666977
5.4050,-3.214536443,18.55550052,1079.621296
5.4100,-3.19971654,18.54136034,1079.575831
5.4150,-3.185260448,18.52668477,1079.530599
5.4200,-3.171169405,18.51145481,1079.485613
5.4250,-3.157441221,18.49564454,1079.440891
5.4300,-3.144089175,18.47927477,1079.396467
5.4350,-3.131083062,18.46235803,1079.352341
5.4400,-3.118388724,18.44489479,1079.30852
5.4450,-3.105996069,18.42692739,1079.26503
5.4500,-3.093826745,18.40846048,1079.22188
5.4550,-3.081815627,18.38959784,1079.179091
5.4600,-3.069974462,18.37036958,1079.136668
5.4650,-3.058227926,18.35085747,1079.094572
5.4700,-3.046537299,18.33117573,1079.052825
5.4750,-3.034824043,18.31129349,1079.011392
5.4800,-3.023047075,18.29129045,1078.970289
5.4850,-3.011194605,18.27119558,1078.929506
5.4900,-2.999246779,18.25104737,1078.889058
5.4950,-2.987233402,18.23086037,1078.848923
5.5000,-2.975158109,18.21067185,1078.809108
5.5050,-2.96305686,18.19051915,1078.769603
5.5100,-2.95097112,18.17040368,1078.730414
5.5150,-2.938887596,18.15032904,1078.691541
5.5200,-2.92688427,18.13038733,1078.65299
5.5250,-2.914948548,18.11063338,1078.614759
5.5300,-2.903072,18.09112545,1078.576847
5.5350,-2.891280781,18.07182386,1078.53924
5.5400,-2.879583017,18.05280008,1078.501921
5.5450,-2.868003684,18.03409055,1078.464907
5.5500,-2.856405441,18.01569598,1078.428151
5.5550,-2.844846572,17.99765062,1078.391662
5.5600,-2.833336715,17.97998573,1078.355439
5.5650,-2.821890272,17.96268198,1078.319468
5.5700,-2.810494507,17.94575244,1078.283758
5.5750,-2.799166392,17.92919216,1078.248298
5.5800,-2.787885802,17.91302843,1078.213102
5.5850,-2.776654354,17.89732687,1078.178173
5.5900,-2.76547264,17.88208183,1078.14353
5.5950,-2.754311555,17.86731375,1078.109157
5.6000,-2.74311929,17.85304094,1078.075051
5.6050,-2.731884093,17.83929395,1078.04121
5.6100,-2.720553002,17.82607389,1078.007608
5.6150,-2.709089196,17.81340736,1077.974245
5.6200,-2.697461871,17.80127499,1077.941108
5.6250,-2.68572357,17.78966555,1077.908208
5.6300,-2.673849201,17.77851456,1077.875529
5.6350,-2.661865761,17.76781814,1077.843077
5.6400,-2.649792976,17.75754042,1077.81086
5.6450,-2.637644148,17.74763201,1077.778877
5.6500,-2.625385095,17.73805574,1077.747122
5.6550,-2.613039149,17.72883428,1077.715621
5.6600,-2.600622423,17.71989162,1077.684367
5.6650,-2.588153407,17.71123774,1077.653358
5.6700,-2.575598224,17.70287552,1077.622596
5.6750,-2.562979119,17.69479631,1077.592098
5.6800,-2.550281456,17.68702709,1077.561862
5.6850,-2.537506616,17.67951215,1077.531872
5.6900,-2.524642962,17.67229499,1077.502133
5.6950,-2.511664358,17.66530155,1077.472644
5.7000,-2.498572449,17.65846829,1077.443396
5.7050,-2.485385776,17.65181112,1077.414393
5.7100,-2.47207076,17.64528618,1077.38563
5.7150,-2.458632152,17.63885457,1077.357113
5.7200,-2.445101791,17.63244681,1077.328866
5.7250,-2.431480365,17.62607317,1077.300885
5.7300,-2.417798942,17.61965471,1077.273186
5.7350,-2.404066624,17.61317621,1077.245774
5.7400,-2.390218217,17.60663702,1077.21865
5.7450,-2.376274694,17.60002919,1077.191824
5.7500,-2.362206779,17.59335612,1077.165271
5.7550,-2.348005375,17.5865803,1077.138992
5.7600,-2.333575556,17.57968618,1077.112979
5.7650,-2.318873025,17.57261257,1077.08724
5.7700,-2.30391799,17.56534681,1077.061781
5.7750,-2.288656039,17.55790841,1077.036593
5.7800,-2.27307131,17.55029344,1077.011671
5.7850,-2.257120296,17.54250962,1076.987027
5.7900,-2.240832556,17.53458068,1076.962647
5.7950,-2.224170953,17.52653124,1076.938543
5.8000,-2.207129461,17.51838422,1076.914719
5.8050,-2.189684551,17.51015515,1076.891166
5.8100,-2.171866851,17.50188457,1076.8679
5.8150,-2.153647347,17.49357884,1076.844901
5.8200,-2.134990822,17.48526454,1076.822183
5.8250,-2.115920527,17.47697844,1076.799753
5.8300,-2.096448523,17.46872483,1076.77761
5.8350,-2.07660288,17.46052431,1076.755773
5.8400,-2.056405719,17.45235775,1076.734241
5.8450,-2.035904035,17.44421784,1076.713026
5.8500,-2.015216553,17.43609339,1076.692159
5.8550,-1.994343543,17.42799559,1076.671641
5.8600,-1.973304833,17.41993757,1076.651468
5.8650,-1.952134679,17.41195953,1076.631648
5.8700,-1.930885811,17.40407068,1076.612187
5.8750,-1.909569644,17.39633362,1076.593082
5.8800,-1.888255772,17.38875122,1076.574331
5.8850,-1.866944713,17.38138064,1076.555935
5.8900,-1.845675755,17.37420502,1076.537881
5.8950,-1.824475868,17.3672559,1076.520177
5.9000,-1.803375837,17.3605736,1076.502822
5.9050,-1.782374131,17.35411346,1076.485799
5.9100,-1.761513142,17.34787324,1076.469124
5.9150,-1.740859677,17.34182056,1076.452793
5.9200,-1.720454401,17.33597825,1076.43682
5.9250,-1.700305084,17.33030399,1076.421192
5.9300,-1.680473024,17.32478152,1076.405923
5.9350,-1.660962298,17.31942978,1076.391002
5.9400,-1.641800129,17.3142532,1076.376416
5.9450,-1.623047945,17.30928399,1076.362176
5.9500,-1.604748366,17.30450452,1076.348267
5.9550,-1.586872717,17.29990803,1076.334675
5.9600,-1.569423009,17.29551163,1076.321392
5.9650,-1.552419639,17.29131442,1076.308415
5.9700,-1.535949888,17.28726987,1076.295751
5.9750,-1.519995277,17.28341737,1076.283377
5.9800,-1.50459022,17.27971269,1076.271293
5.9850,-1.489708505,17.27622939,1076.259489
5.9900,-1.475364317,17.27291626,1076.247961
5.9950,-1.461597847,17.26981996,1076.236705
6.0000,-1.448409572,17.26693874,1076.225726
6.0050,-1.435770281,17.26428794,1076.215014
6.0100,-1.423637997,17.261837,1076.204553
6.0150,-1.412003353,17.25965836,1076.194342
6.0200,-1.400864333,17.2577428,1076.18437
6.0250,-1.390192999,17.25606139,1076.174631
6.0300,-1.379956839,17.25464948,1076.165112
6.0350,-1.370147283,17.25348216,1076.155807
6.0400,-1.360718818,17.25257867,1076.146703
6.0450,-1.351605594,17.25188662,1076.137768
6.0500,-1.342843589,17.25141318,1076.129023
6.0550,-1.334325903,17.25117145,1076.120431
6.0600,-1.326098405,17.25113971,1076.111998
6.0650,-1.318084027,17.25135053,1076.103713
6.0700,-1.3102957,17.25178006,1076.095565
6.0750,-1.30274719,17.25242729,1076.087568
6.0800,-1.295446638,17.25322268,1076.079709
6.0850,-1.28840044,17.25418065,1076.071983
6.0900,-1.281544516,17.25524413,1076.064373
6.0950,-1.274911109,17.25640767,1076.056875
6.1000,-1.268429708,17.25769102,1076.049473
6.1050,-1.262105546,17.25908349,1076.042172
6.1100,-1.255884036,17.26058602,1076.03495
6.1150,-1.249776294,17.26223208,1076.027816
6.1200,-1.243758903,17.26403119,1076.020756
6.1250,-1.237803139,17.26596687,1076.013764
6.1300,-1.231826634,17.26800055,1076.006821
6.1350,-1.22582771,17.27017796,1075.999928
6.1400,-1.219831262,17.27247042,1075.99309
6.1450,-1.213781261,17.27482836,1075.986298
6.1500,-1.207629723,17.27727709,1075.979542
6.1550,-1.2013791,17.27978021,1075.972825
6.1600,-1.195033777,17.28228992,1075.966155
6.1650,-1.188558451,17.284811,1075.959532
6.1700,-1.181917913,17.28729475,1075.952942
6.1750,-1.175151588,17.28972667,1075.946408
6.1800,-1.168224022,17.292112,1075.93992
6.1850,-1.161128148,17.29442718,1075.933477
6.1900,-1.153850526,17.29670159,1075.927084
6.1950,-1.146353371,17.29894956,1075.920725
6.2000,-1.13866971,17.30115374,1075.914404
6.2050,-1.1307996,17.30337467,1075.908132
6.2100,-1.122756772,17.30563056,1075.901909
6.2150,-1.114536748,17.3079229,1075.895735
6.2200,-1.106148336,17.31024151,1075.889606
6.2250,-1.097582742,17.31260883,1075.883526
6.2300,-1.088839814,17.31504892,1075.877497
6.2350,-1.079947968,17.31749622,1075.871515
6.2400,-1.070898969,17.31998954,1075.865588
6.2450,-1.061728013,17.32248887,1075.859712
6.2500,-1.052449585,17.32501867,1075.853902
6.2550,-1.043075402,17.32759917,1075.848157
6.2600,-1.033665209,17.33025132,1075.84249
6.2650,-1.024182064,17.33292671,1075.836893
6.2700,-1.014595338,17.3357015,1075.831364
6.2750,-1.00491279,17.33850327,1075.825902
6.2800,-0.9951112573,17.3413622,1075.820506
6.2850,-0.9852188103,17.34423238,1075.815176
6.2900,-0.9752124457,17.34711657,1075.80991
6.2950,-0.9650678887,17.35001567,1075.804705
6.3000,-0.9547432957,17.35291924,1075.799548
6.3050,-0.9442840738,17.35582093,1075.794452
6.3100,-0.9337483229,17.35871471,1075.789423
6.3150,-0.9231164643,17.36156127,1075.784457
6.3200,-0.9123564087,17.36436334,1075.779549
6.3250,-0.9015501519,17.36711689,1075.774711
6.3300,-0.8906832394,17.36984277,1075.769948
6.3350,-0.8797916261,17.37251863,1075.765257
6.3400,-0.8689152643,17.37517303,1075.760647
6.3450,-0.8580739216,17.3777734,1075.75612
6.3500,-0.8472348198,17.3803561,1075.751665
6.3550,-0.8364450012,17.38293642,1075.747296
6.3600,-0.8256998891,17.38547761,1075.743001
6.3650,-0.8150492812,17.38803431,1075.738792
6.3700,-0.8044930699,17.39058126,1075.734671
6.3750,-0.7940429021,17.39312313,1075.730628
6.3800,-0.7836989748,17.3957198,1075.726668
6.3850,-0.7734797639,17.39835192,1075.722793
6.3900,-0.7634134945,17.40102898,1075.719002
6.3950,-0.7535126737,17.40374452,1075.715299
6.4000,-0.7438032456,17.40654811,1075.71169
6.4050,-0.7343318665,17.40939647,1075.708173
6.4100,-0.7251182212,17.41232884,1075.704751
6.4150,-0.7162251162,17.4153199,1075.701431
6.4200,-0.7076057404,17.41834516,1075.698198
6.4250,-0.6992954193,17.42144444,1075.695057
6.4300,-0.6913383985,17.42462671,1075.692016
6.4350,-0.6837484327,17.42785216,1075.689065
6.4400,-0.6765065387,17.431146,1075.686206
6.4450,-0.6696296695,17.4345187,1075.683434
6.4500,-0.6631392104,17.43796484,1075.680754
6.4550,-0.6570320683,17.44143799,1075.678155
6.4600,-0.6512987657,17.44497654,1075.67564
6.4650,-0.6459810563,17.44856085,1075.673212
6.4700,-0.6410910929,17.45217236,1075.670871
6.4750,-0.6365703941,17.45580495,1075.6686
6.4800,-0.6324655846,17.45945259,1075.666412
6.4850,-0.6287483448,17.46311151,1075.664299
6.4900,-0.6254091224,17.46675224,1075.662258
6.4950,-0.6224372104,17.47035205,1075.66029
6.5000,-0.6198319064,17.47388959,1075.658393
6.5050,-0.6175603534,17.4773362,1075.656555
6.5100,-0.61557027,17.48067366,1075.654765
6.5150,-0.6138526444,17.48390113,1075.653023
6.5200,-0.612404569,17.48697873,1075.651324
6.5250,-0.6111570291,17.48991545,1075.649652
6.5300,-0.6100832636,17.49265441,1075.647997
6.5350,-0.6091753497,17.4952407,1075.64637
6.5400,-0.6083879761,17.49763387,1075.644753
6.5450,-0.607652502,17.49983444,1075.643134
6.5500,-0.6069499338,17.50181424,1075.641508
6.5550,-0.6062256213,17.50352679,1075.639856
6.5600,-0.6054212105,17.50497252,1075.638171
6.5650,-0.6045305252,17.50615252,1075.636447
6.5700,-0.6035649612,17.50701041,1075.634683
6.5750,-0.6024864492,17.50755928,1075.632874
6.5800,-0.6012634504,17.50779143,1075.631012
6.5850,-0.5998757937,17.5076923,1075.629091
6.5900,-0.598353456,17.50724228,1075.62711
6.5950,-0.5967023473,17.50643308,1075.625072
6.6000,-0.5949522628,17.50527277,1075.622982
6.6050,-0.5930559528,17.50376761,1075.620828
6.6100,-0.5909569851,17.50191715,1075.618605
6.6150,-0.5887240345,17.49972021,1075.616318
6.6200,-0.5863656647,17.49718359,1075.613973
6.6250,-0.5838397503,17.49431092,1075.611559
6.6300,-0.5811550011,17.49109733,1075.609076
6.6350,-0.5783203939,17.48760824,1075.606533
6.6400,-0.5753481549,17.48379672,1075.603927
6.6450,-0.5722219892,17.47973805,1075.601266
6.6500,-0.5689616622,17.47541203,1075.598546
6.6550,-0.5655767677,17.47081648,1075.595771
6.6600,-0.562092824,17.46596734,1075.59295
6.6650,-0.5585117543,17.46084942,1075.590079
6.6700,-0.5548501682,17.45548198,1075.587162
6.6750,-0.5510980718,17.44986005,1075.584197
6.6800,-0.5472513712,17.44399242,1075.581187
6.6850,-0.5432788868,17.4379116,1075.578124
6.6900,-0.5392524091,17.43164882,1075.575029
6.6950,-0.5351317287,17.42521728,1075.571896
6.7000,-0.5309358994,17.41859433,1075.568728
6.7050,-0.5266096353,17.41181704,1075.565519
6.7100,-0.5221447888,17.40486969,1075.562269
6.7150,-0.5175049085,17.39779045,1075.558975
6.7200,-0.5127111392,17.39058288,1075.555645
6.7250,-0.507713139,17.38320417,1075.552261
6.7300,-0.5025469223,17.37570131,1075.548842
6.7350,-0.497150171,17.36806256,1075.545374
6.7400,-0.4915400184,17.3602943,1075.541863
6.7450,-0.4856966774,17.35239773,1075.538308
6.7500,-0.4796221794,17.34437364,1075.534705
6.7550,-0.4733590611,17.33627444,1075.531074
6.7600,-0.4669053316,17.32810781,1075.527415
6.7650,-0.4602825599,17.31983815,1075.523727
6.7700,-0.4534751381,17.311534,1075.520017
6.7750,-0.4465224804,17.30320185,1075.516294
6.7800,-0.4393831915,17.29486418,1075.512553
6.7850,-0.4321102871,17.28648543,1075.5088
6.7900,-0.4246965499,17.27812624,1075.50504
6.7950,-0.4171484045,17.26978874,1075.501274
6.8000,-0.4094555263,17.26147797,1075.4975
6.8050,-0.4016438299,17.25319555,1075.493727
6.8100,-0.3937151707,17.24495475,1075.489954
6.8150,-0.3856637235,17.23674901,1075.486182
6.8200,-0.3775015701,17.22859935,1075.482418
6.8250,-0.3692592475,17.22047515,1075.478667
6.8300,-0.3608858777,17.2124219,1075.474924
6.8350,-0.3523816787,17.20440324,1075.471182
6.8400,-0.3437589166,17.19639899,1075.467445
6.8450,-0.3349951474,17.18846484,1075.463721
6.8500,-0.3261003158,17.18060225,1075.460007
6.8550,-0.317070567,17.17279676,1075.456306
6.8600,-0.3079227148,17.16501768,1075.452619
6.8650,-0.2985991009,17.15729804,1075.448942
6.8700,-0.2891140255,17.14967519,1075.44528
6.8750,-0.2794441696,17.14214087,1075.441627
6.8800,-0.2696193497,17.13469002,1075.43799
6.8850,-0.2596301076,17.12731501,1075.434369
6.8900,-0.2494689327,17.120036,1075.430768
6.8950,-0.2391406948,17.11285764,1075.427183
6.9000,-0.2286308904,17.10579036,1075.423617
6.9050,-0.2180498544,17.09880739,1075.420082
6.9100,-0.2074057664,17.0919503,1075.416588
6.9150,-0.196723854,17.08523512,1075.41314
6.9200,-0.1860147887,17.07869015,1075.40974
6.9250,-0.1752818785,17.07237108,1075.406397
6.9300,-0.1645786687,17.0662438,1075.403112
6.9350,-0.1538745499,17.060305,1075.399879
6.9400,-0.143235552,17.05460094,1075.396714
6.9450,-0.1326874977,17.04913613,1075.393619
6.9500,-0.1222402055,17.04391401,1075.390597
6.9550,-0.1119367524,17.03891206,1075.387652
6.9600,-0.1017736326,17.03421712,1075.38479
6.9650,-0.09179391419,17.02984418,1075.382016
6.9700,-0.0820189382,17.02580296,1075.379337
6.9750,-0.07248544566,17.02217161,1075.376764
6.9800,-0.06324103714,17.0189116,1075.374301
6.9850,-0.05433052391,17.01602343,1075.371954
6.9900,-0.04569676005,17.01352271,1075.369713
6.9950,-0.03740584138,17.01144255,1075.367593
7.0000,-0.02945535404,17.00977879,1075.365585
7.0050,-0.02188206644,17.00856406,1075.363702
7.0100,-0.01470385241,17.00780769,1075.361947
7.0150,-0.007930756583,17.00751476,1075.360318
7.0200,-0.001561700258,17.00768616,1075.358813
7.0250,0.004399707326,17.00836958,1075.357437
7.0300,0.01000760506,17.00952447,1075.356175
7.0350,0.01523733936,17.01117138,1075.355034
7.0400,0.02013677682,17.01332637,1075.354003
7.0450,0.02468610478,17.0159453,1075.353081
7.0500,0.02891768223,17.0190216,1075.352262
7.0550,0.03288910589,17.02253647,1075.351529
7.0600,0.03660446145,17.02644233,1075.350876
7.0650,0.04009631831,17.03074141,1075.3503
7.0700,0.04339881956,17.03542937,1075.34979
7.0750,0.04653334936,17.04044693,1075.349336
7.0800,0.04949069428,17.04574457,1075.348935
7.0850,0.05235211955,17.05134521,1075.348574
7.0900,0.05509280953,17.05719222,1075.348249
7.0950,0.05771991909,17.06323636,1075.347951
7.1000,0.06022847831,17.06947841,1075.347686
7.1050,0.0626603621,17.07583822,1075.347435
7.1100,0.06504737444,17.08232911,1075.347194
7.1150,0.06736168153,17.08889264,1075.346963
7.1200,0.06968494584,17.09553045,1075.346728
7.1250,0.07204095931,17.10216963,1075.346476
7.1300,0.07443473982,17.10881092,1075.34621
7.1350,0.07691495817,17.11542001,1075.34592
7.1400,0.07952285009,17.12196231,1075.345595
7.1450,0.08223820103,17.1284081,1075.345234
7.1500,0.08510757397,17.13468649,1075.344827
7.1550,0.08809136891,17.14082775,1075.344382
7.1600,0.09120284999,17.14679845,1075.343898
7.1650,0.09440762112,17.15257441,1075.343377
7.1700,0.09775852505,17.15809919,1075.342806
7.1750,0.1012246214,17.16334048,1075.34219
7.1800,0.1048307042,17.16828897,1075.341523
7.1850,0.1085764504,17.17294553,1075.340805
7.1900,0.1124383167,17.17730349,1075.340042
7.1950,0.116416987,17.18134974,1075.339231
7.2000,0.1204907831,17.18510891,1075.338381
7.2050,0.1247002131,17.18854963,1075.337486
7.2100,0.1289729277,17.19165291,1075.336554
7.2150,0.1333506219,17.19443592,1075.335582
7.2200,0.1377808239,17.19694581,1075.334586
7.2250,0.1422083169,17.19912162,1075.33357
7.2300,0.1465847597,17.20100119,1075.332548
7.2350,0.150860999,17.20259647,1075.33153
7.2400,0.1549969799,17.20393333,1075.330529
7.2450,0.1589061138,17.20502953,1075.329561
7.2500,0.1625487493,17.20592034,1075.328639
7.2550,0.1658633645,17.20668201,1075.32778
7.2600,0.1688282007,17.20725463,1075.326982
7.2650,0.1713590737,17.20770263,1075.326266
7.2700,0.1734762046,17.20803601,1075.325629
7.2750,0.1751085565,17.20827677,1075.325083
7.2800,0.1762626991,17.20846428,1075.324633
7.2850,0.1769477355,17.20864161,1075.324281
7.2900,0.177136124,17.20886529,1075.324039
7.2950,0.1768743233,17.20911959,1075.323894
7.3000,0.1761801397,17.20941609,1075.323845
7.3050,0.1751039346,17.20978859,1075.323884
7.3100,0.1737230068,17.21020966,1075.323994
7.3150,0.1721041595,17.21068269,1075.324164
7.3200,0.1703246299,17.21122014,1075.32438
7.3250,0.1684641473,17.21178296,1075.324625
7.3300,0.166567296,17.21234126,1075.324885
7.3350,0.164758194,17.21288187,1075.325135
7.3400,0.1631029275,17.21335211,1075.325358
7.3450,0.1617212081,17.21374887,1075.325533
7.3500,0.1606608675,17.21405833,1075.325651
7.3550,0.1599852774,17.21425705,1075.325696
7.3600,0.1597544341,17.21429738,1075.325652
7.3650,0.1600620901,17.21420438,1075.325506
7.3700,0.1608772788,17.21389458,1075.325252
7.3750,0.1622206471,17.21336461,1075.324886
7.3800,0.1641304246,17.21263143,1075.324403
7.3850,0.1665481814,17.21164595,1075.323806
7.3900,0.1694710079,17.21042022,1075.323102
7.3950,0.1728509055,17.2089844,1075.3223
7.4000,0.1766717989,17.20729227,1075.321396
7.4050,0.1808440275,17.20543012,1075.320415
7.4100,0.1852615459,17.20334536,1075.319371
7.4150,0.1899102068,17.20108661,1075.318271
7.4200,0.194675847,17.19864884,1075.317132
7.4250,0.1994911171,17.19612577,1075.31598
7.4300,0.2042381206,17.19348944,1075.314828
7.4350,0.2089043609,17.19075275,1075.313678
7.4400,0.2133961511,17.18798631,1075.312555
7.4450,0.2177593799,17.18517976,1075.311448
7.4500,0.2219310742,17.18240396,1075.310373
7.4550,0.225938133,17.17960228,1075.309321
7.4600,0.2297871799,17.17683479,1075.308294
7.4650,0.2335054831,17.17406553,1075.307287
7.4700,0.237044433,17.17130253,1075.306306
7.4750,0.2404571151,17.16857043,1075.305346
7.4800,0.2437117081,17.16586583,1075.304413
7.4850,0.2468316622,17.16317299,1075.303501
7.4900,0.2498882335,17.16048417,1075.3026
7.4950,0.2528657666,17.15780075,1075.301712
7.5000,0.2558050745,17.15507815,1075.300825
7.5050,0.2587144279,17.15236157,1075.299944
7.5100,0.2616342253,17.14966343,1075.299061
7.5150,0.2645510658,17.14696085,1075.298181
7.5200,0.2674927039,17.14422038,1075.297292
7.5250,0.2704293641,17.14148837,1075.296406
7.5300,0.2733668801,17.13879115,1075.295526
7.5350,0.2762972867,17.13611034,1075.294651
7.5400,0.2791723761,17.13343233,1075.293786
7.5450,0.2820206084,17.13080804,1075.292936
7.5500,0.2848220269,17.12823991,1075.292102
7.5550,0.2875690385,17.12566788,1075.291282
7.5600,0.2902189609,17.12316954,1075.29049
7.5650,0.29277347,17.12067971,1075.289722
7.5700,0.2952201243,17.1182463,1075.288983
7.5750,0.2975424344,17.11585768,1075.288277
7.5800,0.2997394354,17.113521,1075.287603
7.5850,0.3018061329,17.11121087,1075.286962
7.5900,0.3037770327,17.10894229,1075.286347
7.5950,0.3057102659,17.1066763,1075.285745
7.6000,0.3076502089,17.10443059,1075.285154
7.6050,0.3096395072,17.10213874,1075.28456
7.6100,0.3116739229,17.09984328,1075.283967
7.6150,0.3137980455,17.09748904,1075.283365
7.6200,0.3160702889,17.09506077,1075.282746
7.6250,0.3184963075,17.09253344,1075.282107
7.6300,0.3211640029,17.08988038,1075.281433
7.6350,0.3240227753,17.08704423,1075.28073
7.6400,0.3271723056,17.08396732,1075.279978
7.6450,0.3305858225,17.08065016,1075.279185
7.6500,0.3342616114,17.07701421,1075.278348
7.6550,0.3382211059,17.0730963,1075.277472
7.6600,0.3424773948,17.06887428,1075.276557
7.6650,0.346977433,17.06432506,1075.275614
7.6700,0.3517268369,17.05947261,1075.274648
7.6750,0.3567139111,17.05434565,1075.273672
7.6800,0.361927136,17.04893061,1075.272687
7.6850,0.367290795,17.0432717,1075.271717
7.6900,0.3727859846,17.03741363,1075.27077
7.6950,0.378391218,17.03137646,1075.269863
7.7000,0.384038804,17.02522714,1075.269015
7.7050,0.3897054725,17.01898116,1075.268236
7.7100,0.3953387647,17.01270253,1075.267545
7.7150,0.4008674204,17.00640762,1075.266958
7.7200,0.4062617885,17.00015329,1075.266489
7.7250,0.4114379562,16.99393951,1075.266156
7.7300,0.4164215003,16.98780934,1075.265964
7.7350,0.4211022748,16.98181049,1075.265937
7.7400,0.4254485234,16.97595139,1075.266085
7.7450,0.4293995397,16.97024227,1075.266422
7.7500,0.4329191208,16.96467137,1075.26696
7.7550,0.4360103993,16.95932739,1075.267708
7.7600,0.4385961261,16.9541598,1075.268677
7.7650,0.4406364491,16.94919562,1075.269878
7.7700,0.4421583075,16.94445151,1075.271309
7.7750,0.4431838344,16.93992783,1075.272969
7.7800,0.4436790247,16.93563667,1075.274867
7.7850,0.443620643,16.93162876,1075.277013
7.7900,0.4429917187,16.92788618,1075.279404
7.7950,0.4418098032,16.92445639,1075.282044
7.8000,0.4400251135,16.92138876,1075.284943
7.8050,0.4376334115,16.91867374,1075.288104
7.8100,0.4346148781,16.9163215,1075.291524
7.8150,0.4309106609,16.91435953,1075.295215
7.8200,0.4264960031,16.91280739,1075.299179
7.8250,0.4213426333,16.91169439,1075.303419
7.8300,0.4154434427,16.91098935,1075.307931
7.8350,0.408773501,16.9107174,1075.31272
7.8400,0.4012907636,16.91089552,1075.317792
7.8450,0.3929745994,16.91144117,1075.323138
7.8500,0.3837656005,16.91236952,1075.328764
7.8550,0.3736907061,16.9137129,1075.334666
7.8600,0.3627210646,16.91540801,1075.340846
7.8650,0.3508530593,16.91745124,1075.3473
7.8700,0.3380512922,16.91982144,1075.354036
7.8750,0.3243833888,16.92250743,1075.361046
7.8800,0.3098687843,16.9254743,1075.368326
7.8850,0.294461569,16.9287023,1075.375891
7.8900,0.2782469036,16.93212535,1075.383725
7.8950,0.2611883677,16.93574127,1075.391841
7.9000,0.2433529101,16.93952043,1075.400235
7.9050,0.2247221428,16.94343262,1075.408914
7.9100,0.2053696547,16.94739924,1075.417871
7.9150,0.185353344,16.95139088,1075.427103
7.9200,0.1646920745,16.95539503,1075.436612
7.9250,0.143453381,16.95937441,1075.446393
7.9300,0.1216823812,16.96330297,1075.456448
7.9350,0.09943032226,16.96721017,1075.466778
7.9400,0.07671936543,16.97107049,1075.477388
7.9450,0.05363117727,16.97488456,1075.488271
7.9500,0.03022181844,16.97866495,1075.499425
7.9550,0.006528331414,16.9823509,1075.510845
7.9600,-0.01743150924,16.98599394,1075.522548
7.9650,-0.04164115634,16.98957021,1075.534528
7.9700,-0.06605908523,16.9930838,1075.546789
7.9750,-0.09066943482,16.99649016,1075.559331
7.9800,-0.1154625942,16.99979526,1075.572164
7.9850,-0.1404115522,17.00301643,1075.58529
7.9900,-0.1654704095,17.00609223,1075.598706
7.9950,-0.1906015552,17.0090658,1075.612407
8.0000,-0.2158283123,17.0119328,1075.626401
8.0050,-0.2411220347,17.01473042,1075.640692
8.0100,-0.2664316742,17.01746845,1075.655276
8.0150,-0.2916851763,17.0202056,1075.670145
8.0200,-0.3168942977,17.02291913,1075.685311
8.0250,-0.3419786673,17.02569288,1075.700761
8.0300,-0.3669964277,17.0285119,1075.716507
8.0350,-0.3918736276,17.03143524,1075.732547
8.0400,-0.4166082466,17.03445206,1075.748874
8.0450,-0.4411855659,17.03762009,1075.765489
8.0500,-0.465591625,17.04095451,1075.782398
8.0550,-0.4898805066,17.04443488,1075.799601
8.0600,-0.5139857133,17.04812299,1075.817096
8.0650,-0.5379263005,17.0520602,1075.834892
8.0700,-0.5616906469,17.05623225,1075.852988
8.0750,-0.5853629598,17.06063725,1075.871401
8.0800,-0.6089441406,17.06529833,1075.890125
8.0850,-0.6324266286,17.07019444,1075.909158
8.0900,-0.6558756903,17.07533309,1075.928514
8.0950,-0.6792793183,17.08069608,1075.948185
8.1000,-0.7026505317,17.08630356,1075.96818
8.1050,-0.7259691947,17.0921457,1075.98849
8.1100,-0.7492321344,17.09824453,1076.009125
8.1150,-0.7724253462,17.10464924,1076.030081
8.1200,-0.7955871268,17.11133084,1076.051362
8.1250,-0.8186945239,17.11825166,1076.072956
8.1300,-0.8417172309,17.12547267,1076.094867
8.1350,-0.8646884694,17.13302352,1076.117096
8.1400,-0.8875555064,17.14086361,1076.13963
8.1450,-0.9103590528,17.14902966,1076.162478
8.1500,-0.9330608633,17.15748297,1076.185646
8.1550,-0.9557144535,17.16619472,1076.209131
8.1600,-0.9782763196,17.17521786,1076.23293
8.1650,-1.000737054,17.18451266,1076.257048
8.1700,-1.023117716,17.19407245,1076.28148
8.1750,-1.045439059,17.20382474,1076.306231
8.1800,-1.067714022,17.21379408,1076.331308
8.1850,-1.089916602,17.22394312,1076.356698
8.1900,-1.112109912,17.23428126,1076.382416
8.1950,-1.134268813,17.24482051,1076.408453
8.2000,-1.156427049,17.25554342,1076.434812
8.2050,-1.178546649,17.26648389,1076.461492
8.2100,-1.200601333,17.27764314,1076.488483
8.2150,-1.222631244,17.2890185,1076.515796
8.2200,-1.244593082,17.30059421,1076.543409
8.2250,-1.266500778,17.31237786,1076.571326
8.2300,-1.288363082,17.32439968,1076.599545
8.2350,-1.310127718,17.33663931,1076.628057
8.2400,-1.331785391,17.34912859,1076.65686
8.2450,-1.353333472,17.36186301,1076.685955
8.2500,-1.374757569,17.37483782,1076.715324
8.2550,-1.396062186,17.38806166,1076.74497
8.2600,-1.417191803,17.40149706,1076.774872
8.2650,-1.4381327,17.41519291,1076.805036
8.2700,-1.458879208,17.42913175,1076.83545
8.2750,-1.479395264,17.44333009,1076.866111
8.2800,-1.49969844,17.45778961,1076.897024
8.2850,-1.519778709,17.47249198,1076.928181
8.2900,-1.539656728,17.48746585,1076.959574
8.2950,-1.559364114,17.50263886,1076.991215
8.3000,-1.578851337,17.51799209,1077.023092
8.3050,-1.598120195,17.53352978,1077.055211
8.3100,-1.617208104,17.54919334,1077.087558
8.3150,-1.636131627,17.56498198,1077.120143
8.3200,-1.654861162,17.58091656,1077.152953
8.3250,-1.673389455,17.59696141,1077.185982
8.3300,-1.691742613,17.6131253,1077.219235
8.3350,-1.709927498,17.62939202,1077.252692
8.3400,-1.727956039,17.64575151,1077.286358
8.3450,-1.74584651,17.66216599,1077.320229
8.3500,-1.763613779,17.67866526,1077.3543
8.3550,-1.781197153,17.69521693,1077.388551
8.3600,-1.798652355,17.71183445,1077.422992
8.3650,-1.815969877,17.7284388,1077.45761
8.3700,-1.833155785,17.74510567,1077.492414
8.3750,-1.850187622,17.76183334,1077.527394
8.3800,-1.867044694,17.77855111,1077.562537
8.3850,-1.883736144,17.79526349,1077.59784
8.3900,-1.900271502,17.81200918,1077.633308
8.3950,-1.916656723,17.82880825,1077.668937
8.4000,-1.932900871,17.84555292,1077.70471
8.4050,-1.949035403,17.86229185,1077.740629
8.4100,-1.965104094,17.87901063,1077.776704
8.4150,-1.981091003,17.89565677,1077.812924
8.4200,-1.996965085,17.91226347,1077.849291
8.4250,-2.012770711,17.92880635,1077.885802
8.4300,-2.028563844,17.94524829,1077.922454
8.4350,-2.044371092,17.96151093,1077.959245
8.4400,-2.060179674,17.97765361,1077.996165
8.4450,-2.076026756,17.99365994,1078.033205
8.4500,-2.091953415,18.00952158,1078.070362
8.4550,-2.107932611,18.02526075,1078.10764
8.4600,-2.124034908,18.04086065,1078.14504
8.4650,-2.14022915,18.05638833,1078.18255
8.4700,-2.15650738,18.07178805,1078.220163
8.4750,-2.172862509,18.08712444,1078.257878
8.4800,-2.18930148,18.10240648,1078.295681
8.4850,-2.205809351,18.11767098,1078.333567
8.4900,-2.222389796,18.13294249,1078.371538
8.4950,-2.239019534,18.14823706,1078.409574
8.5000,-2.255695863,18.16355028,1078.447669
8.5050,-2.272448656,18.17880982,1078.485808
8.5100,-2.289332563,18.19402652,1078.523993
8.5150,-2.306355978,18.20919464,1078.562205
8.5200,-2.323621208,18.22426808,1078.600465
8.5250,-2.341103083,18.23928021,1078.638757
8.5300,-2.358847313,18.25424106,1078.677097
8.5350,-2.376811973,18.26913407,1078.71546
8.5400,-2.394996673,18.2840287,1078.753854
8.5450,-2.413356298,18.29895841,1078.79228
8.5500,-2.431781528,18.31398908,1078.830752
8.5550,-2.450217686,18.32916423,1078.869271
8.5600,-2.468630888,18.34449126,1078.907828
8.5650,-2.48701225,18.35991377,1078.946403
8.5700,-2.505278053,18.37542454,1078.984975
8.5750,-2.523470508,18.39096989,1079.023533
8.5800,-2.541608576,18.4065136,1079.062094
8.5850,-2.559685446,18.42201401,1079.100636
8.5900,-2.577641464,18.43742627,1079.139172
8.5950,-2.595461898,18.4528008,1079.177691
8.6000,-2.613066385,18.46816254,1079.216185
8.6050,-2.630415771,18.48347944,1079.254638
8.6100,-2.647410192,18.4988228,1079.293047
8.6150,-2.664038679,18.51413652,1079.331402
8.6200,-2.680237995,18.52941929,1079.369687
8.6250,-2.696031849,18.54464333,1079.407912
8.6300,-2.711327824,18.55985093,1079.446077
8.6350,-2.726148295,18.57498388,1079.484183
8.6400,-2.740451609,18.59002489,1079.522229
8.6450,-2.754192968,18.6050007,1079.560212
8.6500,-2.767378709,18.61986878,1079.598133
8.6550,-2.780020029,18.63464299,1079.63601
8.6600,-2.792029669,18.64934612,1079.673847
8.6650,-2.803359257,18.66400287,1079.711649
8.6700,-2.813993808,18.67854912,1079.7494
8.6750,-2.823941039,18.69295468,1079.787102
8.6800,-2.833181801,18.70723457,1079.824755
8.6850,-2.841718815,18.72135073,1079.862349
8.6900,-2.849548935,18.73526679,1079.899881
8.6950,-2.85672334,18.74890753,1079.937355
8.7000,-2.86331777,18.76226614,1079.974766
8.7050,-2.869416337,18.77523294,1080.012104
8.7100,-2.875119741,18.78776983,1080.049337
8.7150,-2.880502512,18.79987935,1080.086482
8.7200,-2.885665683,18.81154878,1080.123539
8.7250,-2.890625156,18.82285243,1080.160529
8.7300,-2.89544254,18.83387682,1080.197468
8.7350,-2.900143962,18.84472017,1080.234369
8.7400,-2.904763671,18.85538781,1080.271236
8.7450,-2.909303935,18.86590877,1080.308077
8.7500,-2.913778756,18.87633618,1080.344864
8.7550,-2.918295845,18.88663769,1080.381607
8.7600,-2.922883877,18.89679962,1080.418299
8.7650,-2.927630161,18.90686852,1080.454969
8.7700,-2.932566807,18.91693289,1080.49165
8.7750,-2.937714037,18.92701837,1080.528332
8.7800,-2.943080126,18.93712601,1080.565021
8.7850,-2.948701439,18.94728619,1080.601727
8.7900,-2.954601115,18.95745363,1080.638438
8.7950,-2.960868394,18.96758608,1080.675173
8.8000,-2.967568633,18.97771248,1080.711953
8.8050,-2.974751001,18.98786718,1080.748792
8.8100,-2.982402081,18.99803904,1080.785673
8.8150,-2.990524552,19.00824113,1080.822604
8.8200,-2.999137589,19.01858442,1080.859617
8.8250,-3.008196951,19.02907171,1080.896702
8.8300,-3.017679825,19.03973138,1080.933846
8.8350,-3.027604181,19.05059538,1080.971054
8.8400,-3.037962734,19.06163825,1081.008301
8.8450,-3.048753789,19.0728387,1081.045585
8.8500,-3.060051813,19.08420606,1081.082907
8.8550,-3.07185569,19.09570456,1081.120252
8.8600,-3.084257966,19.10735394,1081.157652
8.8650,-3.097164754,19.11922201,1081.195098
8.8700,-3.110577005,19.13130407,1081.232607
8.8750,-3.124369115,19.14361483,1081.27016
8.8800,-3.138464757,19.15618352,1081.307718
8.8850,-3.152756855,19.16898141,1081.345247
8.8900,-3.167261409,19.1819591,1081.382703
8.8950,-3.181929003,19.19504592,1081.420061
8.9000,-3.196808183,19.20818821,1081.457315
8.9050,-3.21191695,19.22129248,1081.494434
8.9100,-3.227270287,19.23422513,1081.53139
8.9150,-3.242903977,19.24697893,1081.568171
8.9200,-3.258895,19.25950914,1081.604782
8.9250,-3.275193085,19.27181272,1081.641196
8.9300,-3.291811035,19.28385031,1081.677393
8.9350,-3.308677946,19.29569279,1081.713384
8.9400,-3.325780921,19.3073886,1081.749168
8.9450,-3.34314543,19.31889425,1081.78474
8.9500,-3.36073965,19.33019857,1081.82006
8.9550,-3.378564754,19.34130307,1081.855126
8.9600,-3.396620837,19.35221885,1081.889931
8.9650,-3.414826321,19.36300885,1081.924463
8.9700,-3.433177839,19.37369091,1081.958732
8.9750,-3.451646175,19.38426343,1081.992723
8.9800,-3.470185762,19.39477888,1082.02645
8.9850,-3.488713072,19.40525666,1082.059906
8.9900,-3.507116646,19.41571115,1082.093046
8.9950,-3.525323907,19.42613071,1082.125845
9.0000,-3.543278138,19.43649352,1082.158289
9.0050,-3.560924808,19.44677845,1082.190359
9.0100,-3.578172018,19.45698772,1082.222055
9.0150,-3.594994288,19.46706459,1082.253353
9.0200,-3.6113572,19.47696816,1082.28423
9.0250,-3.627214052,19.48662951,1082.314667
9.0300,-3.642493022,19.49605175,1082.344648
9.0350,-3.657134771,19.50516642,1082.374131
9.0400,-3.671071472,19.51397621,1082.403109
9.0450,-3.684251263,19.52252015,1082.431591
9.0500,-3.69663573,19.53078593,1082.459591
9.0550,-3.708131102,19.53880057,1082.487115
9.0600,-3.718677969,19.54662813,1082.514162
9.0650,-3.72821334,19.55423761,1082.54072
9.0700,-3.736636349,19.56168829,1082.566764
9.0750,-3.743898583,19.5689771,1082.592303
9.0800,-3.749981455,19.5761711,1082.617369
9.0850,-3.754831495,19.58320596,1082.641939
9.0900,-3.758374367,19.59013027,1082.666018
9.0950,-3.760617736,19.59698049,1082.689628
9.1000,-3.761501945,19.60374083,1082.712734
9.1050,-3.761018733,19.61042024,1082.73535
9.1100,-3.759231926,19.61697823,1082.757506
9.1150,-3.756145007,19.62340109,1082.779205
9.1200,-3.751769452,19.62958451,1082.800395
9.1250,-3.746236057,19.6355069,1082.821136
9.1300,-3.739633152,19.6410962,1082.841442
9.1350,-3.732058274,19.64632249,1082.861345
9.1400,-3.723608888,19.65120552,1082.880891
9.1450,-3.714402133,19.65571718,1082.900112
9.1500,-3.704462873,19.65993314,1082.919043
9.1550,-3.69389249,19.66388193,1082.937717
9.1600,-3.682768152,19.6675886,1082.95616
9.1650,-3.67120816,19.67107688,1082.974416
9.1700,-3.659330207,19.67433665,1082.992516
9.1750,-3.647231686,19.67742111,1083.010517
9.1800,-3.63508042,19.68024867,1083.028444
9.1850,-3.623003155,19.68288546,1083.046366
9.1900,-3.611115128,19.68538407,1083.064341
9.1950,-3.599479327,19.68780915,1083.082412
9.2000,-3.588096791,19.69011254,1083.100547
9.2050,-3.577030832,19.69237247,1083.118803
9.2100,-3.566351552,19.69464964,1083.137215
9.2150,-3.55609531,19.6969732,1083.155808
9.2200,-3.546283453,19.69932271,1083.174587
9.2250,-3.53704716,19.70165967,1083.193592
9.2300,-3.528468895,19.70398666,1083.212829
9.2350,-3.520627062,19.70626577,1083.232313
9.2400,-3.513563665,19.70852777,1083.252062
9.2450,-3.507317372,19.71072885,1083.272074
9.2500,-3.50189031,19.71289679,1083.292378
9.2550,-3.497330298,19.71504274,1083.31299
9.2600,-3.493703507,19.7171284,1083.333909
9.2650,-3.491055319,19.71915235,1083.355166
9.2700,-3.48935672,19.72117904,1083.376765
9.2750,-3.488569131,19.72329179,1083.398733
9.2800,-3.488697156,19.72547361,1083.421036
9.2850,-3.489785729,19.72779904,1083.443735
9.2900,-3.49179808,19.73029878,1083.466838
9.2950,-3.494756198,19.73301398,1083.490361
9.3000,-3.498602591,19.73603311,1083.51433
9.3050,-3.503235475,19.73941114,1083.538736
9.3100,-3.508604417,19.74314373,1083.563553
9.3150,-3.514650975,19.7472096,1083.588742
9.3200,-3.521312732,19.75163018,1083.614282
9.3250,-3.5285612,19.75638161,1083.640145
9.3300,-3.536337155,19.76137199,1083.666267
9.3350,-3.544578534,19.76666956,1083.69265
9.3400,-3.553292141,19.7722144,1083.719271
9.3450,-3.562437934,19.77797883,1083.746109
9.3500,-3.571968458,19.78395545,1083.773133
9.3550,-3.581814352,19.79016753,1083.800315
9.3600,-3.591910145,19.79655973,1083.827605
9.3650,-3.60219738,19.80311599,1083.854973
9.3700,-3.61268692,19.80973099,1083.882386
9.3750,-3.62339588,19.8163705,1083.909829
9.3800,-3.634247888,19.82301167,1083.937252
9.3850,-3.645239798,19.82966269,1083.964642
9.3900,-3.656387578,19.83627822,1083.991979
9.3950,-3.667616921,19.84282127,1084.019216
9.4000,-3.678920902,19.84925642,1084.046339
9.4050,-3.690224282,19.85555638,1084.073297
9.4100,-3.70148223,19.86173127,1084.10007
9.4150,-3.712649557,19.86776479,1084.126615
9.4200,-3.723726456,19.87365481,1084.152937
9.4250,-3.73466837,19.87936165,1084.178986
9.4300,-3.745442213,19.88492565,1084.204759
9.4350,-3.756022743,19.89034345,1084.230241
9.4400,-3.766397294,19.89558125,1084.255407
9.4450,-3.776523589,19.90068848,1084.280256
9.4500,-3.786426101,19.90554539,1084.304738
9.4550,-3.796098853,19.91014957,1084.328854
9.4600,-3.805517624,19.91454239,1084.352596
9.4650,-3.814652142,19.91866971,1084.375939
9.4700,-3.823485137,19.92254854,1084.39887
9.4750,-3.832051088,19.92618641,1084.421399
9.4800,-3.840295289,19.92963279,1084.443515
9.4850,-3.848258141,19.93284392,1084.465215
9.4900,-3.855920185,19.9357975,1084.486485
9.4950,-3.863353054,19.9384557,1084.507338
9.5000,-3.870590423,19.94087637,1084.527805
9.5050,-3.877651985,19.94305335,1084.547895
9.5100,-3.884537253,19.94500955,1084.567618
9.5150,-3.891239166,19.9466683,1084.586954
9.5200,-3.897824832,19.94809773,1084.60595
9.5250,-3.904258951,19.94932598,1084.624585
9.5300,-3.910580515,19.95035056,1084.642889
9.5350,-3.916786033,19.95118184,1084.66087
9.5400,-3.922897094,19.95178949,1084.678527
9.5450,-3.928911441,19.95221399,1084.695878
9.5500,-3.934848236,19.95247117,1084.712944
9.5550,-3.940697434,19.95257114,1084.729733
9.5600,-3.946433554,19.95256947,1084.746265
9.5650,-3.952099612,19.95247032,1084.762559
9.5700,-3.957732961,19.95224961,1084.778644
9.5750,-3.963317914,19.95193912,1084.794533
9.5800,-3.968831149,19.95156875,1084.810247
9.5850,-3.974226696,19.95111765,1084.825764
9.5900,-3.979546262,19.95059742,1084.841103
9.5950,-3.984736138,19.95004012,1084.856273
9.6000,-3.989825721,19.94941662,1084.871271
9.6050,-3.994829277,19.94875863,1084.886103
9.6100,-3.999777784,19.94804409,1084.900784
9.6150,-4.004685536,19.94730422,1084.915343
9.6200,-4.009583089,19.94651392,1084.9298
9.6250,-4.014478495,19.94570044,1084.944183
9.6300,-4.01938836,19.94485275,1084.958517
9.6350,-4.024374214,19.94387029,1084.972806
9.6400,-4.029443701,19.94278392,1084.987072
9.6450,-4.034568412,19.94157585,1085.001305
9.6500,-4.039776671,19.94021312,1085.015512
9.6550,-4.045090209,19.93872591,1085.029733
9.6600,-4.050509259,19.93708588,1085.043962
9.6650,-4.056089024,19.93529291,1085.058229
9.6700,-4.061857567,19.93333132,1085.072534
9.6750,-4.067809111,19.93119079,1085.086883
9.6800,-4.073992555,19.92886576,1085.10129
9.6850,-4.08041689,19.92635216,1085.115765
9.6900,-4.08709504,19.92362769,1085.130298
9.6950,-4.094016171,19.92068474,1085.144874
9.7000,-4.101244563,19.91753533,1085.159524
9.7050,-4.108742031,19.91419488,1085.174221
9.7100,-4.116533903,19.91067048,1085.188972
9.7150,-4.124651478,19.90692692,1085.203774
9.7200,-4.133088836,19.90300192,1085.218637
9.7250,-4.141784395,19.89892607,1085.233528
9.7300,-4.150722622,19.8946746,1085.248408
9.7350,-4.159861415,19.89027801,1085.263263
9.7400,-4.16919597,19.88574253,1085.278073
9.7450,-4.178724871,19.88104683,1085.292804
9.7500,-4.188437197,19.87622967,1085.307461
9.7550,-4.198273015,19.87131274,1085.321997
9.7600,-4.208187152,19.86627596,1085.336391
9.7650,-4.218204391,19.86110863,1085.35063
9.7700,-4.228281505,19.85583574,1085.364691
9.7750,-4.238417151,19.85048539,1085.378569
9.7800,-4.248561548,19.8450668,1085.392228
9.7850,-4.258651737,19.83960373,1085.405642
9.7900,-4.268666563,19.83413621,1085.41879
9.7950,-4.278549371,19.8286595,1085.431622
9.8000,-4.288322142,19.82320982,1085.444181
9.8050,-4.297918631,19.81782708,1085.456423
9.8100,-4.307303936,19.81253162,1085.468337
9.8150,-4.316484265,19.80740022,1085.479938
9.8200,-4.325349522,19.80242536,1085.491163
9.8250,-4.333902831,19.79764613,1085.502027
9.8300,-4.34210688,19.79306711,1085.512516
9.8350,-4.349951833,19.78872244,1085.522624
9.8400,-4.357413597,19.78462371,1085.532341
9.8450,-4.364520745,19.78083689,1085.541727
9.8500,-4.371274899,19.77738744,1085.550786
9.8550,-4.377681713,19.77428829,1085.559539
9.8600,-4.383740229,19.77153663,1085.567985
9.8650,-4.389464942,19.76918212,1085.576165
9.8700,-4.394831375,19.76723342,1085.584075
9.8750,-4.399881445,19.76564997,1085.591719
9.8800,-4.404602336,19.76446012,1085.599108
9.8850,-4.40903088,19.76367272,1085.606279
9.8900,-4.413179499,19.76327606,1085.613239
9.8950,-4.41710278,19.76323566,1085.620018
9.9000,-4.420768332,19.76358869,1085.626626
9.9050,-4.424273863,19.76424562,1085.633095
9.9100,-4.427633497,19.76523936,1085.639461
9.9150,-4.430854221,19.76655533,1085.645733
9.9200,-4.433933485,19.76817392,1085.651907
9.9250,-4.436886976,19.77009906,1085.657992
9.9300,-4.439756004,19.77228755,1085.663994
9.9350,-4.442536488,19.77474699,1085.669919
9.9400,-4.445224848,19.77743736,1085.675746
9.9450,-4.447893588,19.78033612,1085.681502
9.9500,-4.450503424,19.7834636,1085.687189
9.9550,-4.453117907,19.78674334,1085.692798
9.9600,-4.455773187,19.79017236,1085.698366
9.9650,-4.458431485,19.79375928,1085.703868
9.9700,-4.461071767,19.79749141,1085.709302
9.9750,-4.463743065,19.80134083,1085.714662
9.9800,-4.466478095,19.80526378,1085.719951
9.9850,-4.469254031,19.80925598,1085.725152
9.9900,-4.472067226,19.81332615,1085.73027
9.9950,-4.47495028,19.8174384,1085.735307
10.0000,-4.477852353,19.82161633,1085.740247
10.0050,-4.48084388,19.82580161,1085.745107
10.0100,-4.483887464,19.82998204,1085.749845
10.0150,-4.486942097,19.83420842,1085.754469
10.0200,-4.489977433,19.83840113,1085.758902
10.0250,-4.492998816,19.84255368,1085.763147
10.0300,-4.495983688,19.84666331,1085.767177
10.0350,-4.498956153,19.85068126,1085.770978
10.0400,-4.501892222,19.85461474,1085.774532
10.0450,-4.504762373,19.85841087,1085.7778
10.0500,-4.507557463,19.86209488,1085.780781
10.0550,-4.510359997,19.86561843,1085.783505
10.0600,-4.513120933,19.86899161,1085.785933
10.0650,-4.515833669,19.87222463,1085.788053
10.0700,-4.518501483,19.87534226,1085.789882
10.0750,-4.521091858,19.87831168,1085.791371
10.0800,-4.523587251,19.88119708,1085.792549
10.0850,-4.525986238,19.88397642,1085.793397
10.0900,-4.528226025,19.88668248,1085.793901
10.0950,-4.530323591,19.88933181,1085.794075
10.1000,-4.532213012,19.89192946,1085.79387
10.1050,-4.533924615,19.89446296,1085.793292
10.1100,-4.535504835,19.89692661,1085.792361
10.1150,-4.536918527,19.89932621,1085.791057
10.1200,-4.538215395,19.90165194,1085.789398
10.1250,-4.539371983,19.90389814,1085.787389
10.1300,-4.54034442,19.90613676,1085.785026
10.1350,-4.541187889,19.90834157,1085.782328
10.1400,-4.541885198,19.91056416,1085.779319
10.1450,-4.542417928,19.91276645,1085.775968
10.1500,-4.542818334,19.9149735,1085.772315
10.1550,-4.543018254,19.9172391,1085.768343
10.1600,-4.543031076,19.91956002,1085.764082
10.1650,-4.54289201,19.92188596,1085.759517
10.1700,-4.542589536,19.92427139,1085.754675
10.1750,-4.542109191,19.92674568,1085.749579
10.1800,-4.541507013,19.92929151,1085.744265
10.1850,-4.540752186,19.93190995,1085.738708
10.1900,-4.539919319,19.93457987,1085.732969
10.1950,-4.538982364,19.93737036,1085.727059
10.2000,-4.537978721,19.94025447,1085.720997
10.2050,-4.5368985,19.94329449,1085.714817
10.2100,-4.535729029,19.94646575,1085.708496
10.2150,-4.534509824,19.94977942,1085.702073
10.2200,-4.533247179,19.95324585,1085.695559
10.2250,-4.53196296,19.9568245,1085.688959
10.2300,-4.530664534,19.96052845,1085.682279
10.2350,-4.529358293,19.9643394,1085.675513
10.2400,-4.528079332,19.96823285,1085.668673
10.2450,-4.526796954,19.97221574,1085.661744
10.2500,-4.52553761,19.97623456,1085.654715
10.2550,-4.524289556,19.98029537,1085.647586
10.2600,-4.523087494,19.98438816,1085.64037
10.2650,-4.521974378,19.98843618,1085.633056
10.2700,-4.52099062,19.99245147,1085.625657
10.2750,-4.520111961,19.99641714,1085.618168
10.2800,-4.519348364,20.00030635,1085.610587
10.2850,-4.518704447,20.00413309,1085.602918
10.2900,-4.518229503,20.00785059,1085.595166
10.2950,-4.51791898,20.01145565,1085.587322
10.3000,-4.517789478,20.01493505,1085.579384
10.3050,-4.517807337,20.01828362,1085.571323
10.3100,-4.517961465,20.02151382,1085.563147
10.3150,-4.518258079,20.02456331,1085.554814
10.3200,-4.518707097,20.02747507,1085.546356
10.3250,-4.519337745,20.03020718,1085.537748
10.3300,-4.520140918,20.03276897,1085.528999
10.3350,-4.521109955,20.03516294,1085.520089
10.3400,-4.522214495,20.03736827,1085.51101
10.3450,-4.5234582,20.0394124,1085.501769
10.3500,-4.524823895,20.04126925,1085.492335
10.3550,-4.5262487,20.04298282,1085.482697
10.3600,-4.527768367,20.04448542,1085.472836
10.3650,-4.529365828,20.04583885,1085.462778
10.3700,-4.531014759,20.04696079,1085.452473
10.3750,-4.532722984,20.04789064,1085.441945
10.3800,-4.534481467,20.04862062,1085.431168
10.3850,-4.536282119,20.0491719,1085.420155
10.3900,-4.538136422,20.04951466,1085.408897
10.3950,-4.540025025,20.04966125,1085.397413
10.4000,-4.54197758,20.04964943,1085.385727
10.4050,-4.543943481,20.04949688,1085.373834
10.4100,-4.545894598,20.04923444,1085.361735
10.4150,-4.547839386,20.04891106,1085.349471
10.4200,-4.549746134,20.04854807,1085.33704
10.4250,-4.551628195,20.04818457,1085.324447
10.4300,-4.553488614,20.04783017,1085.31172
10.4350,-4.555291635,20.04749511,1085.298842
10.4400,-4.557039546,20.04718159,1085.285831
10.4450,-4.558717871,20.04694244,1085.272696
10.4500,-4.560290879,20.04677401,1085.259433
10.4550,-4.561776603,20.04664656,1085.246038
10.4600,-4.563201352,20.04660965,1085.23254
10.4650,-4.564510161,20.04667129,1085.218928
10.4700,-4.565715064,20.04680531,1085.205197
10.4750,-4.56686801,20.04702837,1085.191382
10.4800,-4.567927716,20.04735444,1085.177473
10.4850,-4.568965171,20.0477519,1085.163493
10.4900,-4.569923802,20.04824375,1085.149426
10.4950,-4.570857125,20.04880827,1085.135312
10.5000,-4.571782183,20.04943753,1085.121147
10.5050,-4.572694839,20.0501283,1085.106947
10.5100,-4.573614278,20.05085385,1085.092725
10.5150,-4.574521457,20.05160858,1085.078465
10.5200,-4.575448297,20.05236997,1085.064183
10.5250,-4.576402522,20.05310987,1085.049863
10.5300,-4.577394332,20.05382257,1085.035533
10.5350,-4.578437451,20.05448021,1085.021181
10.5400,-4.579511694,20.05513002,1085.006828
10.5450,-4.580676676,20.05573696,1084.992483
10.5500,-4.581964255,20.0562879,1084.978171
10.5550,-4.583357165,20.05678436,1084.963875
10.5600,-4.584835068,20.0572013,1084.949579
10.5650,-4.586410015,20.05755307,1084.935286
10.5700,-4.58804538,20.05783382,1084.920988
10.5750,-4.589748582,20.05804185,1084.906681
10.5800,-4.591495229,20.0581599,1084.892332
10.5850,-4.593318559,20.05815324,1084.877954
10.5900,-4.595192082,20.05802811,1084.863521
10.5950,-4.597106009,20.05781773,1084.849035
10.6000,-4.599045598,20.05745132,1084.834469
10.6050,-4.601056989,20.0569395,1084.819832
10.6100,-4.603127332,20.05627881,1084.805115
10.6150,-4.605274214,20.05547885,1084.790329
10.6200,-4.607410651,20.05458227,1084.775435
10.6250,-4.609553246,20.05358582,1084.760442
10.6300,-4.611698158,20.0524572,1084.745335
10.6350,-4.613809839,20.05120337,1084.730086
10.6400,-4.615882465,20.04986239,1084.714695
10.6450,-4.61792245,20.04842935,1084.699158
10.6500,-4.619930593,20.04692266,1084.683474
10.6550,-4.621905551,20.04532179,1084.667629
10.6600,-4.623799814,20.04365984,1084.651615
10.6650,-4.625592732,20.0419596,1084.635436
10.6700,-4.627274147,20.04026251,1084.619088
10.6750,-4.628852055,20.03856101,1084.60257
10.6800,-4.630325046,20.03682922,1084.585889
10.6850,-4.631666542,20.03511656,1084.569041
10.6900,-4.632867789,20.0334382,1084.552034
10.6950,-4.633897237,20.03180723,1084.534844
10.7000,-4.634751956,20.0302251,1084.517472
10.7050,-4.635468495,20.02867508,1084.49993
10.7100,-4.636051364,20.02714425,1084.482221
10.7150,-4.63649079,20.02562838,1084.464326
10.7200,-4.63683086,20.02410297,1084.446263
10.7250,-4.637038761,20.02258521,1084.428038
10.7300,-4.637139284,20.02102692,1084.409628
10.7350,-4.637146808,20.01946685,1084.391075
10.7400,-4.637084373,20.01788615,1084.372369
10.7450,-4.636934771,20.01627911,1084.353508
10.7500,-4.636714886,20.01465106,1084.33449
10.7550,-4.636443458,20.01302213,1084.315347
10.7600,-4.6360935,20.01133671,1084.296028
10.7650,-4.635675721,20.00964886,1084.276578
10.7700,-4.635197613,20.00795427,1084.256994
10.7750,-4.634644974,20.00622066,1084.237249
10.7800,-4.634061563,20.00445584,1084.217373
10.7850,-4.633416299,20.00268821,1084.197378
10.7900,-4.632757751,20.00093104,1084.177282
10.7950,-4.632065717,19.99911715,1084.157038
10.8000,-4.63137888,19.99724167,1084.136672
10.8050,-4.63070414,19.99533848,1084.116185
10.8100,-4.630072039,19.99340974,1084.095593
10.8150,-4.629466689,19.99145432,1084.074907
10.8200,-4.628868386,19.9894976,1084.054121
10.8250,-4.628274805,19.98754419,1084.033247
10.8300,-4.627689434,19.98558611,1084.012264
10.8350,-4.627136547,19.98365047,1083.991205
10.8400,-4.626606049,19.98169148,1083.970063
10.8450,-4.626057102,19.97969951,1083.948814
10.8500,-4.625484538,19.97771636,1083.927459
10.8550,-4.624896403,19.97568965,1083.906001
10.8600,-4.624354813,19.97362963,1083.884461
10.8650,-4.623853581,19.97153488,1083.862839
10.8700,-4.623477808,19.96940365,1083.841169
10.8750,-4.623168526,19.96727146,1083.819433
10.8800,-4.622938848,19.96514904,1083.797658
10.8850,-4.622743549,19.96307617,1083.775807
10.8900,-4.622589243,19.96106635,1083.7539
10.8950,-4.622491069,19.95912531,1083.731937
10.9000,-4.622484233,19.9572192,1083.709907
10.9050,-4.622510392,19.95537537,1083.687825
10.9100,-4.622584113,19.95361442,1083.66568
10.9150,-4.622678371,19.95193685,1083.643473
10.9200,-4.62282276,19.95029192,1083.621202
10.9250,-4.62302013,19.94870846,1083.598882
10.9300,-4.623253879,19.94718486,1083.576506
10.9350,-4.623507789,19.94575772,1083.554091
10.9400,-4.623790974,19.94442241,1083.531632
10.9450,-4.624053829,19.94316367,1083.509104
10.9500,-4.624290584,19.94199093,1083.486508
10.9550,-4.624474786,19.94088399,1083.463815
10.9600,-4.62463851,19.9398785,1083.441048
10.9650,-4.624762028,19.93889361,1083.41816
10.9700,-4.624844662,19.93794337,1083.395173
10.9750,-4.624835963,19.93702592,1083.372053
10.9800,-4.624726293,19.93611284,1083.348784
10.9850,-4.624537844,19.93515077,1083.325357
10.9900,-4.624271091,19.93414293,1083.301757
10.9950,-4.623891768,19.93306865,1083.277962
11.0000,-4.623399993,19.93189415,1083.25397
11.0050,-4.622777812,19.9306591,1083.229773
11.0100,-4.62197755,19.92936498,1083.205358
11.0150,-4.621034298,19.92796868,1083.180729
11.0200,-4.619927587,19.9265144,1083.155877
11.0250,-4.618700497,19.92497675,1083.130801
11.0300,-4.617332281,19.92335842,1083.105505
11.0350,-4.61579644,19.92164451,1083.079963
11.0400,-4.614078048,19.91983645,1083.054182
11.0450,-4.612194402,19.91793758,1083.028151
11.0500,-4.610151397,19.91593244,1083.001885
11.0550,-4.607928751,19.9138631,1082.97538
11.0600,-4.605544924,19.91169166,1082.948647
11.0650,-4.602949572,19.90942025,1082.921676
11.0700,-4.600154408,19.90706758,1082.894473
11.0750,-4.597154465,19.90462144,1082.867039
11.0800,-4.593929856,19.90208537,1082.839383
11.0850,-4.590525405,19.89942476,1082.811498
11.0900,-4.586859746,19.89666584,1082.783357
11.0950,-4.582943462,19.8938728,1082.755003
11.1000,-4.578759415,19.89104662,1082.72643
11.1050,-4.57430947,19.88817904,1082.697645
11.1100,-4.569559855,19.88529551,1082.668639
11.1150,-4.564543213,19.88238509,1082.639408
11.1200,-4.559266259,19.8794179,1082.609942
11.1250,-4.553711753,19.87640272,1082.580247
11.1300,-4.547861642,19.8733249,1082.550319
11.1350,-4.541693669,19.87020647,1082.520159
11.1400,-4.535236574,19.86706612,1082.48977
11.1450,-4.528514742,19.86388056,1082.459169
11.1500,-4.521525536,19.86067648,1082.428376
11.1550,-4.514256062,19.85745081,1082.397381
11.1600,-4.506612963,19.85422149,1082.366175
11.1650,-4.498612057,19.85100496,1082.334762
11.1700,-4.4901564,19.84780799,1082.303136
11.1750,-4.481300932,19.84461973,1082.271296
11.1800,-4.472004922,19.84141176,1082.239213
11.1850,-4.462299557,19.83817513,1082.206915
11.1900,-4.452124625,19.83489156,1082.174372
11.1950,-4.441435084,19.83151718,1082.141572
11.2000,-4.430154938,19.82816203,1082.108517
11.2050,-4.418291025,19.82482187,1082.075203
11.2100,-4.405804874,19.82144763,1082.041622
11.2150,-4.39268934,19.81801081,1082.007739
11.2200,-4.378919324,19.81452745,1081.973569
11.2250,-4.364441009,19.81096901,1081.939093
11.2300,-4.349274929,19.80731072,1081.904289
11.2350,-4.33346808,19.80351581,1081.869182
11.2400,-4.317018293,19.79954506,1081.83375
11.2450,-4.299963749,19.79537727,1081.798007
11.2500,-4.282351315,19.79096308,1081.761955
11.2550,-4.264212295,19.78628484,1081.725621
11.2600,-4.245558156,19.78129147,1081.688985
11.2650,-4.226409782,19.77597759,1081.652049
11.2700,-4.206855013,19.77031408,1081.614819
11.2750,-4.186945862,19.76423421,1081.577314
11.2800,-4.166717395,19.75776637,1081.539548
11.2850,-4.146200461,19.75093248,1081.501549
11.2900,-4.125415484,19.74369043,1081.463332
11.2950,-4.104414645,19.73607113,1081.424929
11.3000,-4.083266123,19.72808413,1081.386361
11.3050,-4.062056256,19.71971663,1081.347652
11.3100,-4.040846083,19.71096493,1081.308809
11.3150,-4.019687435,19.70186419,1081.269871
11.3200,-3.998565915,19.69244497,1081.230848
11.3250,-3.977454234,19.68275305,1081.191751
11.3300,-3.956385367,19.6728343,1081.152614
11.3350,-3.935366704,19.66276677,1081.113455
11.3400,-3.914412505,19.6526168,1081.074288
11.3450,-3.893505829,19.64238458,1081.035123
11.3500,-3.872577264,19.63210075,1080.99596
11.3550,-3.85161283,19.62178039,1080.956805
11.3600,-3.830580128,19.61149627,1080.91767
11.3650,-3.809526456,19.60125905,1080.87854
11.3700,-3.788445114,19.59106409,1080.839429
11.3750,-3.767424377,19.58094513,1080.800354
11.3800,-3.746465126,19.5709434,1080.761326
11.3850,-3.725554447,19.5611022,1080.722361
11.3900,-3.704801801,19.55143637,1080.683491
11.3950,-3.684245435,19.54189462,1080.644681
11.4000,-3.663946898,19.53252021,1080.605937
11.4050,-3.643897506,19.5233071,1080.567248
11.4100,-3.624122587,19.51428429,1080.528626
11.4150,-3.604567349,19.50549178,1080.490067
11.4200,-3.585260825,19.49693729,1080.451586
11.4250,-3.566210529,19.48872038,1080.413204
11.4300,-3.547405241,19.48083029,1080.374928
11.4350,-3.528853009,19.47326728,1080.336753
11.4400,-3.510537289,19.46607063,1080.298689
11.4450,-3.492439294,19.45930299,1080.260735
11.4500,-3.474531569,19.45292722,1080.222868
11.4550,-3.456789401,19.44699242,1080.185105
11.4600,-3.439192011,19.441484,1080.147419
11.4650,-3.421719423,19.43641931,1080.109814
11.4700,-3.404385638,19.43180195,1080.072265
11.4750,-3.387104188,19.42758583,1080.034749
11.4800,-3.369863281,19.42380749,1079.997275
11.4850,-3.352609978,19.42040177,1079.959811
11.4900,-3.335336807,19.41732846,1079.922349
11.4950,-3.318018448,19.41459516,1079.884873
11.5000,-3.300692479,19.41207394,1079.84738
11.5050,-3.283369341,19.40970667,1079.809839
11.5100,-3.266081111,19.40740047,1079.772247
11.5150,-3.248861677,19.40515051,1079.734618
11.5200,-3.231830196,19.40285289,1079.69693
11.5250,-3.21499928,19.4004663,1079.659172
11.5300,-3.198360408,19.39800536,1079.621358
11.5350,-3.181960204,19.39542639,1079.583483
11.5400,-3.165811113,19.39266575,1079.545538
11.5450,-3.14996945,19.3897474,1079.507547
11.5500,-3.134388246,19.38661647,1079.469498
11.5550,-3.119049657,19.38330069,1079.431392
11.5600,-3.103954181,19.37976765,1079.393243
11.5650,-3.089056735,19.3760039,1079.355073
11.5700,-3.074307496,19.37199075,1079.316884
11.5750,-3.059690317,19.36772791,1079.278695
11.5800,-3.045189272,19.36316364,1079.240514
11.5850,-3.03075297,19.35822865,1079.202322
11.5900,-3.016477315,19.35288562,1079.164156
11.5950,-3.002356342,19.34713745,1079.126014
11.6000,-2.988376339,19.34095811,1079.087917
11.6050,-2.974470072,19.33437407,1079.049887
11.6100,-2.960608503,19.32742735,1079.01195
11.6150,-2.946667505,19.32015344,1078.974095
11.6200,-2.932642399,19.31255294,1078.936339
11.6250,-2.918525578,19.30459463,1078.898692
11.6300,-2.904215709,19.29633258,1078.861132
11.6350,-2.889699788,19.28769629,1078.823667
11.6400,-2.87492788,19.27867458,1078.786312
11.6450,-2.859932426,19.26930229,1078.749083
11.6500,-2.844746917,19.25960532,1078.711991
11.6550,-2.829377697,19.24954937,1078.675044
11.6600,-2.813864183,19.2390985,1078.638255
11.6650,-2.798220335,19.22828652,1078.601659
11.6700,-2.782435874,19.21709126,1078.565254
11.6750,-2.766422373,19.20559134,1078.529061
11.6800,-2.75019281,19.19372647,1078.493065
11.6850,-2.733751357,19.18154681,1078.457282
11.6900,-2.717069889,19.16900531,1078.421694
11.6950,-2.700141162,19.15616647,1078.386335
11.7000,-2.6829022,19.14300588,1078.351217
11.7050,-2.665369382,19.12959798,1078.316353
11.7100,-2.647544857,19.11592332,1078.281735
11.7150,-2.629478086,19.10196342,1078.247363
11.7200,-2.61111161,19.08773899,1078.213235
11.7250,-2.592513435,19.07319313,1078.179351
11.7300,-2.573676621,19.05837513,1078.145714
11.7350,-2.554603038,19.0433176,1078.112335
11.7400,-2.535282275,19.02801012,1078.079213
11.7450,-2.515699556,19.01249478,1078.046349
11.7500,-2.495902146,18.99683392,1078.013767
11.7550,-2.475868781,18.98101386,1077.981445
11.7600,-2.455573975,18.96511561,1077.949382
11.7650,-2.435028334,18.94912628,1077.917589
11.7700,-2.414198342,18.93306057,1077.886062
11.7750,-2.39311797,18.91701259,1077.854827
11.7800,-2.371823132,18.90092181,1077.823861
11.7850,-2.350349171,18.88485027,1077.793178
11.7900,-2.328706418,18.86879963,1077.76277
11.7950,-2.306954707,18.85269807,1077.732635
11.8000,-2.285110085,18.83660874,1077.702778
11.8050,-2.263166526,18.82050026,1077.67319
11.8100,-2.241203375,18.80442013,1077.643877
11.8150,-2.219253679,18.78832397,1077.614834
11.8200,-2.197312091,18.77220278,1077.586055
11.8250,-2.175447276,18.75609109,1077.557556
11.8300,-2.153724337,18.73993632,1077.529321
11.8350,-2.132126861,18.72373909,1077.501347
11.8400,-2.110707259,18.70754273,1077.47364
11.8450,-2.089420023,18.69133873,1077.446192
11.8500,-2.068224136,18.67515663,1077.418996
11.8550,-2.047150251,18.65896847,1077.392046
11.8600,-2.026220669,18.64282342,1077.36536
11.8650,-2.005486853,18.62674068,1077.338926
11.8700,-1.984954983,18.61075168,1077.312746
11.8750,-1.964621236,18.59490888,1077.286822
11.8800,-1.944472411,18.57923838,1077.261154
11.8850,-1.924542453,18.56382332,1077.235757
11.8900,-1.904762011,18.54869374,1077.210619
11.8950,-1.885140904,18.53383952,1077.185737
11.9000,-1.865632608,18.51930621,1077.161091
11.9050,-1.846240443,18.50508167,1077.136679
11.9100,-1.826997995,18.49111798,1077.112485
11.9150,-1.807922937,18.47739204,1077.088515
11.9200,-1.789040431,18.46387349,1077.064766
11.9250,-1.770337193,18.45059186,1077.041246
11.9300,-1.751874846,18.43748464,1077.017959
11.9350,-1.733664487,18.42453848,1076.994905
11.9400,-1.715726039,18.41174265,1076.972077
11.9450,-1.698010636,18.39907136,1076.949475
11.9500,-1.680472072,18.38650604,1076.927095
11.9550,-1.663092812,18.37407893,1076.904943
11.9600,-1.645845651,18.36182804,1076.883012
11.9650,-1.628659884,18.34976106,1076.861294
11.9700,-1.611499495,18.33792787,1076.839789
11.9750,-1.594318444,18.3262985,1076.818491
11.9800,-1.577076886,18.31492319,1076.797394
11.9850,-1.559707461,18.30373973,1076.77648
11.9900,-1.542187371,18.29279634,1076.755771
11.9950,-1.524472549,18.28209429,1076.735252
12.0000,-1.506553709,18.27163811,1076.714918
12.0050,-1.488414259,18.26139935,1076.694758
12.0100,-1.470079262,18.25136991,1076.67479
12.0150,-1.451525827,18.24155273,1076.655009
12.0200,-1.432841946,18.23197137,1076.635432
12.0250,-1.413967798,18.2226251,1076.616041
12.0300,-1.394961025,18.2135296,1076.596833
12.0350,-1.375815644,18.20469588,1076.577808
12.0400,-1.356609596,18.19611417,1076.558972
12.0450,-1.337369778,18.18778685,1076.540327
12.0500,-1.318107182,18.17967105,1076.521855
12.0550,-1.298843437,18.17180292,1076.503563
12.0600,-1.279666727,18.164088,1076.485459
12.0650,-1.26055403,18.15653382,1076.467528
12.0700,-1.24157887,18.14911864,1076.449776
12.0750,-1.222757191,18.14177714,1076.43219
12.0800,-1.204104432,18.13451834,1076.414787
12.0850,-1.185633509,18.12729468,1076.397548
12.0900,-1.167372965,18.12010388,1076.380481
12.0950,-1.149316834,18.11299612,1076.363597
12.1000,-1.131511145,18.10588785,1076.346882
12.1050,-1.114004973,18.09877203,1076.330343
12.1100,-1.096791519,18.09164215,1076.313975
12.1150,-1.079867273,18.08452815,1076.297786
12.1200,-1.063196584,18.07745728,1076.281777
12.1250,-1.046801716,18.07040764,1076.265949
12.1300,-1.030671018,18.06339626,1076.250312
12.1350,-1.01479479,18.05641246,1076.234855
12.1400,-0.9992033522,18.04946167,1076.219589
12.1450,-0.9839228295,18.0425419,1076.20451
12.1500,-0.9690389541,18.03567268,1076.18964
12.1550,-0.9545430588,18.02886441,1076.174981
12.1600,-0.9403941197,18.02208557,1076.160516
12.1650,-0.9266207351,18.01530589,1076.146243
12.1700,-0.9132310192,18.00856551,1076.132184
12.1750,-0.9002391429,18.00176938,1076.11832
12.1800,-0.8876620395,17.99490818,1076.104652
12.1850,-0.8755146491,17.98791482,1076.091175
12.1900,-0.8637403496,17.98081702,1076.077876
12.1950,-0.8523300525,17.97353515,1076.064746
12.2000,-0.8412557957,17.9660339,1076.051779
12.2050,-0.8304904711,17.95829823,1076.038966
12.2100,-0.8199902513,17.95037584,1076.026315
12.2150,-0.8096971717,17.9422393,1076.013806
12.2200,-0.7994856114,17.93391124,1076.001426
12.2250,-0.7893162689,17.92541807,1075.989171
12.2300,-0.7790705922,17.9167532,1075.977027
12.2350,-0.7686507268,17.90800914,1075.964992
12.2400,-0.7579762133,17.899178,1075.953058
12.2450,-0.7469763342,17.89032758,1075.941219
12.2500,-0.7355857218,17.88150418,1075.929477
12.2550,-0.7237747483,17.87272429,1075.917831
12.2600,-0.7114615917,17.86404963,1075.906278
12.2650,-0.6986776285,17.85548153,1075.894822
12.2700,-0.6854237794,17.84704395,1075.883471
12.2750,-0.6717166663,17.83870806,1075.872218
12.2800,-0.6575554809,17.83053948,1075.861071
12.2850,-0.6429704298,17.82259205,1075.85004
12.2900,-0.6280147062,17.81485247,1075.839123
12.2950,-0.6127410094,17.80730916,1075.828327
12.3000,-0.5972209878,17.79996797,1075.817659
12.3050,-0.5815286088,17.7928141,1075.807126
12.3100,-0.5656940006,17.78584749,1075.796723
12.3150,-0.5498392082,17.77900096,1075.786454
12.3200,-0.5339855713,17.77228858,1075.776318
12.3250,-0.5181997262,17.76567205,1075.76632
12.3300,-0.5025494995,17.75912571,1075.756459
12.3350,-0.4871147488,17.75263424,1075.746745
12.3400,-0.4718903784,17.74619121,1075.737169
12.3450,-0.4569456659,17.73975802,1075.727737
12.3500,-0.4423269909,17.73336362,1075.718457
12.3550,-0.4280325687,17.72699003,1075.709325
12.3600,-0.4140859541,17.72067823,1075.700344
12.3650,-0.4004679372,17.71445591,1075.691518
12.3700,-0.3870904464,17.70830709,1075.682831
12.3750,-0.373961036,17.70224433,1075.674285
12.3800,-0.3610187983,17.69629969,1075.665869
12.3850,-0.3482557115,17.69050515,1075.657593
12.3900,-0.3356534998,17.68488251,1075.649457
12.3950,-0.323209414,17.67941431,1075.641456
12.4000,-0.3108845553,17.6741549,1075.633593
12.4050,-0.2986605836,17.66916054,1075.625874
12.4100,-0.2865417635,17.66443228,1075.618301
12.4150,-0.2745639834,17.65993309,1075.610868
12.4200,-0.2627448383,17.65566982,1075.603579
12.4250,-0.251107747,17.65160514,1075.596426
12.4300,-0.2396666541,17.64775673,1075.589417
12.4350,-0.2284660266,17.64411779,1075.582559
12.4400,-0.2174733474,17.64065022,1075.575843
12.4450,-0.2066954077,17.63733642,1075.569269
12.4500,-0.1960743391,17.63413866,1075.562817
12.4550,-0.1856147798,17.63101513,1075.556485
12.4600,-0.175349172,17.6279721,1075.550279
12.4650,-0.1651986762,17.62498603,1075.544187
12.4700,-0.155180481,17.62199871,1075.538201
12.4750,-0.1452138513,17.61903748,1075.532315
12.4800,-0.1352736019,17.6160939,1075.526523
12.4850,-0.1253236938,17.61317238,1075.520818
12.4900,-0.1153555122,17.61021664,1075.515196
12.4950,-0.105373125,17.60724674,1075.509658
12.5000,-0.0953299877,17.60424754,1075.504197
12.5050,-0.0852442777,17.60119184,1075.498812
12.5100,-0.07506177474,17.59804636,1075.493484
12.5150,-0.06483010005,17.5948178,1075.488222
12.5200,-0.05458805503,17.59150235,1075.483032
12.5250,-0.04436036739,17.58808008,1075.47791
12.5300,-0.03414894007,17.58462192,1075.472865
12.5350,-0.02402124905,17.58109103,1075.467898
12.5400,-0.01401121714,17.57753658,1075.463021
12.5450,-0.004140420257,17.57398751,1075.458241
12.5500,0.005533061307,17.57042232,1075.453555
12.5550,0.01499976571,17.56685099,1075.448966
12.5600,0.02420494751,17.56325814,1075.44448
12.5650,0.0330980097,17.55967124,1075.440108
12.5700,0.0416400531,17.55609279,1075.435853
12.5750,0.04987505936,17.55261735,1075.431721
12.5800,0.05784771066,17.54924369,1075.427703
12.5850,0.06554583557,17.5460133,1075.42381
12.5900,0.07302284851,17.54296025,1075.420033
12.5950,0.08026411392,17.5400785,1075.416373
12.6000,0.08726904017,17.53737758,1075.412832
12.6050,0.09404821593,17.53480313,1075.409403
12.6100,0.1005905491,17.53232804,1075.406085
12.6150,0.1069678675,17.52997716,1075.402872
12.6200,0.1131999865,17.52774791,1075.399762
12.6250,0.1193615968,17.52559897,1075.396735
12.6300,0.1255547216,17.52355115,1075.393782
12.6350,0.1318205698,17.52154853,1075.390886
12.6400,0.1381759918,17.51960103,1075.388047
12.6450,0.1446963613,17.51773107,1075.385251
12.6500,0.1514097818,17.51588213,1075.382486
12.6550,0.15828423,17.51411497,1075.379764
12.6600,0.1653262221,17.51245458,1075.377085
12.6650,0.1725209192,17.51093373,1075.374452
12.6700,0.1798305736,17.50961555,1075.371876
12.6750,0.1872863935,17.50857683,1075.369359
12.6800,0.1948901395,17.50779324,1075.366897
12.6850,0.2026198454,17.50735942,1075.364506
12.6900,0.2104426581,17.50727097,1075.362185
12.6950,0.2183104718,17.50753452,1075.359942
12.7000,0.226189681,17.50813808,1075.357781
12.7050,0.2340819041,17.50908096,1075.355699
12.7100,0.241989995,17.51033097,1075.353689
12.7150,0.2499434166,17.51190538,1075.351751
12.7200,0.2579724872,17.51381298,1075.349878
12.7250,0.2661326367,17.51604965,1075.348063
12.7300,0.2744649511,17.51859267,1075.346291
12.7350,0.2830282861,17.52139632,1075.344548
12.7400,0.2918869277,17.52445316,1075.342819
12.7450,0.3010958824,17.52776674,1075.341098
12.7500,0.3106415662,17.53133305,1075.339387
12.7550,0.320562839,17.53512219,1075.337673
12.7600,0.3309058849,17.53908317,1075.335945
12.7650,0.3416773095,17.5432413,1075.334202
12.7700,0.3529109997,17.54753033,1075.332431
12.7750,0.3645624829,17.5519358,1075.330639
12.7800,0.3765980562,17.55642159,1075.328825
12.7850,0.3890079437,17.56096314,1075.326988
12.7900,0.4017355582,17.56552206,1075.32513
12.7950,0.4147707124,17.57010435,1075.323257
12.8000,0.4279915015,17.57471627,1075.321387
12.8050,0.4413561982,17.57933331,1075.319524
12.8100,0.454808083,17.5839473,1075.317673
12.8150,0.4683423423,17.58856509,1075.31584
12.8200,0.4818457413,17.59318889,1075.314039
12.8250,0.4953064735,17.59781425,1075.312272
12.8300,0.5086592355,17.6023556,1075.310537
12.8350,0.5218585457,17.60683518,1075.308845
12.8400,0.5349051195,17.61122261,1075.307191
12.8450,0.5476913387,17.6154486,1075.305579
12.8500,0.5602732954,17.6195793,1075.304012
12.8550,0.5725823141,17.62358658,1075.302496
12.8600,0.5846290274,17.62748798,1075.301031
12.8650,0.5964953009,17.63125162,1075.299598
12.8700,0.6082316289,17.63489128,1075.298193
12.8750,0.6197609232,17.63837748,1075.296822
12.8800,0.630987715,17.64170204,1075.295497
12.8850,0.6418950446,17.64479845,1075.294209
12.8900,0.6524537685,17.64767984,1075.292966
12.8950,0.6626757987,17.65033539,1075.291762
12.9000,0.6725620079,17.65276004,1075.290595
12.9050,0.6821249092,17.65498714,1075.289465
12.9100,0.6913381909,17.65704762,1075.288381
12.9150,0.7001251294,17.65896411,1075.287355
12.9200,0.7084546458,17.66073224,1075.286389
12.9250,0.7162091124,17.66238465,1075.285504
12.9300,0.7232761221,17.66388854,1075.284711
12.9350,0.729607768,17.66530624,1075.284024
12.9400,0.7351291574,17.66661071,1075.283447
12.9450,0.739776177,17.66778904,1075.282987
12.9500,0.7435079817,17.66888397,1075.282654
12.9550,0.7463242408,17.6698965,1075.282449
12.9600,0.7482305742,17.6708122,1075.282367
12.9650,0.7491614237,17.67160781,1075.282413
12.9700,0.7490950703,17.67227368,1075.28259
12.9750,0.747986638,17.67279467,1075.282903
12.9800,0.7457772495,17.67322223,1075.283368
12.9850,0.7425001267,17.67345634,1075.283965
12.9900,0.7381270411,17.67350092,1075.284698
12.9950,0.7327269594,17.67339803,1075.285567
13.0000,0.7263413701,17.67314937,1075.286565
13.0050,0.7189813129,17.67273855,1075.287688
13.0100,0.7106865778,17.67221034,1075.288939
13.0150,0.7015139793,17.67155789,1075.290308
13.0200,0.6914302075,17.67076725,1075.291801
13.0250,0.6805248688,17.66985173,1075.293407
13.0300,0.6688130234,17.66875891,1075.295117
13.0350,0.656342112,17.66747737,1075.296924
13.0400,0.64316322,17.66601462,1075.298825
13.0450,0.629312627,17.66429084,1075.300801
13.0500,0.6148400596,17.66232433,1075.30285
13.0550,0.5998224928,17.66010383,1075.304961
13.0600,0.5842520329,17.65765836,1075.307138
13.0650,0.5681364365,17.65494928,1075.309378
13.0700,0.5515796295,17.65200353,1075.311668
13.0750,0.5346928649,17.64879206,1075.313987
13.0800,0.5176003087,17.64535002,1075.316324
13.0850,0.5004247505,17.64165219,1075.318654
13.0900,0.4833013899,17.6377529,1075.320964
13.0950,0.4662857651,17.63363481,1075.323243
13.1000,0.4494514169,17.6293083,1075.32548
13.1050,0.4328809011,17.62475011,1075.327656
13.1100,0.4165829984,17.61995399,1075.329771
13.1150,0.4005668201,17.61491577,1075.331822
13.1200,0.38492652,17.60959453,1075.333787
13.1250,0.3696705978,17.60396438,1075.335663
13.1300,0.3548180929,17.59806282,1075.337451
13.1350,0.3403694264,17.59186169,1075.339144
13.1400,0.32629399,17.58536243,1075.340748
13.1450,0.3126346404,17.5786636,1075.34227
13.1500,0.2993575354,17.57172494,1075.343707
13.1550,0.2864594171,17.56461997,1075.345071
13.1600,0.2738733774,17.55739563,1075.346377
13.1650,0.2615338495,17.55008956,1075.34764
13.1700,0.2493582076,17.5427608,1075.34888
13.1750,0.2372224034,17.53545807,1075.350125
13.1800,0.225108494,17.52821428,1075.35138
13.1850,0.2129357993,17.52107169,1075.352665
13.1900,0.2006017819,17.51410542,1075.354007
13.1950,0.1880208044,17.50736302,1075.355428
13.2000,0.175143343,17.50088327,1075.356943
13.2050,0.1618444621,17.49466049,1075.358575
13.2100,0.1481310795,17.48873458,1075.360327
13.2150,0.1339510009,17.48311055,1075.362214
13.2200,0.1192577028,17.47774047,1075.364239
13.2250,0.1040865436,17.47264047,1075.366401
13.2300,0.08840404905,17.46778522,1075.368707
13.2350,0.07225745252,17.46311298,1075.371145
13.2400,0.05567313446,17.45862695,1075.373715
13.2450,0.03861831474,17.454306,1075.376425
13.2500,0.02116298813,17.45012905,1075.379263
13.2550,0.00328632877,17.44604555,1075.382232
13.2600,-0.0149593343,17.44206533,1075.385327
13.2650,-0.03350941735,17.43815394,1075.388535
13.2700,-0.05229547761,17.43432178,1075.39185
13.2750,-0.07130838134,17.43055212,1075.395271
13.2800,-0.09045361205,17.42678375,1075.398775
13.2850,-0.1097262054,17.42305849,1075.402373
13.2900,-0.1290713961,17.41940815,1075.406058
13.2950,-0.148496619,17.41584084,1075.409835
13.3000,-0.1679907868,17.41232916,1075.413702
13.3050,-0.1875447338,17.40887986,1075.417661
13.3100,-0.20714822,17.40549231,1075.421711
13.3150,-0.2268136035,17.40214459,1075.425853
13.3200,-0.2465170214,17.39881152,1075.430082
13.3250,-0.2663070517,17.3954757,1075.434407
13.3300,-0.2862024017,17.39215917,1075.438838
13.3350,-0.3061991079,17.38884386,1075.443377
13.3400,-0.3263271961,17.38548839,1075.448025
13.3450,-0.3465569387,17.38214332,1075.452788
13.3500,-0.3668444255,17.37872465,1075.457652
13.3550,-0.3871796714,17.37528014,1075.462625
13.3600,-0.4074390458,17.37172742,1075.467678
13.3650,-0.4275546527,17.36803082,1075.472798
13.3700,-0.447524242,17.36415203,1075.477985
13.3750,-0.4673078805,17.36010368,1075.48324
13.3800,-0.4868838249,17.35586142,1075.488564
13.3850,-0.5062057559,17.35146194,1075.49396
13.3900,-0.5252510191,17.34684356,1075.499426
13.3950,-0.5439598373,17.34204337,1075.50496
13.4000,-0.5621888136,17.33697809,1075.510529
13.4050,-0.5798749732,17.33169138,1075.516139
13.4100,-0.5969454541,17.3261555,1075.521778
13.4150,-0.6133434336,17.32040159,1075.52745
13.4200,-0.629088194,17.31440666,1075.533167
13.4250,-0.6441168888,17.30821492,1075.538931
13.4300,-0.6584777318,17.30182458,1075.544762
13.4350,-0.6720933234,17.29522898,1075.550656
13.4400,-0.6849853214,17.28846394,1075.556636
13.4450,-0.6971212571,17.28150026,1075.562707
13.4500,-0.7085522373,17.27435041,1075.568895
13.4550,-0.7192371603,17.26701291,1075.575209
13.4600,-0.7291289904,17.25950688,1075.581658
13.4650,-0.7382521876,17.25182463,1075.588263
13.4700,-0.7465328272,17.24394624,1075.595028
13.4750,-0.7539200082,17.23589865,1075.601964
13.4800,-0.7604051169,17.22766059,1075.609086
13.4850,-0.7660052338,17.21928776,1075.616425
13.4900,-0.7706628498,17.21072323,1075.623981
13.4950,-0.7743232894,17.20200937,1075.631774
13.5000,-0.7769697573,17.19315885,1075.639821
13.5050,-0.7785176201,17.18426316,1075.648136
13.5100,-0.7790324538,17.17531656,1075.656755
13.5150,-0.778432185,17.16639018,1075.665686
13.5200,-0.7767235261,17.15752536,1075.674958
13.5250,-0.7739780606,17.14877074,1075.684601
13.5300,-0.7702331046,17.14019155,1075.69464
13.5350,-0.7656298703,17.1318364,1075.705114
13.5400,-0.7602919272,17.12375788,1075.716051
13.5450,-0.7543110933,17.11598504,1075.727468
13.5500,-0.747897841,17.10856127,1075.739411
13.5550,-0.7412108053,17.10149926,1075.751893
13.5600,-0.7345051202,17.09481583,1075.764953
13.5650,-0.727997528,17.08854311,1075.778612
