type,name,time_units,begin_time,frequency,count,units
signal_3d,"Noraxon MyoMotion-Trajectories-Medial humeral epicondyle RT","s",0.0000,200,5068,"mm"

time,x,y,z
0.0000,135.4081706,-4.024349748,1244.788272
0.0050,135.4373338,-4.007366133,1244.783835
0.0100,135.4664946,-3.990377371,1244.779404
0.0150,135.4956532,-3.973383461,1244.774979
0.0200,135.5326023,-3.957819507,1244.768268
0.0250,135.5782056,-3.944294707,1244.758933
0.0300,135.6332808,-3.933407679,1244.746644
0.0350,135.69857,-3.925715344,1244.731095
0.0400,135.7747056,-3.921707897,1244.712016
0.0450,135.862178,-3.921789527,1244.689184
0.0500,135.9613144,-3.926260089,1244.662433
0.0550,136.0722679,-3.935303156,1244.631658
0.0600,136.1950085,-3.948988339,1244.596819
0.0650,136.3293129,-3.967279639,1244.557942
0.0700,136.474758,-3.990037458,1244.515123
0.0750,136.6307184,-4.01701815,1244.468525
0.0800,136.7963662,-4.047877846,1244.418385
0.0850,136.9706736,-4.082175765,1244.365007
0.0900,137.152426,-4.119377105,1244.308764
0.0950,137.3402453,-4.158863944,1244.250088
0.1000,137.5326162,-4.199951659,1244.189463
0.1050,137.7279157,-4.24190257,1244.127419
0.1100,137.9244414,-4.283938356,1244.06452
0.1150,138.1204399,-4.325255398,1244.001356
0.1200,138.3141346,-4.365042445,1243.938535
0.1250,138.5037582,-4.402499699,1243.87667
0.1300,138.6875868,-4.436859232,1243.816366
0.1350,138.8639751,-4.467405983,1243.758213
0.1400,139.0313926,-4.493499311,1243.702765
0.1450,139.1884602,-4.514593924,1243.650535
0.1500,139.3339861,-4.530255209,1243.601978
0.1550,139.5182269,-4.5507323,1243.540666
0.1600,139.6871893,-4.566203361,1243.484353
0.1650,139.8395048,-4.576959718,1243.433368
0.1700,139.975335,-4.583729419,1243.387697
0.1750,140.0940722,-4.585685834,1243.347607
0.1800,140.196241,-4.584294875,1243.312907
0.1850,140.2825204,-4.579452191,1243.283514
0.1900,140.3531965,-4.570911843,1243.259607
0.1950,140.407671,-4.560836966,1243.240907
0.2000,140.4463436,-4.549651505,1243.22725
0.2050,140.4693764,-4.53776892,1243.218595
0.2100,140.4776856,-4.525627537,1243.214605
0.2150,140.4718228,-4.514715249,1243.214953
0.2200,140.4518238,-4.506438466,1243.219367
0.2250,140.4184344,-4.500809806,1243.227529
0.2300,140.3723438,-4.498425677,1243.239239
0.2350,140.3142637,-4.500459042,1243.25408
0.2400,140.2441742,-4.506101508,1243.272173
0.2450,140.1627741,-4.51467958,1243.29341
0.2500,140.0709849,-4.527263297,1243.317374
0.2550,139.967772,-4.543900297,1243.344172
0.2600,139.8565931,-4.562989392,1243.373306
0.2650,139.7373736,-4.585073699,1243.404604
0.2700,139.6108457,-4.609880825,1243.437891
0.2750,139.4773979,-4.636299721,1243.473139
0.2800,139.3386128,-4.664804787,1243.509885
0.2850,139.1955176,-4.694408386,1243.548001
0.2900,139.0481189,-4.724656396,1243.587412
0.2950,138.8990463,-4.754928825,1243.627575
0.3000,138.7500837,-4.7856333,1243.668017
0.3050,138.6007483,-4.816648401,1243.70878
0.3100,138.4531988,-4.846366486,1243.749521
0.3150,138.3088009,-4.875085175,1243.789867
0.3200,138.1689871,-4.903539017,1243.82922
0.3250,138.0343896,-4.931442591,1243.867362
0.3300,137.9047169,-4.959510394,1243.904092
0.3350,137.7807744,-4.986667542,1243.939313
0.3400,137.6640029,-5.014204873,1243.972442
0.3450,137.5538935,-5.040907303,1244.003675
0.3500,137.4515114,-5.066012199,1244.032784
0.3550,137.3554556,-5.090751588,1244.059841
0.3600,137.265588,-5.115319917,1244.084727
0.3650,137.1815158,-5.138546693,1244.107722
0.3700,137.1028386,-5.160784698,1244.128735
0.3750,137.0289284,-5.181328703,1244.148091
0.3800,136.9594445,-5.200739985,1244.165768
0.3850,136.8942516,-5.21778217,1244.182085
0.3900,136.831553,-5.232641428,1244.197391
0.3950,136.7721745,-5.245989712,1244.211514
0.4000,136.7139636,-5.257085269,1244.225002
0.4050,136.6578244,-5.266365953,1244.237752
0.4100,136.6032042,-5.274251591,1244.249783
0.4150,136.5500211,-5.280810478,1244.261287
0.4200,136.4983711,-5.285728729,1244.272319
0.4250,136.4475431,-5.289805612,1244.282941
0.4300,136.3981514,-5.294232998,1244.292951
0.4350,136.3500755,-5.298127359,1244.302578
0.4400,136.30427,-5.3035506,1244.311341
0.4450,136.2600815,-5.311029305,1244.319315
0.4500,136.2175636,-5.319999291,1244.326601
0.4550,136.1772327,-5.330983367,1244.333077
0.4600,136.1393899,-5.346280396,1244.338225
0.4650,136.1030094,-5.365837399,1244.342314
0.4700,136.0686983,-5.388914735,1244.345414
0.4750,136.0357071,-5.417221277,1244.347352
0.4800,136.0045242,-5.449723163,1244.348264
0.4850,135.974124,-5.486185828,1244.348407
0.4900,135.9447919,-5.526924881,1244.347539
0.4950,135.9164736,-5.570372419,1244.346067
0.5000,135.8890624,-5.617246316,1244.343972
0.5050,135.862406,-5.666375152,1244.341443
0.5100,135.8368123,-5.718352272,1244.338345
0.5150,135.8108941,-5.773213064,1244.334864
0.5200,135.7867645,-5.830116935,1244.33083
0.5250,135.7642518,-5.889133716,1244.326311
0.5300,135.7443776,-5.949820829,1244.321047
0.5350,135.7263789,-6.011932867,1244.315225
0.5400,135.7106136,-6.075069699,1244.30877
0.5450,135.6970395,-6.139908977,1244.301625
0.5500,135.6864949,-6.206751925,1244.293433
0.5550,135.6799728,-6.273786494,1244.284425
0.5600,135.6761853,-6.34266552,1244.274552
0.5650,135.6751241,-6.41268654,1244.263972
0.5700,135.6766198,-6.48363772,1244.252779
0.5750,135.6826362,-6.555834169,1244.240564
0.5800,135.6930524,-6.628284036,1244.227627
0.5850,135.7078823,-6.702402757,1244.21371
0.5900,135.7288117,-6.777477646,1244.198729
0.5950,135.7557399,-6.853666799,1244.182821
0.6000,135.788022,-6.930375785,1244.166213
0.6050,135.8279134,-7.007338201,1244.148639
0.6100,135.8755092,-7.085334154,1244.130071
0.6150,135.9311145,-7.164178043,1244.11051
0.6200,135.9955317,-7.243918095,1244.090017
0.6250,136.0691764,-7.324068821,1244.068586
0.6300,136.1525755,-7.405221426,1244.046138
0.6350,136.2461172,-7.48650917,1244.022868
0.6400,136.349858,-7.568285367,1243.998766
0.6450,136.4645893,-7.650615276,1243.973705
0.6500,136.5891321,-7.734939193,1243.947892
0.6550,136.7241764,-7.819225671,1243.921507
0.6600,136.8696089,-7.904739643,1243.894371
0.6650,137.0251227,-7.991377344,1243.866737
0.6700,137.1895899,-8.07991098,1243.83863
0.6750,137.3622588,-8.170203769,1243.81024
0.6800,137.5423081,-8.262430068,1243.781715
0.6850,137.7296346,-8.357606224,1243.752864
0.6900,137.922922,-8.45552395,1243.723905
0.6950,138.1204015,-8.55710419,1243.694877
0.7000,138.3212688,-8.662183063,1243.666024
0.7050,138.5239684,-8.770025192,1243.637637
0.7100,138.7277751,-8.881774125,1243.609631
0.7150,138.9317171,-8.996600569,1243.582206
0.7200,139.1344524,-9.115585432,1243.555382
0.7250,139.3356937,-9.238329903,1243.529082
0.7300,139.5337811,-9.363645767,1243.503765
0.7350,139.7287255,-9.492309164,1243.479193
0.7400,139.9178584,-9.623727403,1243.455791
0.7450,140.1023801,-9.757624179,1243.433244
0.7500,140.2806567,-9.89420135,1243.411753
0.7550,140.451694,-10.03316032,1243.391353
0.7600,140.6153171,-10.17309797,1243.372277
0.7650,140.7723791,-10.31351891,1243.35433
0.7700,140.9218611,-10.45456649,1243.337503
0.7750,141.0639868,-10.59483913,1243.321987
0.7800,141.1985182,-10.73445054,1243.307718
0.7850,141.3260094,-10.87360788,1243.294512
0.7900,141.4463203,-11.0120823,1243.282429
0.7950,141.559689,-11.15016181,1243.271275
0.8000,141.6667868,-11.28771989,1243.260879
0.8050,141.7679657,-11.42413837,1243.251186
0.8100,141.8637638,-11.55892472,1243.242243
0.8150,141.9552825,-11.69155619,1243.233813
0.8200,142.0412676,-11.82250886,1243.226062
0.8250,142.1217018,-11.95072522,1243.21912
0.8300,142.1954597,-12.07663622,1243.213109
0.8350,142.2636063,-12.20010284,1243.207911
0.8400,142.326378,-12.32160866,1243.203364
0.8450,142.3837558,-12.44002612,1243.199662
0.8500,142.4359323,-12.55579495,1243.196792
0.8550,142.4821906,-12.66849024,1243.194928
0.8600,142.5227573,-12.77817989,1243.194089
0.8650,142.5580039,-12.88444965,1243.194217
0.8700,142.5888201,-12.98682595,1243.195338
0.8750,142.6137177,-13.08536266,1243.197723
0.8800,142.6325199,-13.17908256,1243.201509
0.8850,142.6463947,-13.26759578,1243.206563
0.8900,142.6546983,-13.35100617,1243.213059
0.8950,142.6569118,-13.42972896,1243.220916
0.9000,142.6542857,-13.5044073,1243.229929
0.9050,142.6477137,-13.575237,1243.239922
0.9100,142.6366333,-13.64263415,1243.250963
0.9150,142.622226,-13.70615255,1243.262989
0.9200,142.6051428,-13.76527295,1243.275943
0.9250,142.5869037,-13.82055919,1243.289534
0.9300,142.5681183,-13.87102467,1243.303823
0.9350,142.5497883,-13.91857383,1243.31834
0.9400,142.5322336,-13.96207765,1243.333203
0.9450,142.5174386,-14.001922,1243.347999
0.9500,142.5056533,-14.03779701,1243.362671
0.9550,142.4962701,-14.07122909,1243.377164
0.9600,142.4909503,-14.10058945,1243.391533
0.9650,142.4893206,-14.12690586,1243.405541
0.9700,142.491884,-14.14992113,1243.419333
0.9750,142.4971396,-14.17024286,1243.433051
0.9800,142.5056235,-14.18760653,1243.446637
0.9850,142.5149329,-14.20132103,1243.460663
0.9900,142.5256724,-14.21154031,1243.475101
0.9950,142.537347,-14.21768746,1243.49019
1.0000,142.5492454,-14.22047263,1243.506049
1.0050,142.5608147,-14.21941112,1243.522898
1.0100,142.5727418,-14.2147507,1243.540585
1.0150,142.5832446,-14.2071936,1243.559448
1.0200,142.5935801,-14.19603979,1243.579422
1.0250,142.6033475,-14.18215497,1243.600599
1.0300,142.613606,-14.16813883,1243.622531
1.0350,142.6238129,-14.15360429,1243.645489
1.0400,142.6361065,-14.13946303,1243.669104
1.0450,142.6496937,-14.12736636,1243.693431
1.0500,142.6660924,-14.11783571,1243.718266
1.0550,142.6859643,-14.11251769,1243.743434
1.0600,142.7106205,-14.11107352,1243.768773
1.0650,142.7396683,-14.11577664,1243.794209
1.0700,142.7749396,-14.12631832,1243.819484
1.0750,142.8170705,-14.14375915,1243.844384
1.0800,142.8660811,-14.1689331,1243.868833
1.0850,142.9226853,-14.20235058,1243.892653
1.0900,142.9866451,-14.24450741,1243.915751
1.0950,143.0580354,-14.29543228,1243.938203
1.1000,143.1359338,-14.3549469,1243.960168
1.1050,143.2208911,-14.42425345,1243.981473
1.1100,143.3120446,-14.50305224,1244.002307
1.1150,143.4094778,-14.59088178,1244.022791
1.1200,143.513585,-14.68767027,1244.042765
1.1250,143.6226499,-14.79433146,1244.062422
1.1300,143.7374164,-14.91063128,1244.081681
1.1350,143.8569966,-15.03640038,1244.100696
1.1400,143.980811,-15.17139064,1244.119586
1.1450,144.1087193,-15.31602352,1244.138239
1.1500,144.2406921,-15.46966689,1244.156719
1.1550,144.3763351,-15.63356262,1244.174818
1.1600,144.5159617,-15.80721124,1244.192508
1.1650,144.6597536,-15.98957925,1244.210018
1.1700,144.8079133,-16.18121883,1244.227114
1.1750,144.9602212,-16.38198363,1244.243779
1.1800,145.1166682,-16.59285636,1244.259892
1.1850,145.2770043,-16.81311542,1244.275528
1.1900,145.4409303,-17.04295847,1244.290695
1.1950,145.6097338,-17.28110115,1244.305414
1.2000,145.7827358,-17.52808785,1244.319601
1.2050,145.959837,-17.78222503,1244.333397
1.2100,146.1422442,-18.04258617,1244.346855
1.2150,146.3287579,-18.30901518,1244.360072
1.2200,146.5193275,-18.58087611,1244.373132
1.2250,146.7120127,-18.85803009,1244.386464
1.2300,146.9086618,-19.13836321,1244.399978
1.2350,147.1077266,-19.42192682,1244.413925
1.2400,147.3096025,-19.70860706,1244.428346
1.2450,147.511514,-19.99772019,1244.443788
1.2500,147.7143436,-20.28782113,1244.460306
1.2550,147.9178556,-20.57900734,1244.478006
1.2600,148.120666,-20.8715724,1244.496982
1.2650,148.3235394,-21.16349017,1244.517514
1.2700,148.5246359,-21.45478837,1244.539817
1.2750,148.7257461,-21.744183,1244.56382
1.2800,148.9270421,-22.03130709,1244.589523
1.2850,149.1284619,-22.31618656,1244.616958
1.2900,149.3303612,-22.5991689,1244.645999
1.2950,149.5318344,-22.8802955,1244.676763
1.3000,149.7337086,-23.15932588,1244.709178
1.3050,149.9353195,-23.43690456,1244.743267
1.3100,150.1357209,-23.71316302,1244.779094
1.3150,150.335717,-23.98874414,1244.816438
1.3200,150.5342531,-24.2632698,1244.855531
1.3250,150.731422,-24.53645375,1244.896365
1.3300,150.9265841,-24.80687475,1244.939127
1.3350,151.1203182,-25.07603299,1244.983601
1.3400,151.3123098,-25.34290069,1245.029994
1.3450,151.5029508,-25.60710868,1245.078243
1.3500,151.6925265,-25.86913557,1245.128272
1.3550,151.8816978,-26.12634705,1245.180183
1.3600,152.0703381,-26.38063108,1245.233811
1.3650,152.2591685,-26.62968289,1245.289246
1.3700,152.448137,-26.87425082,1245.346478
1.3750,152.6383037,-27.11309579,1245.405423
1.3800,152.8286571,-27.34534722,1245.466324
1.3850,153.0199719,-27.57121071,1245.52891
1.3900,153.2124024,-27.79035125,1245.593255
1.3950,153.4056874,-28.00248032,1245.659288
1.4000,153.5999952,-28.20733774,1245.727032
1.4050,153.7948121,-28.40511211,1245.796356
1.4100,153.9897602,-28.5945491,1245.867442
1.4150,154.1836281,-28.77761048,1245.940076
1.4200,154.3749711,-28.95336918,1246.014529
1.4250,154.5648188,-29.12082662,1246.090591
1.4300,154.7523097,-29.28121793,1246.168164
1.4350,154.9369636,-29.43332495,1246.247354
1.4400,155.1177214,-29.57837403,1246.328163
1.4450,155.2947794,-29.71611821,1246.410476
1.4500,155.4668996,-29.84591204,1246.49444
1.4550,155.6332536,-29.96763855,1246.580188
1.4600,155.7942583,-30.081686,1246.667507
1.4650,155.9491546,-30.18943921,1246.756183
1.4700,156.0976247,-30.291112,1246.846228
1.4750,156.2395548,-30.38702892,1246.937628
1.4800,156.3743595,-30.47731424,1247.030449
1.4850,156.5025601,-30.56220693,1247.124637
1.4900,156.6238994,-30.6414247,1247.220053
1.4950,156.7380191,-30.7161137,1247.316578
1.5000,156.8460211,-30.7853632,1247.414212
1.5050,156.9474862,-30.84942972,1247.512946
1.5100,157.0419571,-30.90824631,1247.612771
1.5150,157.1305053,-30.9608588,1247.713756
1.5200,157.2126635,-31.00793361,1247.815818
1.5250,157.2903628,-31.04801334,1247.918896
1.5300,157.362741,-31.08369338,1248.022883
1.5350,157.4292101,-31.11314448,1248.128109
1.5400,157.489787,-31.13594899,1248.234625
1.5450,157.5455322,-31.15161906,1248.34234
1.5500,157.5971027,-31.16079188,1248.451085
1.5550,157.6442656,-31.16169774,1248.561089
1.5600,157.68794,-31.15481221,1248.672226
1.5650,157.7274917,-31.1405859,1248.784417
1.5700,157.7639893,-31.11920278,1248.897588
1.5750,157.7976065,-31.09141181,1249.011562
1.5800,157.8269481,-31.05747526,1249.126527
1.5850,157.8532843,-31.01756711,1249.242352
1.5900,157.8758804,-30.97037292,1249.35933
1.5950,157.8962531,-30.91695246,1249.477111
1.6000,157.9155319,-30.85600413,1249.595592
1.6050,157.9346661,-30.78821504,1249.714586
1.6100,157.9535219,-30.71229253,1249.834358
1.6150,157.9743443,-30.62742146,1249.954588
1.6200,157.996827,-30.53527326,1250.075144
1.6250,158.0208568,-30.43458428,1250.196002
1.6300,158.0475153,-30.32542758,1250.317081
1.6350,158.0760605,-30.20740513,1250.438403
1.6400,158.1067951,-30.08021655,1250.559883
1.6450,158.1401052,-29.94325705,1250.681539
1.6500,158.1755228,-29.7960276,1250.803413
1.6550,158.2120757,-29.63910072,1250.925756
1.6600,158.2507124,-29.47147317,1251.048518
1.6650,158.2910837,-29.29374306,1251.171717
1.6700,158.332365,-29.10522986,1251.295649
1.6750,158.3746964,-28.90727006,1251.42017
1.6800,158.418813,-28.698871,1251.545226
1.6850,158.464328,-28.48019173,1251.670986
1.6900,158.5113048,-28.25251832,1251.797238
1.6950,158.559951,-28.01678965,1251.923908
1.7000,158.6097045,-27.77353401,1252.051004
1.7050,158.6601938,-27.52353889,1252.178479
1.7100,158.7112285,-27.26855559,1252.306062
1.7150,158.7625059,-27.0079058,1252.433972
1.7200,158.8151937,-26.74414655,1252.561648
1.7250,158.8687675,-26.4775965,1252.689116
1.7300,158.9233715,-26.20894302,1252.816276
1.7350,158.9786317,-25.94082522,1252.942791
1.7400,159.0353276,-25.67190526,1253.068648
1.7450,159.0937876,-25.40313069,1253.193718
1.7500,159.1546887,-25.13548812,1253.317797
1.7550,159.2199697,-24.86977815,1253.440456
1.7600,159.2882253,-24.60633058,1253.561953
1.7650,159.3604961,-24.34492051,1253.682271
1.7700,159.4357535,-24.08550861,1253.801565
1.7750,159.5155334,-23.82897396,1253.91945
1.7800,159.6010093,-23.57517041,1254.035637
1.7850,159.6932312,-23.32427557,1254.149975
1.7900,159.7921946,-23.07757706,1254.26236
1.7950,159.8987142,-22.83477209,1254.37267
1.8000,160.0124179,-22.59548124,1254.480978
1.8050,160.1340217,-22.36119349,1254.58704
1.8100,160.2641363,-22.13152596,1254.690743
1.8150,160.4023667,-21.90801608,1254.791858
1.8200,160.5485061,-21.69071848,1254.890422
1.8250,160.7009137,-21.48037396,1254.986434
1.8300,160.8582262,-21.27659931,1255.080174
1.8350,161.0213028,-21.07886695,1255.17151
1.8400,161.1885775,-20.88763018,1255.260603
1.8450,161.3594585,-20.70313085,1255.34758
1.8500,161.5314024,-20.52475945,1255.432908
1.8550,161.7034892,-20.35330816,1255.516588
1.8600,161.8736637,-20.18798218,1255.599049
1.8650,162.0395893,-20.02854837,1255.680733
1.8700,162.2002457,-19.87423637,1255.761825
1.8750,162.3533609,-19.72462146,1255.842863
1.8800,162.4993146,-19.57873279,1255.923873
1.8850,162.6367425,-19.4351446,1256.005237
1.8900,162.7652085,-19.29481011,1256.086818
1.8950,162.8833057,-19.15564668,1256.169145
1.9000,162.9890464,-19.01923126,1256.252317
1.9050,163.0811603,-18.88292334,1256.336873
1.9100,163.1608739,-18.74688093,1256.422527
1.9150,163.2269234,-18.6108409,1256.509628
1.9200,163.2800941,-18.47307047,1256.59821
1.9250,163.3221793,-18.33455535,1256.687993
1.9300,163.3518945,-18.19533022,1256.779052
1.9350,163.370276,-18.05478601,1256.871278
1.9400,163.3773848,-17.91215895,1256.964789
1.9450,163.3736198,-17.76764094,1257.059534
1.9500,163.3605642,-17.62085478,1257.155235
1.9550,163.3401355,-17.47079531,1257.251584
1.9600,163.3112232,-17.31717532,1257.348837
1.9650,163.2748265,-17.15961783,1257.446723
1.9700,163.230592,-16.9975244,1257.54542
1.9750,163.1773973,-16.82910595,1257.645327
1.9800,163.1157805,-16.6561977,1257.746109
1.9850,163.0441554,-16.47887961,1257.84808
1.9900,162.9621604,-16.29558322,1257.951426
1.9950,162.8693969,-16.10695729,1258.056159
2.0000,162.7668702,-15.91148583,1258.162262
2.0050,162.6539065,-15.70858424,1258.270104
2.0100,162.5315732,-15.49872975,1258.37941
2.0150,162.4005668,-15.2823704,1258.490033
2.0200,162.2606974,-15.05826058,1258.602182
2.0250,162.1128765,-14.82650148,1258.715813
2.0300,161.9580404,-14.58729553,1258.830697
2.0350,161.7969996,-14.33955728,1258.946948
2.0400,161.6296645,-14.08499453,1259.064452
2.0450,161.4563487,-13.82457329,1259.183051
2.0500,161.2753995,-13.55796274,1259.303203
2.0550,161.0872203,-13.28670835,1259.424678
2.0600,160.8929517,-13.010976,1259.547329
2.0650,160.6916866,-12.73124701,1259.671252
2.0700,160.4851953,-12.44865912,1259.79604
2.0750,160.2733162,-12.16299363,1259.921788
2.0800,160.0555183,-11.87373845,1260.048805
2.0850,159.831375,-11.58222782,1260.176879
2.0900,159.6016074,-11.28782959,1260.305933
2.0950,159.3667086,-10.99007466,1260.436009
2.1000,159.1268688,-10.69046677,1260.566834
2.1050,158.8825448,-10.38885754,1260.698307
2.1100,158.6321862,-10.08671284,1260.830491
2.1150,158.3759251,-9.78371026,1260.963471
2.1200,158.1137696,-9.480820271,1261.097025
2.1250,157.8446678,-9.179370744,1261.231273
2.1300,157.5681927,-8.878433699,1261.36659
2.1350,157.2824321,-8.579623013,1261.503217
2.1400,156.9874106,-8.281532256,1261.641384
2.1450,156.6819876,-7.983752973,1261.78146
2.1500,156.3671424,-7.686441071,1261.923299
2.1550,156.0426896,-7.388349986,1262.067239
2.1600,155.7080206,-7.087911052,1262.213763
2.1650,155.3644186,-6.78352736,1262.363057
2.1700,155.0127476,-6.474582756,1262.515204
2.1750,154.6527189,-6.159945988,1262.670507
2.1800,154.2840892,-5.839079825,1262.829272
2.1850,153.9070072,-5.511813611,1262.991519
2.1900,153.5200739,-5.1762876,1263.157963
2.1950,153.1242919,-4.832014039,1263.328608
2.2000,152.7207232,-4.4774856,1263.503378
2.2050,152.310134,-4.113598138,1263.682132
2.2100,151.8915378,-3.740522909,1263.86506
2.2150,151.4654457,-3.357832313,1264.051964
2.2200,151.032311,-2.967634454,1264.242411
2.2250,150.5914482,-2.570356999,1264.436424
2.2300,150.1445568,-2.165711503,1264.633772
2.2350,149.6913861,-1.755349545,1264.83421
2.2400,149.2334887,-1.341871379,1265.036933
2.2450,148.7693942,-0.9256439557,1265.242219
2.2500,148.2994341,-0.507076537,1265.450034
2.2550,147.8228422,-0.08768483249,1265.660534
2.2600,147.3391356,0.3311231183,1265.873704
2.2650,146.8481926,0.7496301137,1266.089836
2.2700,146.3497345,1.167461775,1266.30899
2.2750,145.8456665,1.584913559,1266.530946
2.2800,145.3358911,2.003839189,1266.756037
2.2850,144.821654,2.426289278,1266.984338
2.2900,144.3048056,2.852665265,1267.215624
2.2950,143.7857731,3.28433102,1267.450132
2.3000,143.2632025,3.719733333,1267.68791
2.3050,142.7379303,4.159418651,1267.928762
2.3100,142.2083348,4.60445556,1268.173329
2.3150,141.6745153,5.054140268,1268.421425
2.3200,141.1366606,5.507806504,1268.672952
2.3250,140.5956926,5.963840142,1268.92731
2.3300,140.0515432,6.421824781,1269.184475
2.3350,139.5030909,6.878947915,1269.444244
2.3400,138.9489462,7.334381596,1269.706797
2.3450,138.386737,7.786884296,1269.972642
2.3500,137.8161691,8.23462826,1270.241405
2.3550,137.2360472,8.677286072,1270.513426
2.3600,136.6454347,9.114121768,1270.788762
2.3650,136.0446001,9.543752394,1271.067162
2.3700,135.433505,9.96622469,1271.348545
2.3750,134.810725,10.38142988,1271.633546
2.3800,134.1782214,10.78884662,1271.92147
2.3850,133.5359147,11.18935164,1272.212704
2.3900,132.8848524,11.5826787,1272.507143
2.3950,132.2244051,11.96791016,1272.804779
2.4000,131.5544187,12.34632347,1273.105979
2.4050,130.8745489,12.72033337,1273.411434
2.4100,130.1871363,13.09052435,1273.720483
2.4150,129.4922547,13.45882626,1274.0335
2.4200,128.7921146,13.82565601,1274.349861
2.4250,128.0870952,14.19191254,1274.669711
2.4300,127.3788501,14.55698537,1274.992117
2.4350,126.6696937,14.92073522,1275.316249
2.4400,125.9605411,15.28245922,1275.641591
2.4450,125.2520035,15.64119001,1275.967636
2.4500,124.5447878,15.99730908,1276.294228
2.4550,123.840567,16.35014382,1276.620521
2.4600,123.1401708,16.69922957,1276.946101
2.4650,122.4447853,17.04216189,1277.269793
2.4700,121.7539593,17.37891799,1277.591804
2.4750,121.0688099,17.70973551,1277.91177
2.4800,120.3903239,18.03306084,1278.22888
2.4850,119.7178264,18.34981252,1278.543614
2.4900,119.0528544,18.65890605,1278.855167
2.4950,118.3945655,18.9605661,1279.163952
2.5000,117.7433167,19.25453264,1279.469825
2.5050,117.0979696,19.54085274,1279.773166
2.5100,116.4588995,19.82042803,1280.074068
2.5150,115.8264183,20.09373341,1280.372687
2.5200,115.2004021,20.36249014,1280.669406
2.5250,114.5817222,20.62872483,1280.964362
2.5300,113.970152,20.89200001,1281.257438
2.5350,113.3665951,21.15386334,1281.548687
2.5400,112.77151,21.41634301,1281.838421
2.5450,112.1849843,21.67918755,1282.126431
2.5500,111.6067194,21.94147766,1282.412607
2.5550,111.0352492,22.20272993,1282.697287
2.5600,110.4706113,22.46371333,1282.980531
2.5650,109.9123265,22.72455581,1283.262502
2.5700,109.3609253,22.98425201,1283.542642
2.5750,108.8135247,23.24145182,1283.821654
2.5800,108.2699733,23.49484579,1284.099303
2.5850,107.7305461,23.7441188,1284.375435
2.5900,107.1939071,23.98864957,1284.650348
2.5950,106.6601222,24.2292251,1284.924232
2.6000,106.1296942,24.46638916,1285.196987
2.6050,105.6034737,24.70025073,1285.46833
2.6100,105.0819436,24.92980193,1285.737729
2.6150,104.5641726,25.15648532,1286.005995
2.6200,104.049483,25.37989239,1286.273338
2.6250,103.5364163,25.6001936,1286.54036
2.6300,103.0228411,25.81744641,1286.80802
2.6350,102.5088095,26.03302584,1287.076668
2.6400,101.9955741,26.24705938,1287.345732
2.6450,101.4843275,26.46032493,1287.614794
2.6500,100.9758136,26.67316128,1287.883571
2.6550,100.471132,26.88698228,1288.151911
2.6600,99.97120657,27.10138208,1288.419254
2.6650,99.4764028,27.3167807,1288.685397
2.6700,98.98653768,27.53183848,1288.950093
2.6750,98.50226459,27.7462153,1289.212719
2.6800,98.0219664,27.95735196,1289.473299
2.6850,97.5449233,28.16516048,1289.732156
2.6900,97.07127951,28.36904309,1289.988829
2.6950,96.59966419,28.56867569,1290.243926
2.7000,96.13118446,28.76362258,1290.496793
2.7050,95.66577534,28.95260641,1290.747124
2.7100,95.20276661,29.13615379,1290.995537
2.7150,94.74191645,29.31294646,1291.241707
2.7200,94.28102263,29.48308381,1291.486795
2.7250,93.8213089,29.64750937,1291.73048
2.7300,93.36255223,29.80633963,1291.972952
2.7350,92.90422224,29.95996404,1292.214625
2.7400,92.44582174,30.10894585,1292.456025
2.7450,91.98798806,30.25284445,1292.696645
2.7500,91.52997104,30.39257457,1292.937174
2.7550,91.07114972,30.52869984,1293.17801
2.7600,90.61241575,30.65984111,1293.418288
2.7650,90.15193576,30.78708092,1293.65944
2.7700,89.68971333,30.90996394,1293.901138
2.7750,89.22540849,31.02855642,1294.143654
2.7800,88.75789638,31.14402246,1294.387879
2.7850,88.28783382,31.25528276,1294.63319
2.7900,87.8149722,31.36418269,1294.880344
2.7950,87.33930644,31.47113996,1295.129363
2.8000,86.86070195,31.57692244,1295.380743
2.8050,86.38039389,31.68271106,1295.634144
2.8100,85.89906587,31.7887804,1295.889304
2.8150,85.41549496,31.8947163,1296.146741
2.8200,84.93165639,32.0012045,1296.405698
2.8250,84.44722966,32.10798493,1296.666255
2.8300,83.96162125,32.21643466,1296.929056
2.8350,83.4758006,32.32535376,1297.19321
2.8400,82.98826858,32.43374652,1297.459113
2.8450,82.50002541,32.5418206,1297.726416
2.8500,82.00973646,32.64994278,1297.995848
2.8550,81.51862201,32.75833062,1298.266928
2.8600,81.02803288,32.86791366,1298.539289
2.8650,80.53749129,32.97765927,1298.812915
2.8700,80.04709291,33.08817954,1299.087938
2.8750,79.55797981,33.19932597,1299.363637
2.8800,79.07065475,33.31183367,1299.639965
2.8850,78.58499825,33.42506799,1299.916746
2.8900,78.10083749,33.53904,1300.194094
2.8950,77.6176597,33.65245844,1300.471809
2.9000,77.1362949,33.76592627,1300.74974
2.9050,76.65582439,33.87804364,1301.027884
2.9100,76.17679455,33.98908052,1301.306145
2.9150,75.69933992,34.09823615,1301.584066
2.9200,75.22312311,34.20668467,1301.862192
2.9250,74.74762408,34.31493103,1302.141101
2.9300,74.27440181,34.42407083,1302.420264
2.9350,73.80403194,34.53399434,1302.699332
2.9400,73.33712534,34.64654963,1302.978568
2.9450,72.87435437,34.76175494,1303.25767
2.9500,72.41702495,34.88054125,1303.536163
2.9550,71.96511269,35.0030901,1303.814088
2.9600,71.51819594,35.12907894,1304.091555
2.9650,71.07687367,35.2580633,1304.368087
2.9700,70.64086168,35.39099508,1304.644201
2.9750,70.2103233,35.52673203,1304.919353
2.9800,69.78557305,35.66569637,1305.193452
2.9850,69.36771333,35.80770606,1305.465648
2.9900,68.95577452,35.95180949,1305.736327
2.9950,68.5506643,36.09825659,1306.004873
3.0000,68.15207368,36.24635798,1306.271359
3.0050,67.75908514,36.39572924,1306.536323
3.0100,67.37231145,36.54577396,1306.799028
3.0150,66.99191196,36.69603156,1307.05926
3.0200,66.61821124,36.84774702,1307.317241
3.0250,66.25162453,37.00029284,1307.572435
3.0300,65.89165259,37.15294748,1307.824893
3.0350,65.53768925,37.30596521,1308.074978
3.0400,65.19063636,37.458991,1308.321863
3.0450,64.85018892,37.61234933,1308.565867
3.0500,64.51612076,37.7654302,1308.806787
3.0550,64.18795885,37.91669657,1309.044439
3.0600,63.86465333,38.0671428,1309.279802
3.0650,63.54739962,38.2164676,1309.511904
3.0700,63.23550777,38.36526098,1309.741498
3.0750,62.92881563,38.51293382,1309.968341
3.0800,62.62814069,38.66040651,1310.192297
3.0850,62.33370101,38.80790829,1310.41318
3.0900,62.04560457,38.95432849,1310.630511
3.0950,61.76530997,39.10108755,1310.843857
3.1000,61.49241074,39.24691107,1311.052812
3.1050,61.22739491,39.39198898,1311.257071
3.1100,60.96903568,39.53506882,1311.456994
3.1150,60.71864292,39.67592152,1311.651433
3.1200,60.47417913,39.814175,1311.841572
3.1250,60.23621907,39.94884916,1312.026696
3.1300,60.00476219,40.08016613,1312.206995
3.1350,59.77810376,40.2072875,1312.383157
3.1400,59.55750705,40.33151139,1312.554896
3.1450,59.34242336,40.45336352,1312.722692
3.1500,59.1334403,40.57259735,1312.886024
3.1550,58.93143519,40.68968545,1313.044473
3.1600,58.73502232,40.80424747,1313.198711
3.1650,58.54578085,40.9162057,1313.347604
3.1700,58.36323911,41.02660504,1313.49176
3.1750,58.18812714,41.13510069,1313.630501
3.1800,58.01973349,41.24108013,1313.763994
3.1850,57.85607562,41.34451995,1313.89358
3.1900,57.69794482,41.44530655,1314.018577
3.1950,57.54610721,41.54274132,1314.138069
3.2000,57.400345,41.63655906,1314.252042
3.2050,57.26034608,41.72683948,1314.360704
3.2100,57.12622478,41.81293034,1314.463627
3.2150,56.9972449,41.8937691,1314.561076
3.2200,56.87293757,41.96821268,1314.652812
3.2250,56.7539775,42.03622644,1314.738305
3.2300,56.63927321,42.09790257,1314.818297
3.2350,56.52880753,42.15339652,1314.892765
3.2400,56.42187847,42.20130222,1314.961723
3.2450,56.31734605,42.24196276,1315.026032
3.2500,56.21481295,42.27482827,1315.085802
3.2550,56.11358545,42.29963677,1315.141329
3.2600,56.01419261,42.31764194,1315.192852
3.2650,55.91608553,42.33003574,1315.241171
3.2700,55.81940976,42.3360111,1315.285708
3.2750,55.72441804,42.33722803,1315.327066
3.2800,55.63091594,42.33451402,1315.365662
3.2850,55.53889668,42.3275956,1315.401523
3.2900,55.44886035,42.31824547,1315.43493
3.2950,55.36022913,42.30666359,1315.466498
3.3000,55.27268316,42.29353214,1315.496626
3.3050,55.18694649,42.2789588,1315.524814
3.3100,55.10237768,42.26354943,1315.551816
3.3150,55.01875507,42.2482288,1315.578141
3.3200,54.93662996,42.232579,1315.603329
3.3250,54.85531118,42.21641938,1315.627887
3.3300,54.77508207,42.20130635,1315.652049
3.3350,54.69547314,42.18678656,1315.67609
3.3400,54.61552519,42.17291117,1315.700819
3.3450,54.5342407,42.15873248,1315.726578
3.3500,54.45206862,42.14428481,1315.753091
3.3550,54.36758235,42.13063645,1315.781716
3.3600,54.28046609,42.11689361,1315.812195
3.3650,54.18923437,42.10358659,1315.845818
3.3700,54.0934888,42.08976863,1315.882421
3.3750,53.99269248,42.0759659,1315.922606
3.3800,53.88555323,42.06100901,1315.966891
3.3850,53.77267386,42.04541893,1316.015077
3.3900,53.65373194,42.02946847,1316.067439
3.3950,53.52704606,42.01218376,1316.124823
3.4000,53.39313874,41.99471299,1316.187354
3.4050,53.25219913,41.97602754,1316.254561
3.4100,53.10345231,41.95789686,1316.327578
3.4150,52.94769246,41.94059839,1316.40595
3.4200,52.78442277,41.92401686,1316.49006
3.4250,52.61310545,41.90780802,1316.58017
3.4300,52.43293227,41.89077976,1316.676509
3.4350,52.24445962,41.87567839,1316.779741
3.4400,52.04554388,41.86128529,1316.891098
3.4450,51.83588647,41.8484381,1317.011076
3.4500,51.61539938,41.83791904,1317.140166
3.4550,51.38220796,41.83011778,1317.279837
3.4600,51.13532404,41.82595449,1317.431221
3.4650,50.87401615,41.82513137,1317.594886
3.4700,50.59712664,41.82714313,1317.771445
3.4750,50.30274468,41.83224147,1317.962547
3.4800,49.9904095,41.84096433,1318.16869
3.4850,49.66100576,41.85257341,1318.389047
3.4900,49.31318481,41.86733034,1318.624758
3.4950,48.94609703,41.88529015,1318.87656
3.5000,48.5587075,41.90487158,1319.144674
3.5050,48.15202959,41.92688635,1319.428728
3.5100,47.72533546,41.95096715,1319.729364
3.5150,47.28066008,41.97723759,1320.0451
3.5200,46.81926667,42.00581424,1320.375176
3.5250,46.34187212,42.03501101,1320.718614
3.5300,45.85002792,42.06466396,1321.074392
3.5350,45.3444843,42.09419349,1321.441828
3.5400,44.82661195,42.12369187,1321.820108
3.5450,44.29904271,42.15359237,1322.207384
3.5500,43.76316614,42.18310325,1322.60239
3.5550,43.22113654,42.21212628,1323.003562
3.5600,42.67465993,42.23995193,1323.409204
3.5650,42.1257858,42.26521316,1323.817228
3.5700,41.57546675,42.28820604,1324.227133
3.5750,41.02504479,42.30758546,1324.637324
3.5800,40.47570542,42.32356453,1325.047061
3.5850,39.92759566,42.33614149,1325.456168
3.5900,39.3814788,42.34398779,1325.863579
3.5950,38.83872928,42.34807306,1326.268606
3.6000,38.29942408,42.34702731,1326.670621
3.6050,37.76426633,42.3409163,1327.069082
3.6100,37.23386159,42.32946584,1327.463372
3.6150,36.70808001,42.31189635,1327.853176
3.6200,36.18665661,42.28736784,1328.238305
3.6250,35.67029233,42.25575446,1328.617999
3.6300,35.15824466,42.21486244,1328.992194
3.6350,34.65203012,42.16556523,1329.359729
3.6400,34.15144062,42.10689508,1329.720304
3.6450,33.65763351,42.03949143,1330.07308
3.6500,33.16935442,41.96167585,1330.418393
3.6550,32.68819144,41.87358553,1330.755108
3.6600,32.21426332,41.7763115,1331.083606
3.6650,31.74906408,41.66904137,1331.402109
3.6700,31.29284542,41.55306307,1331.710958
3.6750,30.84669554,41.4272262,1332.00877
3.6800,30.41108693,41.29361431,1332.295843
3.6850,29.9859167,41.15096444,1332.571732
3.6900,29.57207366,40.99945329,1332.835567
3.6950,29.16923643,40.83857618,1333.087408
3.7000,28.77781385,40.66873061,1333.326938
3.7050,28.39704061,40.49056687,1333.554961
3.7100,28.02862664,40.30342137,1333.769845
3.7150,27.66989202,40.10685097,1333.973757
3.7200,27.32190897,39.90261724,1334.166345
3.7250,26.98388369,39.69267028,1334.349146
3.7300,26.65676102,39.47881184,1334.521933
3.7350,26.33999217,39.26143684,1334.685521
3.7400,26.03421507,39.04329541,1334.840189
3.7450,25.73908644,38.82600599,1334.987063
3.7500,25.45445621,38.61092884,1335.126789
3.7550,25.18099264,38.39935964,1335.259148
3.7600,24.91886271,38.19110709,1335.384174
3.7650,24.66766352,37.98922583,1335.503226
3.7700,24.42785346,37.79439909,1335.616236
3.7750,24.1994074,37.60765195,1335.723413
3.7800,23.98213353,37.42947517,1335.825297
3.7850,23.77636777,37.26135512,1335.92208
3.7900,23.58225321,37.10408348,1336.013991
3.7950,23.39998717,36.95849019,1336.101283
3.8000,23.23000006,36.82601276,1336.18403
3.8050,23.07265126,36.70674546,1336.262017
3.8100,22.92822176,36.60078203,1336.334911
3.8150,22.79735328,36.50941551,1336.402594
3.8200,22.67913802,36.4325756,1336.466074
3.8250,22.5736934,36.37037113,1336.525132
3.8300,22.48152034,36.3211088,1336.578625
3.8350,22.40276549,36.28455348,1336.626421
3.8400,22.33783047,36.25906428,1336.667365
3.8450,22.28658267,36.2434316,1336.701203
3.8500,22.24812661,36.23683287,1336.728266
3.8550,22.22198905,36.23840618,1336.748718
3.8600,22.20810869,36.24699582,1336.762234
3.8650,22.20531767,36.26251793,1336.769765
3.8700,22.21388032,36.28452154,1336.770865
3.8750,22.23385677,36.31324838,1336.765559
3.8800,22.26528699,36.34850267,1336.753612
3.8850,22.3082641,36.39033059,1336.734918
3.8900,22.36284831,36.43856635,1336.709359
3.8950,22.42834261,36.49286153,1336.677437
3.9000,22.50585239,36.55334196,1336.638147
3.9050,22.59450644,36.61919313,1336.591857
3.9100,22.69352415,36.69006396,1336.539171
3.9150,22.80260769,36.76444519,1336.479831
3.9200,22.92182019,36.84241626,1336.413787
3.9250,23.05025482,36.9231955,1336.341522
3.9300,23.1883205,37.00680146,1336.262486
3.9350,23.33432445,37.09246711,1336.17801
3.9400,23.48733387,37.17903398,1336.08845
3.9450,23.64651575,37.26659957,1335.994664
3.9500,23.81270324,37.35583764,1335.896149
3.9550,23.98490604,37.44524558,1335.793024
3.9600,24.16157808,37.53327927,1335.686147
3.9650,24.34193192,37.62049571,1335.576413
3.9700,24.52625349,37.70566196,1335.46302
3.9750,24.713028,37.78904579,1335.347348
3.9800,24.90199891,37.86779517,1335.2284
3.9850,25.09169416,37.94189948,1335.107468
3.9900,25.28169831,38.01134535,1334.984848
3.9950,25.47194689,38.07546596,1334.860212
4.0000,25.66106566,38.13329354,1334.734317
4.0050,25.84907262,38.18469906,1334.607088
4.0100,26.03528236,38.23064716,1334.479346
4.0150,26.21976548,38.27210189,1334.351406
4.0200,26.40259867,38.30839936,1334.222976
4.0250,26.58381545,38.33901363,1334.093766
4.0300,26.76262451,38.36480275,1333.96482
4.0350,26.93911264,38.38609733,1333.836135
4.0400,27.11291948,38.40169443,1333.70759
4.0450,27.28463026,38.41207051,1333.578771
4.0500,27.45408632,38.41666876,1333.449673
4.0550,27.62086224,38.41591397,1333.320842
4.0600,27.78520823,38.41113729,1333.192377
4.0650,27.94640802,38.40069838,1333.064299
4.0700,28.10471585,38.38519325,1332.936632
4.0750,28.26045808,38.36441973,1332.809154
4.0800,28.41366727,38.33837852,1332.681662
4.0850,28.5635522,38.308053,1332.555235
4.0900,28.7105994,38.27328239,1332.429508
4.0950,28.85479912,38.23430905,1332.304465
4.1000,28.99612665,38.19136373,1332.180256
4.1050,29.13433162,38.14398239,1332.056922
4.1100,29.26979595,38.09398126,1331.934879
4.1150,29.4020926,38.04064527,1331.81439
4.1200,29.53144219,37.98347281,1331.694877
4.1250,29.65794161,37.92297389,1331.576487
4.1300,29.78094958,37.85934787,1331.459862
4.1350,29.90105272,37.79357366,1331.344776
4.1400,30.01830716,37.72606306,1331.231413
4.1450,30.13187223,37.65749486,1331.120726
4.1500,30.24289497,37.58850469,1331.012
4.1550,30.35102507,37.51976405,1330.905901
4.1600,30.45533704,37.45258211,1330.803638
4.1650,30.55655916,37.3863157,1330.704308
4.1700,30.6549786,37.32239823,1330.608266
4.1750,30.74992363,37.26020264,1330.515904
4.1800,30.84183678,37.20000897,1330.42701
4.1850,30.93067776,37.14166698,1330.341621
4.1900,31.01658493,37.08647806,1330.259973
4.1950,31.09922801,37.03276912,1330.181688
4.2000,31.17878772,36.98132835,1330.106908
4.2050,31.25529756,36.93216722,1330.035635
4.2100,31.32904274,36.88439852,1329.967306
4.2150,31.40041249,36.83830642,1329.901614
4.2200,31.46976911,36.79366126,1329.838185
4.2250,31.53719547,36.7510044,1329.777129
4.2300,31.60282615,36.7101148,1329.718407
4.2350,31.66638496,36.67005787,1329.661844
4.2400,31.72882966,36.63182842,1329.607069
4.2450,31.79071722,36.59501103,1329.55353
4.2500,31.85173614,36.55912996,1329.501335
4.2550,31.91225237,36.52425626,1329.450262
4.2600,31.97448106,36.49088374,1329.398496
4.2650,32.03754276,36.45759751,1329.346455
4.2700,32.10122211,36.42446836,1329.294342
4.2750,32.16649849,36.39176663,1329.241454
4.2800,32.23348686,36.35960386,1329.187823
4.2850,32.30337223,36.32835223,1329.13269
4.2900,32.37622657,36.29811404,1329.075981
4.2950,32.45352565,36.26879526,1329.016381
4.3000,32.53604103,36.2404309,1328.953493
4.3050,32.62480175,36.21327407,1328.886571
4.3100,32.71994922,36.18724802,1328.815356
4.3150,32.82271462,36.16088491,1328.738302
4.3200,32.93312405,36.13485821,1328.655615
4.3250,33.05195504,36.10930861,1328.566746
4.3300,33.18020848,36.08341189,1328.470568
4.3350,33.3185576,36.05767242,1328.366832
4.3400,33.46800982,36.03119752,1328.25441
4.3450,33.62983181,36.00352767,1328.132085
4.3500,33.80423574,35.97484349,1327.999742
4.3550,33.99251051,35.94442045,1327.856323
4.3600,34.19461758,35.91147704,1327.701632
4.3650,34.41126838,35.87576898,1327.534981
4.3700,34.64234677,35.83728705,1327.356521
4.3750,34.88820534,35.79540515,1327.165771
4.3800,35.14897044,35.75008965,1326.962655
4.3850,35.4239607,35.70008769,1326.747331
4.3900,35.71383932,35.64498768,1326.519094
4.3950,36.01772475,35.58465248,1326.278685
4.4000,36.3365796,35.51989087,1326.025817
4.4050,36.66935117,35.45057746,1325.761353
4.4100,37.01616099,35.37619601,1325.485139
4.4150,37.37781136,35.29671287,1325.196485
4.4200,37.75463768,35.21336409,1324.895862
4.4250,38.14667623,35.12533234,1324.583087
4.4300,38.55405571,35.03344589,1324.258489
4.4350,38.97649644,34.93624171,1323.921846
4.4400,39.41304191,34.83447222,1323.574307
4.4450,39.86393534,34.7272057,1323.215244
4.4500,40.32796693,34.61477943,1322.845995
4.4550,40.80426549,34.4962694,1322.466857
4.4600,41.29337357,34.37166719,1322.077495
4.4650,41.7945699,34.2416208,1321.678857
4.4700,42.30770234,34.10478649,1321.270625
4.4750,42.83251818,33.96202498,1320.853298
4.4800,43.36853612,33.81283008,1320.427103
4.4850,43.91546488,33.65719755,1319.992382
4.4900,44.47185219,33.49369882,1319.549849
4.4950,45.03830402,33.32302382,1319.099372
4.5000,45.61246936,33.14434919,1318.642616
4.5050,46.19400481,32.95782529,1318.179907
4.5100,46.78221441,32.76371375,1317.711782
4.5150,47.37598972,32.56229486,1317.239235
4.5200,47.97356142,32.35335072,1316.763568
4.5250,48.57317075,32.13667898,1316.285955
4.5300,49.17481588,31.91340279,1315.806872
4.5350,49.77809058,31.68480878,1315.327178
4.5400,50.38382245,31.45194902,1314.84677
4.5450,50.99041967,31.21630479,1314.367336
4.5500,51.59872306,30.97929068,1313.88891
4.5550,52.20852388,30.74272093,1313.412392
4.5600,52.81944981,30.50849393,1312.938913
4.5650,53.43367364,30.27838506,1312.467538
4.5700,54.05160245,30.05278482,1311.998289
4.5750,54.67231634,29.83271343,1311.532206
4.5800,55.2966196,29.6188226,1311.068981
4.5850,55.92464299,29.41126711,1310.608605
4.5900,56.55671197,29.21028662,1310.150971
4.5950,57.19205659,29.01619146,1309.696795
4.6000,57.83108255,28.82910007,1309.245618
4.6050,58.47259446,28.64798506,1308.797987
4.6100,59.11698616,28.47201335,1308.35336
4.6150,59.76459653,28.30209493,1307.911831
4.6200,60.4156109,28.1381681,1307.473242
4.6250,61.07005369,27.97864415,1307.036997
4.6300,61.72751928,27.82277352,1306.603137
4.6350,62.38844617,27.66940136,1306.171002
4.6400,63.05259097,27.51854851,1305.740832
4.6450,63.72001884,27.36860444,1305.312043
4.6500,64.39055165,27.2193693,1304.884733
4.6550,65.06312231,27.06950699,1304.459006
4.6600,65.73799706,26.91848333,1304.034565
4.6650,66.41514758,26.76614944,1303.611388
4.6700,67.0944334,26.61161203,1303.189255
4.6750,67.77623439,26.45562577,1302.768168
4.6800,68.46022834,26.29905177,1302.348827
4.6850,69.1493503,26.14228129,1301.929427
4.6900,69.84321656,25.9867552,1301.51075
4.6950,70.54241642,25.83375512,1301.092977
4.7000,71.24671534,25.68213445,1300.675922
4.7050,71.95826705,25.53293045,1300.258698
4.7100,72.6770564,25.38591696,1299.841218
4.7150,73.40294607,25.24070208,1299.423602
4.7200,74.13579756,25.09595622,1299.005441
4.7250,74.87563941,24.95217343,1298.586829
4.7300,75.62150742,24.80683865,1298.167618
4.7350,76.37294982,24.66047063,1297.748155
4.7400,77.12855846,24.51113289,1297.328577
4.7450,77.8881652,24.35831166,1296.908882
4.7500,78.65152197,24.20088042,1296.488713
4.7550,79.41927227,24.03731224,1296.067232
4.7600,80.18965184,23.86665731,1295.645206
4.7650,80.96170233,23.68768209,1295.22294
4.7700,81.73427838,23.50079204,1294.801148
4.7750,82.50767563,23.30545206,1294.37964
4.7800,83.28050363,23.10087596,1293.958981
4.7850,84.05249892,22.88630345,1293.539121
4.7900,84.82417344,22.66256346,1293.120076
4.7950,85.59332824,22.42795235,1292.702451
4.8000,86.35976125,22.18266465,1292.286246
4.8050,87.12161432,21.9253685,1291.872101
4.8100,87.8773866,21.65685167,1291.460793
4.8150,88.62587029,21.37715947,1291.053054
4.8200,89.36642911,21.0865628,1290.649078
4.8250,90.09952017,20.78576129,1290.248903
4.8300,90.82326391,20.47610425,1289.853775
4.8350,91.53913344,20.15877155,1289.463184
4.8400,92.24428584,19.83424669,1289.078573
4.8450,92.93983286,19.50363179,1288.699656
4.8500,93.62616311,19.16721336,1288.32629
4.8550,94.30381692,18.82628017,1287.958526
4.8600,94.97331933,18.48128319,1287.596054
4.8650,95.63251062,18.13206075,1287.239819
4.8700,96.28204867,17.78094124,1286.889908
4.8750,96.92277212,17.42709132,1286.545585
4.8800,97.55464965,17.07229045,1286.20714
4.8850,98.17744357,16.71747722,1285.874659
4.8900,98.7911733,16.36366713,1285.548285
4.8950,99.39687569,16.01178758,1285.22755
4.9000,99.99496273,15.66303499,1284.91258
4.9050,100.587322,15.31814546,1284.602437
4.9100,101.1733662,14.97749827,1284.297565
4.9150,101.7541714,14.64243493,1283.99769
4.9200,102.3309187,14.31137057,1283.701892
4.9250,102.9039385,13.98602616,1283.410355
4.9300,103.4738355,13.6658461,1283.122659
4.9350,104.0399406,13.35139956,1282.839129
4.9400,104.602523,13.04100735,1282.559191
4.9450,105.1602718,12.73440212,1282.283202
4.9500,105.7127224,12.43128988,1282.011207
4.9550,106.2604981,12.1309219,1281.742678
4.9600,106.8036686,11.83206213,1281.477099
4.9650,107.3408545,11.53422315,1281.21494
4.9700,107.8734908,11.23720917,1280.955582
4.9750,108.4018159,10.94152653,1280.698959
4.9800,108.926955,10.6459388,1280.444258
4.9850,109.4488686,10.34996561,1280.191497
4.9900,109.9680974,10.05323137,1279.940448
4.9950,110.4860876,9.753695248,1279.690129
5.0000,111.0035554,9.452367394,1279.440525
5.0050,111.5201831,9.148328413,1279.191608
5.0100,112.0354961,8.841052776,1278.943404
5.0150,112.5479808,8.529724716,1278.696208
5.0200,113.0589996,8.215187941,1278.449654
5.0250,113.5684639,7.89609404,1278.203378
5.0300,114.0772238,7.574569026,1277.957425
5.0350,114.5860801,7.250143693,1277.71141
5.0400,115.0965649,6.923291913,1277.464995
5.0450,115.6085072,6.594600598,1277.218417
5.0500,116.1215025,6.263614949,1276.971943
5.0550,116.636219,5.931186382,1276.725606
5.0600,117.1538713,5.597614882,1276.479185
5.0650,117.6756565,5.26330097,1276.232401
5.0700,118.2017514,4.928154662,1275.985185
5.0750,118.7316617,4.590970671,1275.737485
5.0800,119.2650922,4.252314387,1275.489525
5.0850,119.7996802,3.911736133,1275.242013
5.0900,120.3346738,3.568212823,1274.994845
5.0950,120.8695909,3.222295494,1274.748281
5.1000,121.4049896,2.874304921,1274.502092
5.1050,121.9407935,2.525169689,1274.256534
5.1100,122.4774838,2.175741812,1274.011703
5.1150,123.0143805,1.825843542,1273.767723
5.1200,123.5518798,1.47670381,1273.524813
5.1250,124.0902213,1.128698274,1273.282949
5.1300,124.6307083,0.7819365553,1273.041777
5.1350,125.1728208,0.4364625725,1272.801608
5.1400,125.7168815,0.09269616914,1272.562458
5.1450,126.2634217,-0.2494661959,1272.324131
5.1500,126.809761,-0.5893753705,1272.087455
5.1550,127.354617,-0.9280897844,1271.852611
5.1600,127.8972846,-1.265048365,1271.619823
5.1650,128.4370657,-1.599435352,1271.38944
5.1700,128.9743829,-1.932846982,1271.16079
5.1750,129.5088069,-2.262516694,1270.934464
5.1800,130.0399009,-2.589168964,1270.710352
5.1850,130.5686927,-2.912418562,1270.488209
5.1900,131.0955979,-3.232809297,1270.26788
5.1950,131.6218292,-3.54945759,1270.049138
5.2000,132.1473688,-3.863269591,1269.831865
5.2050,132.6731508,-4.173071841,1269.616006
5.2100,133.201578,-4.47842274,1269.400843
5.2150,133.732025,-4.779696022,1269.186454
5.2200,134.2634096,-5.077757509,1268.972943
5.2250,134.7951485,-5.374212387,1268.760172
5.2300,135.3261099,-5.669085912,1268.548311
5.2350,135.8566974,-5.962966224,1268.336919
5.2400,136.3862013,-6.255575987,1268.125993
5.2450,136.914338,-6.546912052,1267.915568
5.2500,137.4398368,-6.837638244,1267.705722
5.2550,137.9623067,-7.127813679,1267.496428
5.2600,138.4811962,-7.417960796,1267.287685
5.2650,138.9981287,-7.708485392,1267.078961
5.2700,139.5117136,-7.999699975,1266.870493
5.2750,140.0213355,-8.293489053,1266.662142
5.2800,140.5263991,-8.590952149,1266.453949
5.2850,141.0259359,-8.893852999,1266.246067
5.2900,141.5188494,-9.202941883,1266.038586
5.2950,142.0042117,-9.518019289,1265.831833
5.3000,142.4810217,-9.840117943,1265.62592
5.3050,142.9478695,-10.16939514,1265.42124
5.3100,143.4044648,-10.50588539,1265.217865
5.3150,143.8517745,-10.84846045,1265.015857
5.3200,144.289244,-11.19762915,1264.815314
5.3250,144.7168759,-11.55240736,1264.616399
5.3300,145.1345442,-11.91227554,1264.419302
5.3350,145.5419676,-12.27770317,1264.224009
5.3400,145.9395658,-12.6485049,1264.030379
5.3450,146.327067,-13.02568975,1263.838352
5.3500,146.7051596,-13.40842428,1263.647864
5.3550,147.071355,-13.79787659,1263.45933
5.3600,147.4251547,-14.19385165,1263.272796
5.3650,147.7652005,-14.59570998,1263.088613
5.3700,148.0905653,-15.00462636,1262.906796
5.3750,148.4001457,-15.41921484,1262.72779
5.3800,148.6936105,-15.84044219,1262.551563
5.3850,148.9716635,-16.26744016,1262.378116
5.3900,149.2333139,-16.70024048,1262.20779
5.3950,149.4792626,-17.13862637,1262.040558
5.4000,149.7078413,-17.5823336,1261.877045
5.4050,149.9200715,-18.03267774,1261.716909
5.4100,150.11412,-18.49048211,1261.560638
5.4150,150.2912808,-18.9553878,1261.40817
5.4200,150.4518312,-19.42761221,1261.259511
5.4250,150.5964905,-19.90710532,1261.114675
5.4300,150.725369,-20.39295749,1260.973776
5.4350,150.839264,-20.88506042,1260.836511
5.4400,150.9395965,-21.38291399,1260.702623
5.4450,151.0268146,-21.88556415,1260.571985
5.4500,151.1036531,-22.39235346,1260.444198
5.4550,151.1720869,-22.90070924,1260.319005
5.4600,151.2321321,-23.40967004,1260.196466
5.4650,151.285571,-23.91741147,1260.076116
5.4700,151.3338312,-24.42084503,1259.95792
5.4750,151.3789081,-24.92109772,1259.841062
5.4800,151.4221249,-25.4162264,1259.725321
5.4850,151.4637738,-25.90577592,1259.61047
5.4900,151.5045224,-26.38906309,1259.496222
5.4950,151.5431975,-26.86628317,1259.382556
5.5000,151.5797064,-27.3368543,1259.269329
5.5050,151.6126319,-27.80054305,1259.156679
5.5100,151.6405218,-28.25811271,1259.044635
5.5150,151.6637137,-28.70984515,1258.933023
5.5200,151.6796279,-29.1541051,1258.822458
5.5250,151.688298,-29.59006337,1258.712987
5.5300,151.6897696,-30.01661583,1258.604666
5.5350,151.68318,-30.43502473,1258.497529
5.5400,151.6680798,-30.84346517,1258.391919
5.5450,151.6437321,-31.2414213,1258.288043
5.5500,151.6135042,-31.6290215,1258.185176
5.5550,151.5759261,-32.00533179,1258.083761
5.5600,151.5306606,-32.36958565,1257.984039
5.5650,151.4772046,-32.72230135,1257.886041
5.5700,151.4160095,-33.06328792,1257.789769
5.5750,151.3465622,-33.39256397,1257.69531
5.5800,151.2694951,-33.70981319,1257.602456
5.5850,151.1845031,-34.01376775,1257.511212
5.5900,151.0917418,-34.3049,1257.421494
5.5950,150.9919009,-34.58276779,1257.333063
5.6000,150.8861444,-34.84740783,1257.245554
5.6050,150.774685,-35.09832059,1257.158927
5.6100,150.6587327,-35.33544305,1257.072901
5.6150,150.5392537,-35.55828044,1256.987364
5.6200,150.4169872,-35.76745401,1256.902103
5.6250,150.2909072,-35.96282584,1256.817452
5.6300,150.1616695,-36.14604231,1256.733147
5.6350,150.0284349,-36.31743657,1256.649336
5.6400,149.8910189,-36.47769502,1256.56614
5.6450,149.7496138,-36.62736477,1256.483672
5.6500,149.6052108,-36.76744549,1256.401693
5.6550,149.4578683,-36.89702352,1256.320459
5.6600,149.3071922,-37.01796145,1256.239927
5.6650,149.1525587,-37.13007454,1256.160262
5.6700,148.9951919,-37.23305862,1256.081389
5.6750,148.8349948,-37.32707195,1256.003336
5.6800,148.672312,-37.41149019,1255.926103
5.6850,148.5071945,-37.4874131,1255.849592
5.6900,148.3400985,-37.55381413,1255.773734
5.6950,148.1721256,-37.61244627,1255.698274
5.7000,148.0031983,-37.66517887,1255.622921
5.7050,147.8330301,-37.71141017,1255.5478
5.7100,147.6626703,-37.75244151,1255.472586
5.7150,147.4923288,-37.78930978,1255.397153
5.7200,147.3218113,-37.8239001,1255.321497
5.7250,147.1510614,-37.8560658,1255.245624
5.7300,146.9797167,-37.88799257,1255.16951
5.7350,146.8081177,-37.91964171,1255.093263
5.7400,146.6383961,-37.95111992,1255.016607
5.7450,146.4703228,-37.98259586,1254.939706
5.7500,146.3045722,-38.01370757,1254.862443
5.7550,146.141608,-38.0454839,1254.784702
5.7600,145.9844839,-38.07841767,1254.705924
5.7650,145.8352162,-38.11407584,1254.625748
5.7700,145.6934276,-38.15286425,1254.54431
5.7750,145.5608775,-38.19425145,1254.461395
5.7800,145.4383153,-38.23799018,1254.377038
5.7850,145.3276648,-38.28402011,1254.291041
5.7900,145.2277474,-38.33160863,1254.203674
5.7950,145.1405184,-38.3799818,1254.11484
5.8000,145.0663159,-38.42871056,1254.024584
5.8050,145.0059571,-38.4772548,1253.932839
5.8100,144.9590423,-38.52473057,1253.839839
5.8150,144.926038,-38.57122494,1253.745336
5.8200,144.9086469,-38.61624677,1253.649154
5.8250,144.9062141,-38.65939449,1253.551398
5.8300,144.9184839,-38.70060594,1253.45214
5.8350,144.944996,-38.7400343,1253.351504
5.8400,144.9852385,-38.77833945,1253.249531
5.8450,145.0385121,-38.81559145,1253.146534
5.8500,145.1018182,-38.85264895,1253.04306
5.8550,145.1754893,-38.8893073,1252.939132
5.8600,145.2588324,-38.9255536,1252.83481
5.8650,145.3509061,-38.96074702,1252.730326
5.8700,145.4502541,-38.99491199,1252.625916
5.8750,145.5565684,-39.02634849,1252.521818
5.8800,145.6681542,-39.05447824,1252.418474
5.8850,145.7848241,-39.07820391,1252.315943
5.8900,145.9055135,-39.09762448,1252.214356
5.8950,146.0292442,-39.11270894,1252.113797
5.9000,146.1550225,-39.12245357,1252.014463
5.9050,146.2828381,-39.1279788,1251.916159
5.9100,146.4118702,-39.1299313,1251.818981
5.9150,146.5402061,-39.1290919,1251.723105
5.9200,146.6670051,-39.12528474,1251.62867
5.9250,146.7919257,-39.1196554,1251.535584
5.9300,146.9138454,-39.11267354,1251.44407
5.9350,147.0325804,-39.10374284,1251.354157
5.9400,147.1468149,-39.0928257,1251.265915
5.9450,147.2548046,-39.0795025,1251.179609
5.9500,147.3551456,-39.06381513,1251.095396
5.9550,147.4483574,-39.04608516,1251.013057
5.9600,147.5345235,-39.02555198,1250.93265
5.9650,147.6129371,-39.00242206,1250.854208
5.9700,147.6813398,-38.97782292,1250.778017
5.9750,147.7394888,-38.9506189,1250.704019
5.9800,147.7863828,-38.92218697,1250.632209
5.9850,147.8223797,-38.89074655,1250.562549
5.9900,147.8473753,-38.85722039,1250.495091
5.9950,147.8599496,-38.82022584,1250.430113
6.0000,147.8605444,-38.77961569,1250.367712
6.0050,147.8497842,-38.73499204,1250.307763
6.0100,147.8287513,-38.68683428,1250.250085
6.0150,147.7975383,-38.6334125,1250.194766
6.0200,147.7560785,-38.57449514,1250.141853
6.0250,147.7052146,-38.51088299,1250.091186
6.0300,147.6454872,-38.44141761,1250.042755
6.0350,147.5772631,-38.36644258,1249.996559
6.0400,147.5014349,-38.28553999,1249.952401
6.0450,147.4193665,-38.19962927,1249.909904
6.0500,147.3305295,-38.10887815,1249.86923
6.0550,147.2371713,-38.01264472,1249.829915
6.0600,147.1381255,-37.91146236,1249.792136
6.0650,147.035315,-37.80457475,1249.755635
6.0700,146.9279417,-37.69251753,1249.7204
6.0750,146.816397,-37.57520339,1249.686576
6.0800,146.6997781,-37.45467447,1249.653993
6.0850,146.5776666,-37.33037767,1249.622758
6.0900,146.4516724,-37.20385413,1249.592447
6.0950,146.3208406,-37.07480143,1249.563255
6.1000,146.1865328,-36.94280261,1249.534886
6.1050,146.0489751,-36.80811661,1249.507384
6.1100,145.9091475,-36.67038372,1249.480529
6.1150,145.7668217,-36.52880947,1249.454494
6.1200,145.6220304,-36.38303146,1249.429202
6.1250,145.4755715,-36.23348221,1249.404463
6.1300,145.3293983,-36.08133466,1249.379786
6.1350,145.1837964,-35.92508157,1249.355286
6.1400,145.0381158,-35.76556461,1249.331025
6.1450,144.8936819,-35.60468359,1249.306516
6.1500,144.751582,-35.44177907,1249.281571
6.1550,144.6118389,-35.27812748,1249.256092
6.1600,144.4751104,-35.11490599,1249.230056
6.1650,144.3428546,-34.95182273,1249.203352
6.1700,144.2156563,-34.7902763,1249.175726
6.1750,144.0933319,-34.63089154,1249.147365
6.1800,143.9764029,-34.4736026,1249.118108
6.1850,143.8655603,-34.31876653,1249.08796
6.1900,143.7612567,-34.16579215,1249.056927
6.1950,143.6641551,-34.01403852,1249.024872
6.2000,143.5734754,-33.86369599,1248.991981
6.2050,143.4894078,-33.71362917,1248.95835
6.2100,143.4115214,-33.5631368,1248.9241
6.2150,143.339885,-33.41234513,1248.889204
6.2200,143.2741807,-33.26134361,1248.853702
6.2250,143.2146758,-33.10980177,1248.817574
6.2300,143.161178,-32.95727333,1248.780859
6.2350,143.1130589,-32.80524381,1248.74358
6.2400,143.0707849,-32.65292428,1248.705767
6.2450,143.0334034,-32.50086551,1248.667575
6.2500,143.0009708,-32.34879774,1248.62913
6.2550,142.9729334,-32.19595982,1248.590582
6.2600,142.947837,-32.04199115,1248.552252
6.2650,142.9270521,-31.88796359,1248.513866
6.2700,142.9110971,-31.73204108,1248.475443
6.2750,142.9004303,-31.57600942,1248.436865
6.2800,142.8956136,-31.41920628,1248.398067
6.2850,142.8964082,-31.26241583,1248.359146
6.2900,142.9032357,-31.10612909,1248.319877
6.2950,142.9167891,-30.95050877,1248.280135
6.3000,142.9383593,-30.79548372,1248.2397
6.3050,142.9667648,-30.64171388,1248.198728
6.3100,143.0007315,-30.48905864,1248.157501
6.3150,143.041229,-30.3385667,1248.115847
6.3200,143.0890123,-30.1902277,1248.073604
6.3250,143.1419608,-30.04431301,1248.031121
6.3300,143.2007725,-29.90040014,1247.98837
6.3350,143.2642433,-29.759043,1247.945454
6.3400,143.3313547,-29.61935601,1247.902644
6.3450,143.4017038,-29.48244355,1247.85991
6.3500,143.475598,-29.34727002,1247.817177
6.3550,143.5523041,-29.21348015,1247.774715
6.3600,143.6312352,-29.0819717,1247.732389
6.3650,143.711279,-28.95126505,1247.690588
6.3700,143.7924912,-28.82221347,1247.649221
6.3750,143.8737929,-28.69457902,1247.608328
6.3800,143.9553456,-28.56660752,1247.568098
6.3850,144.0365269,-28.43900304,1247.528521
6.3900,144.1164856,-28.31124896,1247.489787
6.3950,144.194639,-28.18384534,1247.451894
6.4000,144.270297,-28.05530578,1247.415121
6.4050,144.3416601,-27.92672606,1247.379526
6.4100,144.407909,-27.79706996,1247.345308
6.4150,144.4673106,-27.66701296,1247.31267
6.4200,144.5206144,-27.53716438,1247.281304
6.4250,144.5666559,-27.40628519,1247.251498
6.4300,144.6040496,-27.27423278,1247.223457
6.4350,144.6320592,-27.14169788,1247.197178
6.4400,144.6513421,-27.00804157,1247.172659
6.4450,144.6606241,-26.87274023,1247.149995
6.4500,144.6598719,-26.73571826,1247.129356
6.4550,144.648838,-26.59789443,1247.110625
6.4600,144.6274899,-26.45841726,1247.09383
6.4650,144.59445,-26.31782384,1247.079103
6.4700,144.5498536,-26.17634513,1247.066489
6.4750,144.4946003,-26.03398764,1247.055692
6.4800,144.4278916,-25.89095676,1247.046937
6.4850,144.3501363,-25.74749356,1247.040042
6.4900,144.2617713,-25.60416471,1247.034939
6.4950,144.1635394,-25.46163369,1247.031548
6.5000,144.0557891,-25.3203022,1247.029839
6.5050,143.9389201,-25.18078757,1247.029595
6.5100,143.8145491,-25.04341111,1247.030565
6.5150,143.6832263,-24.90808285,1247.032743
6.5200,143.5450105,-24.77581701,1247.035993
6.5250,143.4015948,-24.64606592,1247.040046
6.5300,143.2539129,-24.52029188,1247.044608
6.5350,143.1026096,-24.39763677,1247.049743
6.5400,142.9487681,-24.27889297,1247.055144
6.5450,142.794262,-24.16407118,1247.060458
6.5500,142.6395131,-24.05413282,1247.065456
6.5550,142.486277,-23.94999735,1247.069756
6.5600,142.3361165,-23.85196326,1247.073019
6.5650,142.1889598,-23.7596833,1247.075249
6.5700,142.0446949,-23.67498569,1247.076258
6.5750,141.9044356,-23.59744236,1247.075922
6.5800,141.7690481,-23.52721814,1247.07405
6.5850,141.638926,-23.46489114,1247.070444
6.5900,141.5133712,-23.41045092,1247.065263
6.5950,141.3921538,-23.36456402,1247.058413
6.6000,141.2741748,-23.32697066,1247.050077
6.6050,141.1609473,-23.29719297,1247.040075
6.6100,141.0539657,-23.27545574,1247.028114
6.6150,140.9510683,-23.26153452,1247.014543
6.6200,140.8522768,-23.25529352,1246.999437
6.6250,140.7587201,-23.25634968,1246.982646
6.6300,140.6694907,-23.26502917,1246.964125
6.6350,140.5844999,-23.27954685,1246.944149
6.6400,140.5035589,-23.30110414,1246.922648
6.6450,140.4269116,-23.32780477,1246.899768
6.6500,140.3540279,-23.35997797,1246.875562
6.6550,140.2844522,-23.39770638,1246.850077
6.6600,140.217616,-23.44075128,1246.823471
6.6650,140.1533315,-23.48940292,1246.795719
6.6700,140.0909761,-23.54299052,1246.766979
6.6750,140.0306856,-23.60178481,1246.737167
6.6800,139.972688,-23.66555321,1246.706317
6.6850,139.9174018,-23.73325689,1246.674368
6.6900,139.8631312,-23.80424746,1246.641778
6.6950,139.8110385,-23.87803529,1246.608399
6.7000,139.7604618,-23.95542131,1246.574247
6.7050,139.7132535,-24.0352206,1246.53922
6.7100,139.6697551,-24.11813821,1246.50318
6.7150,139.6307894,-24.2030927,1246.466069
6.7200,139.5963288,-24.29015057,1246.428002
6.7250,139.5674097,-24.38037623,1246.388576
6.7300,139.5436689,-24.47278147,1246.348119
6.7350,139.5262696,-24.56792486,1246.306216
6.7400,139.5148549,-24.66591582,1246.262928
6.7450,139.5103445,-24.76659209,1246.218214
6.7500,139.512203,-24.87000344,1246.172044
6.7550,139.5195389,-24.97516496,1246.124748
6.7600,139.5323392,-25.08192747,1246.076338
6.7650,139.5499212,-25.19106557,1246.026842
6.7700,139.5726564,-25.30103084,1245.976353
6.7750,139.5997702,-25.41189117,1245.925057
6.7800,139.6323816,-25.52294846,1245.872839
6.7850,139.6690964,-25.63510381,1245.819866
6.7900,139.7099692,-25.74680412,1245.766266
6.7950,139.7546495,-25.85816816,1245.712038
6.8000,139.803168,-25.96915575,1245.657125
6.8050,139.8552066,-26.07988579,1245.601656
6.8100,139.9105675,-26.18991493,1245.545686
6.8150,139.9691404,-26.29977831,1245.489115
6.8200,140.0311012,-26.40899866,1245.432099
6.8250,140.0956745,-26.51858997,1245.374697
6.8300,140.1642347,-26.62717605,1245.316819
6.8350,140.2368446,-26.73536568,1245.258425
6.8400,140.3134746,-26.84389838,1245.199518
6.8450,140.3947778,-26.95207625,1245.14007
6.8500,140.4807554,-27.05916372,1245.080227
6.8550,140.571738,-27.16608641,1245.019889
6.8600,140.6673971,-27.27359466,1244.959081
6.8650,140.769577,-27.38128203,1244.897563
6.8700,140.8780313,-27.48794273,1244.83555
6.8750,140.9935252,-27.59366962,1244.772949
6.8800,141.1153745,-27.69872883,1244.709885
6.8850,141.2439416,-27.80383819,1244.646251
6.8900,141.3794542,-27.90853056,1244.582072
6.8950,141.5218804,-28.01237058,1244.517428
6.9000,141.6718216,-28.11539525,1244.452265
6.9050,141.8263783,-28.21791724,1244.3871
6.9100,141.9848452,-28.31937739,1244.321992
6.9150,142.1471088,-28.41916694,1244.257163
6.9200,142.3122654,-28.51666774,1244.192676
6.9250,142.4800795,-28.61080752,1244.128641
6.9300,142.6496021,-28.70174737,1244.065335
6.9350,142.8214732,-28.78995649,1244.002538
6.9400,142.9936995,-28.87409354,1243.940684
6.9450,143.1655021,-28.95388175,1243.879912
6.9500,143.3365237,-29.02931975,1243.820272
6.9550,143.5053689,-29.10109786,1243.761866
6.9600,143.6722656,-29.1667749,1243.704925
6.9650,143.8352723,-29.22589939,1243.649626
6.9700,143.9939973,-29.27838566,1243.59608
6.9750,144.1472646,-29.32225511,1243.54462
6.9800,144.2937742,-29.35829228,1243.495379
6.9850,144.4324167,-29.38645111,1243.448555
6.9900,144.5645525,-29.40621481,1243.403909
6.9950,144.6881843,-29.41696406,1243.361775
7.0000,144.8029093,-29.41818114,1243.322148
7.0050,144.9075309,-29.40952582,1243.285195
7.0100,145.0016928,-29.39058587,1243.251038
7.0150,145.0847873,-29.36104717,1243.219722
7.0200,145.1564742,-29.32071931,1243.191225
7.0250,145.2169429,-29.26841922,1243.165699
7.0300,145.2669168,-29.2049538,1243.142778
7.0350,145.3061027,-29.12970973,1243.122667
7.0400,145.3351812,-29.04208273,1243.10518
7.0450,145.353687,-28.94304916,1243.090315
7.0500,145.3624345,-28.83261343,1243.077929
7.0550,145.3627267,-28.7107976,1243.067756
7.0600,145.3543769,-28.57856609,1243.059674
7.0650,145.3383565,-28.43616542,1243.053522
7.0700,145.3151219,-28.28330871,1243.049144
7.0750,145.285035,-28.12129936,1243.0463
7.0800,145.2475191,-27.95136308,1243.044904
7.0850,145.2043127,-27.77302069,1243.044607
7.0900,145.1549057,-27.58724115,1243.045437
7.0950,145.0989922,-27.39496164,1243.04724
7.1000,145.0364014,-27.19653553,1243.050019
7.1050,144.9679429,-26.99349173,1243.053413
7.1100,144.8945897,-26.78547385,1243.057326
7.1150,144.8156341,-26.57397097,1243.06174
7.1200,144.7332999,-26.35877538,1243.066307
7.1250,144.6483806,-26.14156941,1243.070748
7.1300,144.5612609,-25.92248292,1243.075051
7.1350,144.4732514,-25.70274533,1243.078865
7.1400,144.3856835,-25.48301019,1243.081941
7.1450,144.2981666,-25.26389205,1243.084312
7.1500,144.2122442,-25.04752465,1243.085566
7.1550,144.1273702,-24.83307166,1243.085988
7.1600,144.0441445,-24.62166658,1243.085414
7.1650,143.9620532,-24.41382169,1243.083972
7.1700,143.8827851,-24.21124737,1243.081239
7.1750,143.8053242,-24.01525868,1243.077168
7.1800,143.7311698,-23.82590762,1243.071686
7.1850,143.6605197,-23.64319881,1243.064792
7.1900,143.5930682,-23.46765161,1243.056535
7.1950,143.5292351,-23.29961183,1243.046892
7.2000,143.4688573,-23.13888084,1243.035995
7.2050,143.4133464,-22.98672136,1243.023519
7.2100,143.3614624,-22.84358235,1243.009781
7.2150,143.3142836,-22.70944411,1242.994573
7.2200,143.2711426,-22.58350315,1242.978275
7.2250,143.2309265,-22.46724257,1242.960996
7.2300,143.1926872,-22.3601151,1242.943052
7.2350,143.1554326,-22.26189873,1242.924718
7.2400,143.1183567,-22.17232847,1242.906237
7.2450,143.0795076,-22.09095058,1242.888098
7.2500,143.0384077,-22.01702216,1242.870609
7.2550,142.9935854,-21.94841207,1242.854335
7.2600,142.9445576,-21.8866752,1242.839215
7.2650,142.8893448,-21.83026705,1242.825841
7.2700,142.828428,-21.77876824,1242.814185
7.2750,142.7602017,-21.73129398,1242.804698
7.2800,142.6843471,-21.68708396,1242.797416
7.2850,142.6008583,-21.64480445,1242.792444
7.2900,142.508696,-21.60342785,1242.790017
7.2950,142.4090692,-21.56276397,1242.789953
7.3000,142.3027315,-21.52271447,1242.792189
7.3050,142.1902459,-21.48199163,1242.796588
7.3100,142.0734138,-21.44150416,1242.802676
7.3150,141.9537237,-21.40095112,1242.810148
7.3200,141.8332063,-21.36016325,1242.818656
7.3250,141.71336,-21.31998883,1242.827685
7.3300,141.5954932,-21.28118379,1242.836928
7.3350,141.482446,-21.24402002,1242.845725
7.3400,141.3763625,-21.20994823,1242.853595
7.3450,141.2799583,-21.17931147,1242.859903
7.3500,141.1946243,-21.1526673,1242.864336
7.3550,141.1224087,-21.13062004,1242.866518
7.3600,141.0649895,-21.11457658,1242.86599
7.3650,141.024609,-21.10406239,1242.862319
7.3700,141.0011561,-21.10116131,1242.855455
7.3750,140.995101,-21.10588878,1242.84529
7.3800,141.0073279,-21.11782818,1242.83167
7.3850,141.0367616,-21.1381752,1242.814769
7.3900,141.0829636,-21.16714271,1242.794562
7.3950,141.1448218,-21.2035705,1242.771435
7.4000,141.2220788,-21.24849403,1242.745353
7.4050,141.3120132,-21.29933037,1242.717047
7.4100,141.4114681,-21.35750417,1242.686846
7.4150,141.5198165,-21.42155507,1242.654984
7.4200,141.6332899,-21.49111587,1242.622012
7.4250,141.7499026,-21.5639782,1242.588509
7.4300,141.8662305,-21.64033853,1242.554988
7.4350,141.9811168,-21.71941993,1242.52155
7.4400,142.0917196,-21.7994161,1242.488828
7.4450,142.1986042,-21.88035486,1242.456553
7.4500,142.299841,-21.96000284,1242.425267
7.4550,142.3955646,-22.03978948,1242.394647
7.4600,142.4858359,-22.11784792,1242.36487
7.4650,142.5710402,-22.19525121,1242.33568
7.4700,142.6498052,-22.27146818,1242.30738
7.4750,142.7237184,-22.34570415,1242.279845
7.4800,142.7920174,-22.41815052,1242.253226
7.4850,142.8555349,-22.48911031,1242.227408
7.4900,142.9163701,-22.55902465,1242.202042
7.4950,142.9743413,-22.62769121,1242.177256
7.5000,143.0305085,-22.6961497,1242.152743
7.5050,143.0848967,-22.76338866,1242.128572
7.5100,143.1390535,-22.82906369,1242.104622
7.5150,143.1927667,-22.89420922,1242.080851
7.5200,143.2469077,-22.95950585,1242.057045
7.5250,143.3015253,-23.02398747,1242.033504
7.5300,143.3565869,-23.0871971,1242.01023
7.5350,143.4124926,-23.14947266,1241.987271
7.5400,143.468527,-23.211198,1241.964849
7.5450,143.5258623,-23.27142456,1241.942963
7.5500,143.5841156,-23.32998073,1241.921737
7.5550,143.643484,-23.38878002,1241.901028
7.5600,143.7031622,-23.44573166,1241.881287
7.5650,143.7639089,-23.50276385,1241.862356
7.5700,143.8254216,-23.55858508,1241.844415
7.5750,143.8876703,-23.61380239,1241.827499
7.5800,143.9510434,-23.66834257,1241.811625
7.5850,144.0158474,-23.72316456,1241.796718
7.5900,144.083271,-23.77790387,1241.782653
7.5950,144.1550423,-23.83386965,1241.769017
7.6000,144.2324531,-23.8910637,1241.755619
7.6050,144.3170319,-23.95144424,1241.742067
7.6100,144.4089295,-24.01375357,1241.728538
7.6150,144.5098446,-24.07985764,1241.714663
7.6200,144.6214392,-24.1506459,1241.700096
7.6250,144.7447206,-24.22687709,1241.684799
7.6300,144.8819283,-24.30942615,1241.66828
7.6350,145.032677,-24.40015877,1241.650634
7.6400,145.1995187,-24.50093788,1241.631219
7.6450,145.3823141,-24.61226377,1241.610136
7.6500,145.5815654,-24.73641412,1241.587197
7.6550,145.7979899,-24.87314167,1241.562368
7.6600,146.0317753,-25.0232058,1241.535507
7.6650,146.2824271,-25.18768575,1241.506828
7.6700,146.5496878,-25.36616803,1241.476338
7.6750,146.8332201,-25.55844984,1241.444145
7.6800,147.1330225,-25.76476961,1241.410335
7.6850,147.4468372,-25.98417068,1241.375348
7.6900,147.7738979,-26.215395,1241.339419
7.6950,148.1136086,-26.45864466,1241.302665
7.7000,148.4636887,-26.71173496,1241.265608
7.7050,148.8235608,-26.97457129,1241.228397
7.7100,149.1917147,-27.2452238,1241.191484
7.7150,149.5662435,-27.52309737,1241.155276
7.7200,149.94616,-27.80654852,1241.120093
7.7250,150.3292505,-28.09533372,1241.086361
7.7300,150.7156849,-28.38840088,1241.05408
7.7350,151.1029174,-28.68402606,1241.023963
7.7400,151.4902012,-28.98178937,1240.996219
7.7450,151.876469,-29.28106891,1240.971269
7.7500,152.260542,-29.58216124,1240.949239
7.7550,152.642901,-29.88252813,1240.93042
7.7600,153.0215517,-30.18311096,1240.915052
7.7650,153.3953216,-30.48304731,1240.903353
7.7700,153.7649409,-30.78158693,1240.895285
7.7750,154.1309858,-31.07858169,1240.890745
7.7800,154.4926343,-31.37370107,1240.889872
7.7850,154.8487599,-31.66548924,1240.892805
7.7900,155.1987206,-31.95396658,1240.899535
7.7950,155.5427429,-32.23810816,1240.910001
7.8000,155.8793232,-32.51621203,1240.924464
7.8050,156.2086575,-32.7885555,1240.942886
7.8100,156.5294349,-33.0543627,1240.965266
7.8150,156.8397135,-33.31288022,1240.991778
7.8200,157.1385419,-33.56331639,1241.02251
7.8250,157.4244059,-33.80470618,1241.057497
7.8300,157.6969879,-34.0376658,1241.096643
7.8350,157.9548634,-34.26156421,1241.13994
7.8400,158.196798,-34.47592214,1241.1875
7.8450,158.4219183,-34.68236073,1241.239186
7.8500,158.6282874,-34.88026867,1241.295151
7.8550,158.8162188,-35.06865201,1241.355294
7.8600,158.9852735,-35.24913597,1241.419575
7.8650,159.1350916,-35.42142987,1241.487966
7.8700,159.2650315,-35.586196,1241.560548
7.8750,159.3765609,-35.74370051,1241.637007
7.8800,159.4705855,-35.89470134,1241.717254
7.8850,159.5463426,-36.03984664,1241.801451
7.8900,159.6059926,-36.18075783,1241.889186
7.8950,159.6489355,-36.31765395,1241.980597
7.9000,159.6772876,-36.45137505,1242.075409
7.9050,159.6910867,-36.58264677,1242.173668
7.9100,159.692569,-36.71379202,1242.274949
7.9150,159.6833252,-36.84563271,1242.378978
7.9200,159.6642054,-36.97841996,1242.485709
7.9250,159.6372269,-37.11317403,1242.594804
7.9300,159.6038823,-37.25084063,1242.706033
7.9350,159.5653725,-37.39078214,1242.819245
7.9400,159.5225408,-37.53391315,1242.934285
7.9450,159.4773585,-37.68016231,1243.050817
7.9500,159.4312453,-37.82914664,1243.168681
7.9550,159.3849508,-37.98255005,1243.287559
7.9600,159.3394176,-38.13936837,1243.407503
7.9650,159.2946163,-38.29983106,1243.528404
7.9700,159.2515678,-38.46419535,1243.650054
7.9750,159.2106461,-38.63332979,1243.772359
7.9800,159.1718919,-38.80766077,1243.895205
7.9850,159.1360515,-38.98636656,1244.018577
7.9900,159.1044695,-39.17093907,1244.142226
7.9950,159.077658,-39.35974058,1244.26612
8.0000,159.0547097,-39.55311554,1244.390282
8.0050,159.0362961,-39.74989116,1244.514686
8.0100,159.0234272,-39.94973034,1244.639162
8.0150,159.017421,-40.1510265,1244.763473
8.0200,159.018083,-40.35460268,1244.887593
8.0250,159.0270586,-40.55782647,1245.011359
8.0300,159.0425929,-40.76102474,1245.134937
8.0350,159.0666201,-40.96270884,1245.258119
8.0400,159.0986008,-41.1627877,1245.38084
8.0450,159.1384927,-41.35981658,1245.503072
8.0500,159.1867613,-41.55328913,1245.62479
8.0550,159.24124,-41.74371319,1245.74607
8.0600,159.3033804,-41.92957115,1245.86674
8.0650,159.3728847,-42.10940852,1245.986998
8.0700,159.4496212,-42.28385796,1246.106677
8.0750,159.5312611,-42.45292848,1246.226102
8.0800,159.6172604,-42.61565954,1246.345315
8.0850,159.7078517,-42.77235029,1246.464247
8.0900,159.8011417,-42.92271887,1246.583154
8.0950,159.8971517,-43.06707257,1246.701948
8.1000,159.9954725,-43.20493881,1246.820677
8.1050,160.0962475,-43.33634288,1246.939228
8.1100,160.1996274,-43.46088309,1247.057623
8.1150,160.3058725,-43.57676814,1247.175915
8.1200,160.4137814,-43.68471029,1247.294181
8.1250,160.5235898,-43.78539643,1247.412269
8.1300,160.6362452,-43.87702875,1247.530221
8.1350,160.7508129,-43.95841304,1247.648237
8.1400,160.8680712,-44.03068213,1247.766016
8.1450,160.9870947,-44.09257427,1247.883824
8.1500,161.1090627,-44.14533114,1248.001458
8.1550,161.2323799,-44.18931582,1248.119041
8.1600,161.357878,-44.22325292,1248.236468
8.1650,161.4857238,-44.24830362,1248.353646
8.1700,161.6153003,-44.26423235,1248.470658
8.1750,161.7463148,-44.27253365,1248.587585
8.1800,161.8781245,-44.27288801,1248.70447
8.1850,162.0112391,-44.26581357,1248.82122
8.1900,162.1440168,-44.25102162,1248.938075
8.1950,162.2768677,-44.22809137,1249.054957
8.2000,162.4084711,-44.19766717,1249.171882
8.2050,162.5398711,-44.15875852,1249.288803
8.2100,162.6713123,-44.11138763,1249.405563
8.2150,162.8017672,-44.05558992,1249.522298
8.2200,162.9322136,-43.99118407,1249.638868
8.2250,163.0616875,-43.91852708,1249.755249
8.2300,163.1900541,-43.83626568,1249.871652
8.2350,163.3183629,-43.74511794,1249.987783
8.2400,163.4470866,-43.64380165,1250.103719
8.2450,163.5761722,-43.53227583,1250.219537
8.2500,163.7053256,-43.41084391,1250.335041
8.2550,163.8345376,-43.27898157,1250.450401
8.2600,163.9650377,-43.1374163,1250.565326
8.2650,164.0971606,-42.98495756,1250.679876
8.2700,164.2307277,-42.82193024,1250.794024
8.2750,164.3667217,-42.64791133,1250.907623
8.2800,164.5044655,-42.46294703,1251.02078
8.2850,164.6439077,-42.26759821,1251.133442
8.2900,164.7840417,-42.06118871,1251.245707
8.2950,164.9243907,-41.84542762,1251.357633
8.3000,165.0663558,-41.62055637,1251.469033
8.3050,165.2095969,-41.38682682,1251.579878
8.3100,165.352947,-41.14542848,1251.690249
8.3150,165.495917,-40.89649214,1251.80028
8.3200,165.6391943,-40.63927533,1251.909884
8.3250,165.7826775,-40.37484979,1252.018981
8.3300,165.9257518,-40.10285684,1252.127726
8.3350,166.0679767,-39.82327238,1252.236226
8.3400,166.208924,-39.5365487,1252.344566
8.3450,166.3482238,-39.24332609,1252.452805
8.3500,166.4852993,-38.94274809,1252.561092
8.3550,166.6217471,-38.6353366,1252.669209
8.3600,166.7560484,-38.32086169,1252.777402
8.3650,166.8882632,-38.00138819,1252.885491
8.3700,167.0184866,-37.67460549,1252.993789
8.3750,167.147098,-37.34066228,1253.102207
8.3800,167.2746222,-37.00137876,1253.210441
8.3850,167.400815,-36.65649517,1253.318546
8.3900,167.5252174,-36.30539497,1253.426518
8.3950,167.6475872,-35.94750082,1253.534364
8.4000,167.7673436,-35.5859388,1253.641821
8.4050,167.8835273,-35.21942039,1253.749136
8.4100,167.9951697,-34.84817924,1253.856514
8.4150,168.1024731,-34.47381935,1253.963739
8.4200,168.2062219,-34.09561358,1254.070739
8.4250,168.3051834,-33.71408538,1254.177703
8.4300,168.3975475,-33.33053817,1254.284642
8.4350,168.4828052,-32.94672585,1254.39163
8.4400,168.5613442,-32.56075605,1254.498823
8.4450,168.6319976,-32.17302966,1254.606366
8.4500,168.6935508,-31.78378602,1254.714478
8.4550,168.7469193,-31.39234231,1254.823173
8.4600,168.79026,-30.99896561,1254.932739
8.4650,168.8241618,-30.60211389,1255.04309
8.4700,168.8487064,-30.20344617,1255.15401
8.4750,168.8639978,-29.80142431,1255.265523
8.4800,168.8697226,-29.39578945,1255.377645
8.4850,168.8660367,-28.98591437,1255.490298
8.4900,168.8529412,-28.57105807,1255.603604
8.4950,168.8304842,-28.151449,1255.717369
8.5000,168.7989872,-27.72678809,1255.831715
8.5050,168.7574758,-27.29910166,1255.946622
8.5100,168.7043811,-26.86825331,1256.062445
8.5150,168.6394069,-26.43429917,1256.179385
8.5200,168.5597358,-25.99891801,1256.297649
8.5250,168.4661814,-25.56088952,1256.417445
8.5300,168.3574572,-25.12034507,1256.538986
8.5350,168.2349557,-24.67718096,1256.662219
8.5400,168.0981807,-24.23052317,1256.787247
8.5450,167.9483584,-23.77965175,1256.913928
8.5500,167.7885547,-23.32300942,1257.04206
8.5550,167.620037,-22.85991777,1257.171382
8.5600,167.4435488,-22.39043521,1257.301754
8.5650,167.2593513,-21.91598372,1257.432957
8.5700,167.0692949,-21.43735998,1257.56459
8.5750,166.8722457,-20.95602798,1257.696665
8.5800,166.6679336,-20.4728979,1257.829205
8.5850,166.4565723,-19.98900339,1257.962016
8.5900,166.2399463,-19.50560728,1258.09464
8.5950,166.0184281,-19.02138698,1258.227172
8.6000,165.7939005,-18.53618411,1258.359259
8.6050,165.5676168,-18.05053964,1258.490648
8.6100,165.3424147,-17.56242273,1258.621171
8.6150,165.1186366,-17.07330926,1258.750549
8.6200,164.8981064,-16.58303554,1258.878662
8.6250,164.6806662,-16.09176959,1259.005646
8.6300,164.4690755,-15.59804754,1259.131374
8.6350,164.262841,-15.1033334,1259.255831
8.6400,164.0636209,-14.60730881,1259.378951
8.6450,163.8728793,-14.10889608,1259.500861
8.6500,163.6909352,-13.60853686,1259.62163
8.6550,163.5176627,-13.10570975,1259.741516
8.6600,163.3558157,-12.59920689,1259.860357
8.6650,163.206716,-12.08834599,1259.978099
8.6700,163.0711612,-11.57416799,1260.09459
8.6750,162.9492447,-11.05701701,1260.209928
8.6800,162.84155,-10.53638123,1260.324176
8.6850,162.7480631,-10.01317795,1260.437324
8.6900,162.6689158,-9.48830719,1260.549254
8.6950,162.6027912,-8.963703088,1260.659997
8.7000,162.5478721,-8.439262413,1260.770057
8.7050,162.5022506,-7.917393042,1260.879532
8.7100,162.4630645,-7.399488799,1260.988749
8.7150,162.4282862,-6.885666461,1261.09804
8.7200,162.3953388,-6.37623265,1261.207874
8.7250,162.363452,-5.869879054,1261.318478
8.7300,162.3309746,-5.364484734,1261.430523
8.7350,162.2967143,-4.858331116,1261.544233
8.7400,162.2595861,-4.351634206,1261.65969
8.7450,162.2190339,-3.844440791,1261.776707
8.7500,162.1747028,-3.335513277,1261.895555
8.7550,162.1233706,-2.826454738,1262.016458
8.7600,162.064283,-2.31777742,1262.13945
8.7650,161.9949546,-1.808668471,1262.265113
8.7700,161.9145627,-1.296834881,1262.39404
8.7750,161.8222165,-0.7823711491,1262.52627
8.7800,161.7176523,-0.2654181588,1262.66183
8.7850,161.5999994,0.2548178889,1262.801106
8.7900,161.46847,0.7766948258,1262.943904
8.7950,161.3210912,1.299623874,1263.090692
8.8000,161.1560015,1.824005929,1263.241952
8.8050,160.9719866,2.350755585,1263.398141
8.8100,160.7695925,2.879694578,1263.559167
8.8150,160.5488149,3.411219696,1263.725081
8.8200,160.3092359,3.948273692,1263.896696
8.8250,160.0516803,4.490313627,1264.073574
8.8300,159.7768744,5.038051328,1264.255781
8.8350,159.4840518,5.591654073,1264.443482
8.8400,159.1736877,6.15058587,1264.6366
8.8450,158.8458485,6.714129803,1264.835091
8.8500,158.498523,7.28203023,1265.039448
8.8550,158.1317823,7.853075263,1265.24954
8.8600,157.7433074,8.427808116,1265.466172
8.8650,157.3352344,9.007178928,1265.689032
8.8700,156.9079237,9.591757836,1265.918325
8.8750,156.4644992,10.18151238,1266.153353
8.8800,156.007128,10.77693158,1266.393811
8.8850,155.5387518,11.37714563,1266.638974
8.8900,155.059222,11.98056377,1266.888665
8.8950,154.5700211,12.58537803,1267.142234
8.9000,154.0700144,13.19004014,1267.399717
8.9050,153.5590581,13.79207259,1267.66077
8.9100,153.0369635,14.38797678,1267.924771
8.9150,152.5033365,14.97779273,1268.192059
8.9200,151.9561823,15.56005538,1268.462798
8.9250,151.3972244,16.13477506,1268.736693
8.9300,150.8265705,16.70113691,1269.013631
8.9350,150.2459751,17.2607371,1269.293481
8.9400,149.6560369,17.81476793,1269.576485
8.9450,149.0563077,18.36216674,1269.862563
8.9500,148.4481257,18.90252148,1270.151497
8.9550,147.8318934,19.43620259,1270.443375
8.9600,147.2077023,19.9632207,1270.73814
8.9650,146.5776706,20.48478819,1271.035419
8.9700,145.9417084,21.00089102,1271.335158
8.9750,145.3006784,21.51132178,1271.637
8.9800,144.6556884,22.01728136,1271.940861
8.9850,144.0086618,22.51894802,1272.245996
8.9900,143.3623651,23.01587918,1272.551341
8.9950,142.7189874,23.50791353,1272.856313
9.0000,142.0799046,23.99424168,1273.16016
9.0050,141.446357,24.47388186,1273.462048
9.0100,140.8205124,24.94692813,1273.761142
9.0150,140.2033044,25.41209958,1274.056823
9.0200,139.5956513,25.86821749,1274.348381
9.0250,138.9987391,26.3135603,1274.634821
9.0300,138.4147064,26.74861249,1274.915563
9.0350,137.8450732,27.17138259,1275.189389
9.0400,137.2916765,27.58221537,1275.45571
9.0450,136.7556131,27.98188411,1275.714223
9.0500,136.2376278,28.37041485,1275.964406
9.0550,135.7401231,28.74911506,1276.205652
9.0600,135.2643396,29.11930088,1276.437612
9.0650,134.8123556,29.48129592,1276.659683
9.0700,134.3865081,29.83604864,1276.871042
9.0750,133.9880028,30.18420206,1277.071253
9.0800,133.6171091,30.5276277,1277.26061
9.0850,133.2752702,30.86512936,1277.438175
9.0900,132.9642661,31.19819081,1277.603623
9.0950,132.6838717,31.52809122,1277.757283
9.1000,132.4358036,31.85456515,1277.89836
9.1050,132.2202593,32.17819735,1278.026944
9.1100,132.0357576,32.4987829,1278.14351
9.1150,131.8823682,32.81632639,1278.248132
9.1200,131.7606992,33.12893696,1278.340259
9.1250,131.6677182,33.43707296,1278.421323
9.1300,131.6012741,33.73915685,1278.491673
9.1350,131.5591189,34.03500023,1278.552245
9.1400,131.5390952,34.32584908,1278.604354
9.1450,131.5383523,34.61128961,1278.648923
9.1500,131.556175,34.89334527,1278.686835
9.1550,131.5904224,35.17318231,1278.719426
9.1600,131.6392271,35.45147049,1278.747604
9.1650,131.6999314,35.72930856,1278.772834
9.1700,131.7696712,36.00663358,1278.796166
9.1750,131.8457189,36.28466079,1278.818967
9.1800,131.9240863,36.56168771,1278.842207
9.1850,132.000957,36.83886242,1278.867406
9.1900,132.0732037,37.11761226,1278.896029
9.1950,132.1384348,37.39862612,1278.928841
9.2000,132.1968437,37.68070227,1278.965319
9.2050,132.2458757,37.96487316,1279.006438
9.2100,132.2831035,38.25179203,1279.052972
9.2150,132.3070924,38.54167429,1279.105308
9.2200,132.3171377,38.83383841,1279.163514
9.2250,132.3093946,39.12691122,1279.228408
9.2300,132.2815577,39.42001698,1279.300517
9.2350,132.2316964,39.71222691,1279.380333
9.2400,132.1582644,40.00353687,1279.46827
9.2450,132.0602282,40.29268198,1279.564297
9.2500,131.9369216,40.58005597,1279.668655
9.2550,131.787143,40.86582557,1279.781936
9.2600,131.6092624,41.14869326,1279.904393
9.2650,131.4022488,41.42920176,1280.036751
9.2700,131.1668087,41.70872063,1280.179234
9.2750,130.9035092,41.9890715,1280.332281
9.2800,130.6128492,42.26970963,1280.495728
9.2850,130.2933589,42.55245147,1280.670881
9.2900,129.9461434,42.83860756,1280.857947
9.2950,129.5705256,43.12888579,1281.057416
9.3000,129.1677762,43.42569104,1281.269704
9.3050,128.740525,43.73058716,1281.494513
9.3100,128.2900659,44.04318288,1281.731298
9.3150,127.8181697,44.36276456,1281.979333
9.3200,127.326881,44.69016224,1282.238379
9.3250,126.8171814,45.02460509,1282.508003
9.3300,126.2909691,45.36363681,1282.786854
9.3350,125.7495297,45.70841922,1283.074872
9.3400,125.1927776,46.05726645,1283.371577
9.3450,124.6218672,46.40951474,1283.676433
9.3500,124.0381396,46.76467737,1283.988862
9.3550,123.443613,47.12310906,1284.308332
9.3600,122.8404618,47.48367035,1284.633777
9.3650,122.2298892,47.84533917,1284.964299
9.3700,121.6121429,48.20596399,1285.299246
9.3750,120.987051,48.56442233,1285.638492
9.3800,120.3566631,48.91968268,1285.980848
9.3850,119.7213403,49.27172778,1286.326208
9.3900,119.0810129,49.61946193,1286.674309
9.3950,118.4376805,49.9617766,1287.023884
9.4000,117.7916491,50.29781249,1287.374578
9.4050,117.1451281,50.62690655,1287.725155
9.4100,116.4993213,50.94923003,1288.075103
9.4150,115.8556431,51.2640875,1288.42351
9.4200,115.2137307,51.57115206,1288.770225
9.4250,114.5752789,51.86953778,1289.11421
9.4300,113.9412651,52.16031402,1289.455417
9.4350,113.312377,52.44334081,1289.793406
9.4400,112.6891114,52.71778078,1290.127567
9.4450,112.0724533,52.98463505,1290.457757
9.4500,111.4625053,53.24127597,1290.78301
9.4550,110.8593077,53.4876107,1291.103158
9.4600,110.2638524,53.72475023,1291.418199
9.4650,109.6769699,53.95175857,1291.727268
9.4700,109.0991568,54.16878157,1292.030047
9.4750,108.5297151,54.37617332,1292.3269
9.4800,107.969965,54.57494817,1292.617433
9.4850,107.4191276,54.76419743,1292.901631
9.4900,106.877648,54.94334548,1293.178963
9.4950,106.3441441,55.11195472,1293.449935
9.5000,105.8175407,55.27097729,1293.715297
9.5050,105.2975509,55.42074185,1293.975254
9.5100,104.7840313,55.56160188,1294.229939
9.5150,104.2774408,55.69237514,1294.478743
9.5200,103.776133,55.8145475,1294.72296
9.5250,103.2811095,55.92845306,1294.962179
9.5300,102.7914967,56.03465835,1295.197038
9.5350,102.3071804,56.13334347,1295.427546
9.5400,101.8275582,56.22369464,1295.653609
9.5450,101.3529808,56.30726633,1295.875694
9.5500,100.8827208,56.38441371,1296.094211
9.5550,100.4170294,56.45565925,1296.309199
9.5600,99.95655415,56.52274172,1296.521033
9.5650,99.50026722,56.5858075,1296.73025
9.5700,99.04726057,56.64494467,1296.937391
9.5750,98.59777815,56.70101941,1297.142615
9.5800,98.15203805,56.75499384,1297.346182
9.5850,97.71128108,56.80669233,1297.547318
9.5900,97.27464079,56.85650185,1297.746679
9.5950,96.84291582,56.90528685,1297.944039
9.6000,96.41573558,56.95251484,1298.139456
9.6050,95.99281394,56.99864115,1298.333257
9.6100,95.57346913,57.0433691,1298.525742
9.6150,95.15726389,57.08772055,1298.71758
9.6200,94.742825,57.13074691,1298.908981
9.6250,94.3299168,57.17351266,1299.100545
9.6300,93.91752694,57.2158549,1299.292562
9.6350,93.50490376,57.25647552,1299.48523
9.6400,93.09162162,57.29594243,1299.679039
9.6450,92.67839726,57.33427703,1299.873598
9.6500,92.26454375,57.37076383,1300.06901
9.6550,91.8491921,57.40634458,1300.266156
9.6600,91.43228213,57.44033343,1300.464781
9.6650,91.01273779,57.47305945,1300.665788
9.6700,90.58981139,57.50377262,1300.869257
9.6750,90.16372215,57.53279232,1301.07521
9.6800,89.73347531,57.55990088,1301.284187
9.6850,89.29841074,57.58478542,1301.496283
9.6900,88.85852171,57.60701829,1301.711354
9.6950,88.41429135,57.62628455,1301.929126
9.7000,87.96415821,57.64272293,1302.150522
9.7050,87.50908664,57.65618467,1302.374917
9.7100,87.04846861,57.66643989,1302.602581
9.7150,86.58161584,57.67258085,1302.833522
9.7200,86.10870313,57.67547484,1303.068029
9.7250,85.63109506,57.67515843,1303.305249
9.7300,85.14946163,57.67059995,1303.54435
9.7350,84.6648975,57.662554,1303.784982
9.7400,84.1775874,57.65037804,1304.026781
9.7450,83.68835425,57.63347804,1304.269213
9.7500,83.19719794,57.6122745,1304.512373
9.7550,82.7059879,57.58691745,1304.755222
9.7600,82.21539746,57.55673436,1304.99693
9.7650,81.7253044,57.52124909,1305.237448
9.7700,81.23713435,57.48105064,1305.476287
9.7750,80.75118294,57.43648495,1305.713447
9.7800,80.26890961,57.38766221,1305.948059
9.7850,79.79199244,57.33532779,1306.179396
9.7900,79.32170053,57.28037768,1306.407226
9.7950,78.8597594,57.22235582,1306.630339
9.8000,78.40573502,57.16282796,1306.849746
9.8050,77.96177052,57.10253338,1307.064518
9.8100,77.5292914,57.04278009,1307.274396
9.8150,77.10809759,56.9848264,1307.479862
9.8200,76.70111488,56.92891771,1307.679143
9.8250,76.30844066,56.87616278,1307.872632
9.8300,75.93099914,56.82690659,1308.059854
9.8350,75.5694381,56.78202706,1308.240809
9.8400,75.22459155,56.74218151,1308.415206
9.8450,74.89500064,56.70865379,1308.584319
9.8500,74.58105895,56.68243293,1308.748374
9.8550,74.28220854,56.66386515,1308.907722
9.8600,73.99862549,56.65303765,1309.06233
9.8650,73.72979237,56.65131425,1309.213121
9.8700,73.47586695,56.6587258,1309.359849
9.8750,73.23594715,56.6742347,1309.502619
9.8800,73.01002218,56.69845486,1309.64158
9.8850,72.79687551,56.73158347,1309.777574
9.8900,72.59609861,56.77327237,1309.910727
9.8950,72.40609651,56.82278897,1310.041696
9.9000,72.22713849,56.88089342,1310.170523
9.9050,72.05707698,56.94596429,1310.298032
9.9100,71.89525671,57.01901614,1310.425048
9.9150,71.74110575,57.09954531,1310.551618
9.9200,71.5945251,57.18710335,1310.677518
9.9250,71.45501885,57.28159408,1310.803014
9.9300,71.32173471,57.3820342,1310.928314
9.9350,71.19430516,57.48822368,1311.053423
9.9400,71.0730216,57.59941349,1311.177815
9.9450,70.95603149,57.71464631,1311.302292
9.9500,70.84401807,57.8346867,1311.426686
9.9550,70.73564505,57.9574639,1311.550933
9.9600,70.62945367,58.08282468,1311.675769
9.9650,70.5262247,58.21069595,1311.800536
9.9700,70.42653355,58.34134241,1311.925033
9.9750,70.32904379,58.47304319,1312.049281
9.9800,70.23301562,58.60497996,1312.173387
9.9850,70.13922796,58.73706517,1312.296892
9.9900,70.04742383,58.86926513,1312.419862
9.9950,69.95713073,59.0010905,1312.542434
10.0000,69.86920075,59.13276164,1312.664017
10.0050,69.78201911,59.26296294,1312.785145
10.0100,69.69678365,59.39120822,1312.904828
10.0150,69.61405884,59.51863582,1313.023071
10.0200,69.5353067,59.64322923,1313.138113
10.0250,69.46016821,59.76479127,1313.249983
10.0300,69.3893382,59.88291378,1313.358013
10.0350,69.32212756,59.99602378,1313.461889
10.0400,69.25920966,60.10411212,1313.561169
10.0450,69.2009915,60.2056845,1313.654715
10.0500,69.1479192,60.30138896,1313.742556
10.0550,69.09796251,60.39007836,1313.825568
10.0600,69.05268358,60.47185132,1313.902825
10.0650,69.01227637,60.54658009,1313.974113
10.0700,68.97667301,60.61501222,1314.039846
10.0750,68.94709328,60.67640214,1314.098914
10.0800,68.923536,60.73221789,1314.151916
10.0850,68.9065564,60.78228493,1314.1985
10.0900,68.89735784,60.82748983,1314.238132
10.0950,68.89588972,60.86864606,1314.27129
10.1000,68.90377588,60.90548359,1314.296709
10.1050,68.92054611,60.93781175,1314.314689
10.1100,68.94485607,60.96495768,1314.325799
10.1150,68.9780905,60.98766319,1314.329639
10.1200,69.01915529,61.00549774,1314.326793
10.1250,69.0684727,61.01898259,1314.317222
10.1300,69.12707188,61.02954295,1314.30086
10.1350,69.1936079,61.03645155,1314.278285
10.1400,69.268408,61.04123694,1314.250069
10.1450,69.35214039,61.04307464,1314.215422
10.1500,69.44375749,61.04275741,1314.175365
10.1550,69.5448798,61.04154686,1314.129415
10.1600,69.654744,61.0397057,1314.078101
10.1650,69.7726064,61.0356188,1314.021235
10.1700,69.89846055,61.03065694,1313.959382
10.1750,70.03229518,61.02577257,1313.892956
10.1800,70.17201149,61.02006199,1313.822783
10.1850,70.31883086,61.0138957,1313.748327
10.1900,70.47018805,61.00674233,1313.67091
10.1950,70.62653736,61.00001621,1313.590867
10.2000,70.78679986,60.99309478,1313.508631
10.2050,70.95067479,60.98738781,1313.424917
10.2100,71.11871314,60.98241017,1313.339198
10.2150,71.28946305,60.97825482,1313.252386
10.2200,71.46291178,60.97546238,1313.164813
10.2250,71.63834186,60.97311269,1313.076507
10.2300,71.81559335,60.97146973,1312.987719
10.2350,71.99442308,60.96986473,1312.898293
10.2400,72.17378213,60.96742155,1312.808498
10.2450,72.3546227,60.96482378,1312.717996
10.2500,72.53631174,60.96062216,1312.626543
10.2550,72.71913867,60.95508408,1312.534085
10.2600,72.90208574,60.94775517,1312.441028
10.2650,73.08436387,60.93694914,1312.347166
10.2700,73.26498189,60.92253407,1312.253035
10.2750,73.44456559,60.90471448,1312.158341
10.2800,73.62276181,60.88292454,1312.062971
10.2850,73.79921022,60.857141,1311.967086
10.2900,73.97324192,60.8267422,1311.870946
10.2950,74.14473389,60.79130186,1311.774344
10.3000,74.31378154,60.75091023,1311.677378
10.3050,74.48115678,60.70526406,1311.579355
10.3100,74.64700032,60.6547936,1311.480324
10.3150,74.81171318,60.5980889,1311.379512
10.3200,74.97439523,60.53572055,1311.27757
10.3250,75.13521922,60.46689944,1311.174262
10.3300,75.29399723,60.39178561,1311.069662
10.3350,75.45150887,60.31061502,1310.963526
10.3400,75.60796525,60.22309313,1310.855383
10.3450,75.76354528,60.12986177,1310.74554
10.3500,75.91879305,60.03015444,1310.633336
10.3550,76.0751393,59.92513357,1310.518338
10.3600,76.23217919,59.81344392,1310.400328
10.3650,76.39002148,59.69655319,1310.279869
10.3700,76.54960242,59.57271303,1310.155674
10.3750,76.71049341,59.44270806,1310.028359
10.3800,76.87341392,59.30637182,1309.897538
10.3850,77.03834973,59.16423442,1309.763476
10.3900,77.20507045,59.01556534,1309.625985
10.3950,77.37359998,58.86099012,1309.485273
10.4000,77.54321375,58.70123759,1309.342132
10.4050,77.71495505,58.53703935,1309.196215
10.4100,77.88949366,58.36936837,1309.047547
10.4150,78.06635635,58.19962583,1308.89704
10.4200,78.2461511,58.02832683,1308.744549
10.4250,78.42888375,57.8563141,1308.590546
10.4300,78.61430613,57.68435297,1308.435525
10.4350,78.80360357,57.51297791,1308.279138
10.4400,78.9962577,57.34219337,1308.121624
10.4450,79.19300661,57.17364644,1307.963396
10.4500,79.39417697,57.00713089,1307.804037
10.4550,79.59920488,56.84174972,1307.643457
10.4600,79.80737802,56.6785143,1307.482536
10.4650,80.0197349,56.51785195,1307.320695
10.4700,80.23602795,56.35907857,1307.157858
10.4750,80.45447223,56.20200096,1306.994932
10.4800,80.67653419,56.04774084,1306.831661
10.4850,80.8999602,55.89476792,1306.668629
10.4900,81.12615596,55.74388027,1306.505363
10.4950,81.35345388,55.59473345,1306.342686
10.5000,81.58170702,55.44716456,1306.180678
10.5050,81.81059792,55.30109403,1306.01949
10.5100,82.0394296,55.15603634,1305.859303
10.5150,82.26876768,55.01182548,1305.699707
10.5200,82.4976863,54.86808968,1305.541077
10.5250,82.72606514,54.72386847,1305.383049
10.5300,82.95329601,54.57947062,1305.226054
10.5350,83.17909518,54.43406891,1305.069875
10.5400,83.40354283,54.28877935,1304.914782
10.5450,83.62518887,54.14247723,1304.761189
10.5500,83.84287039,53.99490056,1304.609518
10.5550,84.05722731,53.84607639,1304.459437
10.5600,84.26882295,53.69563698,1304.31047
10.5650,84.47765262,53.54391865,1304.162867
10.5700,84.68446224,53.39111227,1304.016206
10.5750,84.88908944,53.23688347,1303.870476
10.5800,85.09264175,53.08097656,1303.725078
10.5850,85.29416101,52.9227707,1303.580208
10.5900,85.49446178,52.76212712,1303.43539
10.5950,85.69368371,52.59951171,1303.29069
10.6000,85.89200841,52.43327971,1303.145235
10.6050,86.0886138,52.26355462,1302.999604
10.6100,86.28395392,52.09042319,1302.853612
10.6150,86.47759267,51.91414618,1302.707573
10.6200,86.67191703,51.73573335,1302.560584
10.6250,86.86624518,51.55483293,1302.412817
10.6300,87.06099676,51.37107053,1302.263992
10.6350,87.2572375,51.18441652,1302.113563
10.6400,87.45532717,50.99559398,1301.961761
10.6450,87.65529284,50.80463392,1301.80862
10.6500,87.85732993,50.61204109,1301.654336
10.6550,88.06151008,50.41712892,1301.498612
10.6600,88.26875222,50.22052383,1301.341103
10.6650,88.47950688,50.02294543,1301.181875
10.6700,88.69402131,49.82499089,1301.020999
10.6750,88.91231412,49.62675607,1300.858582
10.6800,89.13398342,49.4275416,1300.694501
10.6850,89.35955663,49.22817227,1300.528713
10.6900,89.58926978,49.02929777,1300.361409
10.6950,89.82377576,48.83072278,1300.19207
10.7000,90.06316285,48.6324793,1300.020751
10.7050,90.30626677,48.43393445,1299.847737
10.7100,90.55316775,48.23508797,1299.673127
10.7150,90.80390658,48.03527487,1299.496567
10.7200,91.05759515,47.83433181,1299.318577
10.7250,91.31453756,47.63247371,1299.138945
10.7300,91.57422756,47.42818738,1298.957366
10.7350,91.83595898,47.22265077,1298.774652
10.7400,92.09943326,47.01540953,1298.590813
10.7450,92.36465198,46.80600915,1298.405585
10.7500,92.63183668,46.59509066,1298.219317
10.7550,92.90027079,46.38334741,1298.032619
10.7600,93.17099819,46.16940691,1297.844452
10.7650,93.44328944,45.95453212,1297.655662
10.7700,93.71697791,45.73859999,1297.4663
10.7750,93.99304777,45.52136557,1297.275929
10.7800,94.26991112,45.30261123,1297.085212
10.7850,94.54816092,45.08334157,1296.894175
10.7900,94.82670552,44.86381978,1296.703522
10.7950,95.10622539,44.64223029,1296.512242
10.8000,95.38557966,44.41862406,1296.320875
10.8050,95.66440004,44.19329696,1296.129632
10.8100,95.94189565,43.96636634,1295.938958
10.8150,96.21815418,43.73797524,1295.748776
10.8200,96.49343957,43.50828613,1295.558967
10.8250,96.76774081,43.27777017,1295.369665
10.8300,97.04111207,43.04586945,1295.18067
10.8350,97.31271849,42.81341803,1294.992654
10.8400,97.58277713,42.57958541,1294.805199
10.8450,97.85217566,42.34390189,1294.617662
10.8500,98.12117377,42.10721552,1294.430345
10.8550,98.38931888,41.86832808,1294.242986
10.8600,98.65548754,41.62783196,1294.056562
10.8650,98.91945396,41.38533762,1293.870887
10.8700,99.17915522,41.14094047,1293.687032
10.8750,99.43605337,40.89558155,1293.504508
10.8800,99.68943184,40.64948108,1293.323637
10.8850,99.94086275,40.40362227,1293.144042
10.8900,100.1895219,40.15783876,1292.965832
10.8950,100.4355673,39.91286141,1292.789361
10.9000,100.678424,39.66793612,1292.61471
10.9050,100.9192122,39.42405837,1292.441675
10.9100,101.1576862,39.18139499,1292.270422
10.9150,101.3943346,38.93997444,1292.100724
10.9200,101.62854,38.69882708,1291.932569
10.9250,101.8602898,38.45883494,1291.766336
10.9300,102.0900126,38.22006611,1291.601869
10.9350,102.3177476,37.98328242,1291.439261
10.9400,102.5436513,37.74889796,1291.278647
10.9450,102.7689898,37.51659613,1291.119265
10.9500,102.9935472,37.28625493,1290.961016
10.9550,103.2182483,37.05754349,1290.803367
10.9600,103.4422705,36.83130309,1290.647032
10.9650,103.6662982,36.60551834,1290.491031
10.9700,103.8902317,36.38080876,1290.335604
10.9750,104.1152648,36.15686882,1290.179995
10.9800,104.3417268,35.93308142,1290.023814
10.9850,104.5690496,35.7081056,1289.866869
10.9900,104.7973066,35.48184138,1289.709128
10.9950,105.0274086,35.25372832,1289.550038
11.0000,105.2595049,35.0234951,1289.389429
11.0050,105.4941137,34.79188583,1289.227404
11.0100,105.7322328,34.55890207,1289.063433
11.0150,105.9730824,34.32370166,1288.897621
11.0200,106.2171711,34.08717097,1288.730062
11.0250,106.4635077,33.84856343,1288.561026
11.0300,106.712669,33.60832755,1288.390473
11.0350,106.9651341,33.36567715,1288.217835
11.0400,107.2214547,33.12117108,1288.043173
11.0450,107.4814131,32.87491697,1287.866696
11.0500,107.7444089,32.62630656,1287.688352
11.0550,108.0110693,32.37642636,1287.508312
11.0600,108.2808109,32.12451271,1287.326618
11.0650,108.5548634,31.87076369,1287.142809
11.0700,108.8331083,31.61587042,1286.957256
11.0750,109.1155095,31.35954787,1286.769848
11.0800,109.4027118,31.10238396,1286.580586
11.0850,109.6936989,30.84346721,1286.389686
11.0900,109.9904281,30.58334279,1286.196426
11.0950,110.2923784,30.32369065,1286.001566
11.1000,110.5999807,30.06462353,1285.804983
11.1050,110.9132955,29.80627253,1285.606782
11.1100,111.2329897,29.5489416,1285.406787
11.1150,111.5586041,29.29268798,1285.205359
11.1200,111.8900125,29.03686255,1285.002356
11.1250,112.2275625,28.78170359,1284.797794
11.1300,112.5715046,28.52680375,1284.591331
11.1350,112.9223819,28.27278543,1284.382977
11.1400,113.2795703,28.02012185,1284.173211
11.1450,113.6425928,27.76878549,1283.962307
11.1500,114.0113748,27.51960766,1283.750503
11.1550,114.3863336,27.2725661,1283.5377
11.1600,114.7694178,27.02787196,1283.323072
11.1650,115.1606331,26.78649774,1283.107084
11.1700,115.5622053,26.54859908,1282.888936
11.1750,115.9731279,26.31423665,1282.66927
11.1800,116.3947092,26.08298842,1282.447586
11.1850,116.8258018,25.85444118,1282.224224
11.1900,117.2685954,25.62898003,1281.998738
11.1950,117.7239669,25.40539175,1281.770389
11.2000,118.193738,25.18625936,1281.539296
11.2050,118.6777121,24.97147912,1281.305518
11.2100,119.1767322,24.75985347,1281.068424
11.2150,119.6910996,24.55056645,1280.827728
11.2200,120.2210359,24.34367526,1280.58337
11.2250,120.7677406,24.13831255,1280.334656
11.2300,121.3304825,23.93330625,1280.081533
11.2350,121.9078743,23.72769373,1279.824373
11.2400,122.4996808,23.51996014,1279.562828
11.2450,123.1046794,23.30930333,1279.297201
11.2500,123.7215183,23.09429792,1279.027671
11.2550,124.3488591,22.87398077,1278.754401
11.2600,124.9863289,22.64683956,1278.477185
11.2650,125.6330186,22.41221311,1278.196134
11.2700,126.2864328,22.16894668,1277.911842
11.2750,126.9449852,21.91524337,1277.624396
11.2800,127.6074838,21.65142375,1277.334346
11.2850,128.2731083,21.37827963,1277.042255
11.2900,128.9409611,21.09439051,1276.74802
11.2950,129.6096168,20.80060662,1276.452459
11.3000,130.2772039,20.49706524,1276.156314
11.3050,130.9415288,20.18365522,1275.860307
11.3100,131.6010223,19.86030988,1275.564986
11.3150,132.2543502,19.52819018,1275.271191
11.3200,132.9017108,19.1880516,1274.978908
11.3250,133.543834,18.84127796,1274.688294
11.3300,134.1795656,18.48887188,1274.399792
11.3350,134.8088014,18.13310822,1274.114009
11.3400,135.4310241,17.77554053,1273.83145
11.3450,136.0467561,17.4165615,1273.551962
11.3500,136.6577451,17.05701106,1273.275213
11.3550,137.2644149,16.69756398,1273.001138
11.3600,137.8675339,16.34007597,1272.729955
11.3650,138.4659404,15.98489614,1272.462043
11.3700,139.059538,15.63168253,1272.19717
11.3750,139.6459742,15.28128205,1271.936153
11.3800,140.2249318,14.93441582,1271.679108
11.3850,140.79682,14.59248236,1271.426171
11.3900,141.3585256,14.25556184,1271.178174
11.3950,141.9091357,13.92245596,1270.935002
11.4000,142.4468164,13.59399231,1270.697301
11.4050,142.9718333,13.27022111,1270.464891
11.4100,143.4835448,12.95213211,1270.238038
11.4150,143.9831768,12.64057274,1270.016485
11.4200,144.4697915,12.33562915,1269.800374
11.4250,144.9433505,12.04031881,1269.59036
11.4300,145.4040396,11.75434358,1269.386207
11.4350,145.8518727,11.47822905,1269.187978
11.4400,146.2872898,11.213143,1268.995766
11.4450,146.7104919,10.96038415,1268.809616
11.4500,147.1223543,10.71938317,1268.629112
11.4550,147.5235227,10.49155029,1268.45437
11.4600,147.9146334,10.2768406,1268.28508
11.4650,148.2958814,10.07531167,1268.121038
11.4700,148.6668385,9.887181426,1267.962267
11.4750,149.029685,9.711250109,1267.807816
11.4800,149.3844923,9.548240439,1267.657643
11.4850,149.7328983,9.397044466,1267.511127
11.4900,150.0747954,9.256261485,1267.367832
11.4950,150.4106204,9.125917671,1267.22749
11.5000,150.7394488,9.002865173,1267.089567
11.5050,151.0606951,8.885333421,1266.953754
11.5100,151.3736012,8.771158721,1266.819728
11.5150,151.6770312,8.659940939,1266.687716
11.5200,151.9676618,8.548993571,1266.55785
11.5250,152.2450049,8.437236964,1266.430024
11.5300,152.5092165,8.325064379,1266.304274
11.5350,152.7589889,8.211479456,1266.180686
11.5400,152.9937853,8.094681792,1266.058933
11.5450,153.211908,7.975133625,1265.939497
11.5500,153.4147701,7.851839446,1265.821859
11.5550,153.6026981,7.725543494,1265.706118
11.5600,153.7756954,7.595478477,1265.592064
11.5650,153.935105,7.461408531,1265.479351
11.5700,154.0823043,7.322930141,1265.367544
11.5750,154.2178636,7.180202893,1265.256541
11.5800,154.3422604,7.031809314,1265.145817
11.5850,154.4568118,6.875908403,1265.034652
11.5900,154.5593143,6.711823796,1264.923337
11.5950,154.6497198,6.539301967,1264.811586
11.6000,154.7286085,6.357651964,1264.699026
11.6050,154.7980044,6.167538036,1264.58535
11.6100,154.8588998,5.97001511,1264.470536
11.6150,154.9145125,5.765768948,1264.353963
11.6200,154.9655519,5.555464963,1264.23592
11.6250,155.0125931,5.338576185,1264.116243
11.6300,155.0584277,5.116883057,1263.994897
11.6350,155.1038666,4.888796223,1263.871434
11.6400,155.1507716,4.654330829,1263.745554
11.6450,155.1984384,4.414411181,1263.617574
11.6500,155.2460239,4.169584462,1263.487711
11.6550,155.2935912,3.918877323,1263.355739
11.6600,155.3405967,3.661751284,1263.221719
11.6650,155.3869909,3.398833169,1263.085788
11.6700,155.4335245,3.130051799,1262.947924
11.6750,155.4825488,2.856754613,1262.807871
11.6800,155.5340272,2.577662838,1262.665443
11.6850,155.5878703,2.293810071,1262.520933
11.6900,155.6450943,2.004175031,1262.373946
11.6950,155.7064705,1.710674786,1262.224935
11.7000,155.7742963,1.412733779,1262.073478
11.7050,155.8482091,1.112285782,1261.920194
11.7100,155.9282707,0.8088457497,1261.765073
11.7150,156.0134905,0.5023563521,1261.608453
11.7200,156.1057423,0.193567126,1261.450293
11.7250,156.2034106,-0.1189379612,1261.290696
11.7300,156.306841,-0.4336713235,1261.130067
11.7350,156.4163088,-0.7496085643,1260.968715
11.7400,156.5321521,-1.067265814,1260.806499
11.7450,156.6548476,-1.385519196,1260.643657
11.7500,156.7832287,-1.702922591,1260.480761
11.7550,156.9176761,-2.020027888,1260.317593
11.7600,157.0586793,-2.334826763,1260.154522
11.7650,157.2062809,-2.647677107,1259.99155
11.7700,157.3616572,-2.957972581,1259.828703
11.7750,157.5235798,-3.264139383,1259.666354
11.7800,157.6911267,-3.567446781,1259.504474
11.7850,157.862983,-3.867100222,1259.343267
11.7900,158.0387618,-4.163226166,1259.182733
11.7950,158.217013,-4.457688954,1259.022816
11.8000,158.3967859,-4.749741435,1258.863631
11.8050,158.578308,-5.040336054,1258.704925
11.8100,158.7587059,-5.329209726,1258.547016
11.8150,158.9371691,-5.617755649,1258.38965
11.8200,159.1139183,-5.906231653,1258.232707
11.8250,159.2868994,-6.194387864,1258.076454
11.8300,159.4541598,-6.483612681,1257.920937
11.8350,159.6160513,-6.774185398,1257.765995
11.8400,159.7711524,-7.064747809,1257.612186
11.8450,159.920837,-7.355462597,1257.459294
11.8500,160.0659937,-7.645730246,1257.307315
11.8550,160.2060454,-7.935782913,1257.156383
11.8600,160.340571,-8.2244197,1257.006797
11.8650,160.4678496,-8.510992252,1256.858891
11.8700,160.5876409,-8.794814468,1256.712795
11.8750,160.7001825,-9.074032413,1256.568867
11.8800,160.8059087,-9.347842041,1256.427217
11.8850,160.90389,-9.614144907,1256.288327
11.8900,160.9958224,-9.87221264,1256.151976
11.8950,161.0815274,-10.12211432,1256.018223
11.9000,161.1615291,-10.36313436,1255.886902
11.9050,161.235678,-10.59578252,1255.757864
11.9100,161.302676,-10.82163013,1255.63086
11.9150,161.3623574,-11.04121114,1255.505825
11.9200,161.4138332,-11.25596186,1255.382415
11.9250,161.4576252,-11.46536234,1255.260551
11.9300,161.4921719,-11.67132022,1255.140099
11.9350,161.5173778,-11.87403414,1255.021059
11.9400,161.5324651,-12.07387085,1254.903412
11.9450,161.5392152,-12.2712975,1254.78698
11.9500,161.5392971,-12.46632342,1254.671644
11.9550,161.5333843,-12.65788542,1254.557584
11.9600,161.5220056,-12.84509356,1254.4448
11.9650,161.5074344,-13.02715768,1254.333202
11.9700,161.4905557,-13.20290521,1254.222781
11.9750,161.4732217,-13.3723847,1254.113467
11.9800,161.4563347,-13.53423497,1254.005271
11.9850,161.4419522,-13.68985003,1253.897678
11.9900,161.4314459,-13.83784584,1253.790875
11.9950,161.4256678,-13.97842868,1253.68456
12.0000,161.4250204,-14.1111994,1253.578722
12.0050,161.4299323,-14.23714771,1253.473015
12.0100,161.4402793,-14.35670979,1253.367442
12.0150,161.456655,-14.46996643,1253.261824
12.0200,161.4769766,-14.57633166,1253.156547
12.0250,161.5024081,-14.67617035,1253.051291
12.0300,161.5310192,-14.76913041,1252.946248
12.0350,161.5627354,-14.85545085,1252.841326
12.0400,161.595623,-14.93502798,1252.736904
12.0450,161.6287221,-15.00816806,1252.633004
12.0500,161.6612739,-15.07616611,1252.529442
12.0550,161.6924905,-15.13812565,1252.426488
12.0600,161.7206649,-15.19623721,1252.324201
12.0650,161.7458591,-15.25043949,1252.222492
12.0700,161.7658097,-15.30167035,1252.121503
12.0750,161.7800931,-15.35123157,1252.02117
12.0800,161.7884636,-15.39956348,1251.921475
12.0850,161.7902835,-15.44749544,1251.822358
12.0900,161.7850625,-15.4952766,1251.72383
12.0950,161.7729011,-15.54209174,1251.62594
12.1000,161.7526228,-15.58960182,1251.528619
12.1050,161.7229549,-15.63811447,1251.431994
12.1100,161.6842886,-15.68728465,1251.336131
12.1150,161.6368631,-15.73642333,1251.241164
12.1200,161.5816861,-15.7847665,1251.147118
12.1250,161.5183033,-15.83270205,1251.054063
12.1300,161.4475921,-15.87963121,1250.962097
12.1350,161.3694825,-15.92578175,1250.871167
12.1400,161.2834212,-15.97112994,1250.781391
12.1450,161.1883505,-16.01586142,1250.692834
12.1500,161.0824385,-16.05944748,1250.605921
12.1550,160.9657379,-16.10197295,1250.520632
12.1600,160.8391443,-16.14406641,1250.436713
12.1650,160.7019443,-16.18638608,1250.354201
12.1700,160.5544593,-16.22818288,1250.273314
12.1750,160.3958744,-16.27209397,1250.19368
12.1800,160.2259248,-16.31798667,1250.115431
12.1850,160.0444744,-16.36754177,1250.038425
12.1900,159.8525534,-16.42000846,1249.96255
12.1950,159.6506925,-16.47719446,1249.887536
12.2000,159.4401524,-16.53958766,1249.813302
12.2050,159.2216436,-16.60732853,1249.73971
12.2100,158.9967301,-16.67923281,1249.666809
12.2150,158.7669658,-16.75570024,1249.59427
12.2200,158.5360954,-16.83587289,1249.52172
12.2250,158.3051264,-16.91943834,1249.448926
12.2300,158.0779047,-17.00634644,1249.375395
12.2350,157.8571062,-17.09459364,1249.300908
12.2400,157.6455065,-17.18428483,1249.225098
12.2450,157.445112,-17.27384922,1249.147784
12.2500,157.2580786,-17.36242586,1249.068749
12.2550,157.0856434,-17.44972291,1248.987862
12.2600,156.9302062,-17.5342853,1248.904985
12.2650,156.7913131,-17.61579114,1248.820299
12.2700,156.6691968,-17.69400856,1248.733856
12.2750,156.5632041,-17.77002912,1248.645509
12.2800,156.4734921,-17.84202743,1248.555561
12.2850,156.3991511,-17.90889355,1248.464304
12.2900,156.3384402,-17.97067132,1248.371965
12.2950,156.2899879,-18.02802767,1248.278691
12.3000,156.2514428,-18.08096229,1248.184777
12.3050,156.2211137,-18.12940127,1248.090631
12.3100,156.1974215,-18.17348778,1247.996329
12.3150,156.176933,-18.2148739,1247.902163
12.3200,156.1585194,-18.25316155,1247.808284
12.3250,156.1404075,-18.289626,1247.714804
12.3300,156.1202486,-18.3246744,1247.621949
12.3350,156.0959368,-18.35885618,1247.529974
12.3400,156.0669925,-18.39260507,1247.438741
12.3450,156.0314531,-18.42694264,1247.348409
12.3500,155.9881881,-18.46083982,1247.259348
12.3550,155.9372341,-18.49469343,1247.171499
12.3600,155.8773074,-18.52783093,1247.084976
12.3650,155.809198,-18.55949859,1246.999835
12.3700,155.735037,-18.59033927,1246.915599
12.3750,155.6548871,-18.62003986,1246.832346
12.3800,155.5701447,-18.64714849,1246.750051
12.3850,155.4814446,-18.67133024,1246.668731
12.3900,155.3890782,-18.6921651,1246.588377
12.3950,155.2932234,-18.70964011,1246.509032
12.4000,155.1950014,-18.72260852,1246.430699
12.4050,155.0949132,-18.7299201,1246.353456
12.4100,154.9928986,-18.73146334,1246.277352
12.4150,154.8877271,-18.72803218,1246.202414
12.4200,154.7788416,-18.71964188,1246.128693
12.4250,154.665581,-18.70680635,1246.056211
12.4300,154.5475017,-18.6893875,1245.985044
12.4350,154.4237287,-18.66742912,1245.915396
12.4400,154.2953407,-18.64195339,1245.847022
12.4450,154.1625098,-18.61323443,1245.779936
12.4500,154.0260971,-18.5823313,1245.713712
12.4550,153.8865793,-18.55003945,1245.648321
12.4600,153.7432007,-18.5161596,1245.583952
12.4650,153.5983461,-18.48140953,1245.520244
12.4700,153.4517038,-18.44688945,1245.457125
12.4750,153.305428,-18.41216496,1245.394338
12.4800,153.1604587,-18.37734622,1245.331799
12.4850,153.0176575,-18.3421505,1245.2694
12.4900,152.8778137,-18.30824657,1245.206923
12.4950,152.7412589,-18.27477526,1245.144541
12.5000,152.6092909,-18.24258537,1245.081914
12.5050,152.4815179,-18.21247492,1245.019015
12.5100,152.3593335,-18.18490155,1244.955547
12.5150,152.241381,-18.160035,1244.891655
12.5200,152.1267069,-18.13834152,1244.827426
12.5250,152.0148449,-18.11952479,1244.763045
12.5300,151.9054297,-18.10232688,1244.698644
12.5350,151.7966636,-18.08713479,1244.634465
12.5400,151.6877021,-18.07300127,1244.570775
12.5450,151.5776783,-18.0592254,1244.507745
12.5500,151.4648523,-18.04579375,1244.44561
12.5550,151.3486555,-18.03263134,1244.384406
12.5600,151.2279987,-18.01977464,1244.324395
12.5650,151.1012208,-18.00696029,1244.265789
12.5700,150.9673012,-17.99384074,1244.208816
12.5750,150.8274596,-17.97766645,1244.15369
12.5800,150.6827187,-17.95868458,1244.100194
12.5850,150.5330862,-17.93590958,1244.04855
12.5900,150.3797404,-17.90819452,1243.998689
12.5950,150.2224924,-17.87557604,1243.950691
12.6000,150.0617092,-17.83743107,1243.904697
12.6050,149.8977424,-17.79585955,1243.860368
12.6100,149.7305899,-17.7513844,1243.817712
12.6150,149.5627328,-17.70348614,1243.77656
12.6200,149.3947895,-17.65267025,1243.736774
12.6250,149.2290858,-17.59952035,1243.697995
12.6300,149.0690451,-17.54417004,1243.659817
12.6350,148.9159708,-17.48777793,1243.62192
12.6400,148.7706446,-17.43037636,1243.584243
12.6450,148.6352086,-17.37106272,1243.546587
12.6500,148.5104367,-17.31188242,1243.508519
12.6550,148.3956738,-17.25146193,1243.470338
12.6600,148.2913088,-17.18908175,1243.432121
12.6650,148.1965209,-17.12407203,1243.393966
12.6700,148.1106387,-17.05453524,1243.356313
12.6750,148.0342758,-16.9784482,1243.319286
12.6800,147.9673492,-16.89687606,1243.2827
12.6850,147.9096395,-16.80716088,1243.247066
12.6900,147.8599947,-16.70909083,1243.212549
12.6950,147.8169187,-16.60251926,1243.179371
12.7000,147.7798713,-16.48762867,1243.147711
12.7050,147.7483803,-16.36419336,1243.117576
12.7100,147.7224573,-16.2330236,1243.088864
12.7150,147.7030907,-16.09374552,1243.061526
12.7200,147.6909394,-15.94590741,1243.035512
12.7250,147.6873428,-15.78986437,1243.010543
12.7300,146.6502048,-14.47300711,1243.327744
12.7350,146.8763102,-14.42181104,1243.264555
12.7400,147.1045439,-14.36541523,1243.201888
12.7450,147.3360795,-14.30363426,1243.139509
12.7500,147.5706264,-14.23661296,1243.077474
12.7550,147.8092898,-14.16506895,1243.015424
12.7600,148.0529778,-14.08977082,1242.953135
12.7650,148.3021611,-14.01061764,1242.890433
12.7700,148.5574846,-13.92863087,1242.82713
12.7750,148.8183439,-13.84419899,1242.763355
12.7800,149.0845356,-13.75810521,1242.699059
12.7850,149.3561294,-13.67089726,1242.634223
12.7900,149.6325563,-13.58352486,1242.568857
12.7950,149.9139615,-13.49581801,1242.503028
12.8000,150.1987047,-13.40789368,1242.4371
12.8050,150.4861181,-13.32028174,1242.3712
12.8100,150.7755944,-13.23352675,1242.305357
12.8150,151.0670117,-13.14723266,1242.239729
12.8200,151.3587231,-13.06182162,1242.174575
12.8250,150.0818596,-11.95694655,1242.391716
12.8300,150.2718454,-11.78041346,1242.351612
12.8350,150.4592017,-11.60925375,1242.311368
12.8400,150.6436804,-11.44375192,1242.270917
12.8450,150.8229357,-11.28576229,1242.230458
12.8500,150.9985432,-11.13384959,1242.189992
12.8550,151.1689349,-10.9885532,1242.149731
12.8600,151.3346501,-10.84930037,1242.109745
12.8650,151.4981959,-10.71690638,1242.069611
12.8700,151.6608179,-10.59115221,1242.029157
12.8750,151.8211139,-10.47274765,1241.988641
12.8800,151.977054,-10.36176881,1241.948474
12.8850,152.1283326,-10.25970363,1241.908518
12.8900,152.2744271,-10.16684248,1241.868846
12.8950,152.4158317,-10.08282275,1241.829495
12.9000,152.5525882,-10.00784407,1241.790433
12.9050,152.6851492,-9.940769536,1241.75179
12.9100,152.813081,-9.880725897,1241.713841
12.9150,152.9342495,-9.827004893,1241.676977
12.9200,153.0482661,-9.779362281,1241.641397
12.9250,153.1523671,-9.736977563,1241.607713
12.9300,153.2435988,-9.700500382,1241.576259
12.9350,153.3205627,-9.668000476,1241.547501
12.9400,153.3816874,-9.640020869,1241.521688
12.9450,153.4253719,-9.616770873,1241.499035
12.9500,153.4506999,-9.59677209,1241.479956
12.9550,153.4575896,-9.580060333,1241.464446
12.9600,153.4465043,-9.566759857,1241.45251
12.9650,153.4158653,-9.557359381,1241.444354
12.9700,153.365173,-9.55204507,1241.440057
12.9750,153.2933338,-9.55155331,1241.439701
12.9800,153.1989929,-9.554113808,1241.443834
12.9850,153.0824481,-9.562234431,1241.451894
12.9900,152.9434978,-9.57590121,1241.464073
12.9950,152.7836905,-9.594324939,1241.480218
13.0000,152.6036875,-9.617107376,1241.50022
13.0050,152.4043258,-9.644672344,1241.52404
13.0100,152.1865402,-9.676236164,1241.551659
13.0150,151.9515802,-9.71163791,1241.582886
13.0200,151.6986816,-9.751644634,1241.61777
13.0250,151.4302,-9.795614667,1241.656085
13.0300,151.1467246,-9.84521061,1241.697569
13.0350,150.8491862,-9.900399821,1241.742031
13.0400,150.5388636,-9.961620223,1241.789216
13.0450,150.2170557,-10.03066926,1241.83876
13.0500,149.8851662,-10.10712712,1241.890555
13.0550,149.5450184,-10.19149695,1241.944214
13.0600,149.1965865,-10.28299291,1241.999912
13.0650,148.8403864,-10.38288244,1242.057461
13.0700,148.4787237,-10.49057754,1242.116471
13.0750,148.1147493,-10.6068643,1242.176378
13.0800,147.7519232,-10.73133826,1242.236712
13.0850,147.3935736,-10.86457121,1242.296871
13.0900,147.0429852,-11.00524219,1242.356432
13.0950,146.7018848,-11.1538114,1242.415091
13.1000,146.3725804,-11.3101423,1242.47255
13.1050,146.0567926,-11.47444788,1242.528355
13.1100,145.7547866,-11.64710354,1242.58239
13.1150,145.4664115,-11.82814916,1242.634537
13.1200,145.193801,-12.01858018,1242.684186
13.1250,144.9372091,-12.21919572,1242.731137
13.1300,144.6965659,-12.4289398,1242.77539
13.1350,144.4716612,-12.64822678,1242.816833
13.1400,144.2616716,-12.87688525,1242.855604
13.1450,144.0671449,-13.11246989,1242.8918
13.1500,143.8867229,-13.3556425,1242.925416
13.1550,143.719808,-13.60442614,1242.956692
13.1600,143.5643135,-13.8572701,1242.986114
13.1650,143.41807,-14.11297467,1243.014115
13.1700,143.2785001,-14.36939114,1243.041337
13.1750,143.1420985,-14.62527133,1243.068504
13.1800,143.0081138,-14.87949065,1243.095825
13.1850,142.8737971,-15.13083466,1243.123792
13.1900,142.7365145,-15.37707131,1243.15321
13.1950,142.5938737,-15.61709952,1243.184614
13.2000,142.4448111,-15.85000352,1243.218385
13.2050,142.2862065,-16.07582053,1243.255142
13.2100,142.1183838,-16.29357841,1243.295009
13.2150,141.9401814,-16.503342,1243.338265
13.2200,141.7508041,-16.70625375,1243.385021
13.2250,141.5514074,-16.90237832,1243.435158
13.2300,141.3416905,-17.0923341,1243.488809
13.2350,141.1233562,-17.27822694,1243.545533
13.2400,140.8974387,-17.46010886,1243.605242
13.2450,140.6639469,-17.63895688,1243.668052
13.2500,140.4248973,-17.81535266,1243.733588
13.2550,140.1805042,-17.99095764,1243.801798
13.2600,139.9321605,-18.16569231,1243.872466
13.2650,139.6823424,-18.3403312,1243.945243
13.2700,139.4328703,-18.51506992,1244.019769
13.2750,139.1847971,-18.69043943,1244.095979
13.2800,138.940451,-18.8680864,1244.173182
13.2850,138.7007013,-19.04719082,1244.2515
13.2900,138.466515,-19.22656462,1244.330795
13.2950,138.2380015,-19.40604848,1244.411141
13.3000,138.0155625,-19.58651897,1244.492356
13.3050,137.7992284,-19.7677303,1244.574414
13.3100,137.5891694,-19.94955699,1244.65727
13.3150,137.3848544,-20.13234052,1244.740932
13.3200,137.1872168,-20.31667836,1244.825197
13.3250,136.9948617,-20.5031806,1244.910217
13.3300,136.8073983,-20.69118558,1244.996165
13.3350,136.6249782,-20.88151034,1245.082889
13.3400,136.4471504,-21.07490409,1245.170467
13.3450,136.2746187,-21.27037673,1245.25884
13.3500,136.1089681,-21.47038065,1245.347447
13.3550,135.9505518,-21.67383798,1245.436353
13.3600,135.8031134,-21.88302763,1245.524606
13.3650,135.6687014,-22.09903607,1245.611704
13.3700,135.548177,-22.32271122,1245.697542
13.3750,135.4430432,-22.55417671,1245.781867
13.3800,135.3545545,-22.79424392,1245.864439
13.3850,135.2847742,-23.04224761,1245.945071
13.3900,135.2352568,-23.29982754,1246.023434
13.3950,135.2076079,-23.56611857,1246.099284
13.4000,135.2055774,-23.84300852,1246.171614
13.4050,135.2315251,-24.12984793,1246.240149
13.4100,135.2875458,-24.4271581,1246.304452
13.4150,135.375402,-24.73415057,1246.364337
13.4200,135.49497,-25.05133327,1246.419866
13.4250,135.6480557,-25.3776118,1246.470846
13.4300,135.8341258,-25.71263891,1246.517623
13.4350,136.0550906,-26.05671005,1246.559769
13.4400,136.3107017,-26.40897483,1246.597517
13.4450,136.6021761,-26.77023033,1246.630653
13.4500,136.9283183,-27.13985712,1246.659584
13.4550,137.290637,-27.51792679,1246.684169
13.4600,137.6900201,-27.90406327,1246.704249
13.4650,138.1261372,-28.29828732,1246.720053
13.4700,138.6015116,-28.70103217,1246.731251
13.4750,139.1171745,-29.11138145,1246.737807
13.4800,139.6733628,-29.52974242,1246.739794
13.4850,140.2700774,-29.95391727,1246.737762
13.4900,140.9085289,-30.3849201,1246.731515
13.4950,141.5905006,-30.82128406,1246.721198
13.5000,142.3161421,-31.26196762,1246.707105
13.5050,143.087555,-31.70398035,1246.689405
13.5100,143.9030017,-32.14694188,1246.66876
13.5150,144.7639238,-32.58844797,1246.645284
13.5200,145.6696938,-33.02707281,1246.619462
13.5250,146.617171,-33.46129106,1246.592013
13.5300,147.6044819,-33.88876922,1246.563657
13.5350,148.6262361,-34.30825442,1246.535331
13.5400,149.6777776,-34.71774152,1246.508022
13.5450,150.7549784,-35.11642204,1246.482335
13.5500,151.8512154,-35.5033121,1246.45938
13.5550,152.9604671,-35.87756821,1246.439968
13.5600,154.0746315,-36.23912185,1246.425151
13.5650,155.1861175,-36.58742378,1246.415722
13.5700,156.2875971,-36.92237911,1246.412543
13.5750,157.3711293,-37.24397057,1246.416206
13.5800,158.4295146,-37.550324,1246.427478
13.5850,159.4556582,-37.84136968,1246.446846
13.5900,160.4440129,-38.11774502,1246.474531
13.5950,161.3905249,-38.37954297,1246.510466
13.6000,162.2919982,-38.62681431,1246.554525
13.6050,163.143138,-38.85869036,1246.607
13.6100,163.9418919,-39.07514182,1246.667643
13.6150,164.6853106,-39.27621581,1246.736409
13.6200,165.3721627,-39.46063395,1246.813144
13.6250,166.0022442,-39.6286402,1246.89746
13.6300,166.5766795,-39.77920259,1246.989052
13.6350,167.097296,-39.91071594,1247.087561
13.6400,167.5661634,-40.02146656,1247.192591
13.6450,167.9863332,-40.11160839,1247.303551
13.6500,168.3613655,-40.17876034,1247.420061
13.6550,168.6948806,-40.22301893,1247.541593
13.6600,168.9895548,-40.24366879,1247.667763
13.6650,169.2491997,-40.2387095,1247.798179
13.6700,169.4784763,-40.20747256,1247.932196
13.6750,169.6796269,-40.15073121,1248.069453
13.6800,169.8550362,-40.06921279,1248.209563
13.6850,170.0060539,-39.96398736,1248.352211
13.6900,170.1352826,-39.83437082,1248.497246
13.6950,170.2456628,-39.68282578,1248.644238
13.7000,170.3388591,-39.50829499,1248.793172
13.7050,170.4161675,-39.31215816,1248.943912
13.7100,170.480522,-39.09392898,1249.096257
13.7150,170.5346874,-38.85569826,1249.249874
13.7200,170.5821263,-38.59738709,1249.404592
13.7250,170.6250192,-38.3209524,1249.560113
13.7300,170.6653231,-38.02840004,1249.716148
13.7350,170.70535,-37.72011242,1249.872548
13.7400,170.7468051,-37.39801402,1250.029044
13.7450,170.7909603,-37.06345042,1250.185492
13.7500,170.8392896,-36.7186206,1250.341632
13.7550,170.8912017,-36.36434164,1250.497526
13.7600,170.9471607,-36.00323608,1250.653019
