type,name,time_units,begin_time,frequency,count,units
signal_3d,"Noraxon MyoMotion-Trajectories-Ulnar styloid process RT","s",0.0000,200,5172,"mm"

time,x,y,z
0.0000,138.1964677,34.79281282,990.628506
0.0050,138.098364,34.7940524,990.63847
0.0100,138.0002622,34.79522751,990.6484482
0.0150,137.9021622,34.79633815,990.6584407
0.0200,137.7952107,34.797805,990.6697356
0.0250,137.6797767,34.79961385,990.6823687
0.0300,137.5563164,34.80170935,990.6963628
0.0350,137.4253528,34.8039878,990.7117258
0.0400,137.2874556,34.80630027,990.7284506
0.0450,137.1432241,34.80846524,990.7465159
0.0500,136.9932769,34.81028371,990.7658873
0.0550,136.8382518,34.81155509,990.7865167
0.0600,136.6788094,34.81209128,990.8083414
0.0650,136.5156343,34.81172595,990.8312832
0.0700,136.3494312,34.81031752,990.8552486
0.0750,136.1809226,34.80774743,990.8801283
0.0800,136.0108512,34.80392266,990.9057977
0.0850,135.8399863,34.7987895,990.9321188
0.0900,135.6691317,34.79235222,990.9589416
0.0950,135.4991268,34.78468551,990.9861084
0.1000,135.3308302,34.77593451,991.0134584
0.1050,135.1650972,34.7663005,991.0408312
0.1100,135.0027626,34.7560162,991.0680687
0.1150,134.8446315,34.74531906,991.0950148
0.1200,134.6914725,34.73442864,991.1215146
0.1250,134.5440155,34.72353115,991.1474132
0.1300,134.4029501,34.7127706,991.1725558
0.1350,134.2689211,34.70224147,991.196789
0.1400,134.1425144,34.69198208,991.2199614
0.1450,134.0242377,34.68197312,991.2419272
0.1500,133.9144949,34.672143,991.2625507
0.1550,133.6759416,34.65184942,991.302359
0.1600,133.447072,34.63090231,991.3406568
0.1650,133.2287452,34.61086751,991.377488
0.1700,133.0200668,34.59047501,991.4126994
0.1750,132.8212606,34.56986309,991.4461712
0.1800,132.6314339,34.54950644,991.4782393
0.1850,132.4518176,34.52934898,991.5085339
0.1900,132.2821111,34.50775602,991.5369366
0.1950,132.1211368,34.48606834,991.5637189
0.2000,131.9687966,34.46382996,991.5889199
0.2050,131.8246768,34.4416122,991.6126483
0.2100,131.6886105,34.41888196,991.6347588
0.2150,131.5609257,34.39597335,991.6552665
0.2200,131.4407645,34.37441073,991.6745185
0.2250,131.3266241,34.35320248,991.6924794
0.2300,131.2190894,34.33181928,991.7090854
0.2350,131.1175098,34.3105036,991.7245792
0.2400,131.020051,34.28996406,991.7390733
0.2450,130.9296704,34.27027798,991.7522593
0.2500,130.8440918,34.25237135,991.764671
0.2550,130.7631145,34.23635411,991.7762593
0.2600,130.687313,34.22326136,991.7871122
0.2650,130.6146756,34.21235074,991.7975888
0.2700,130.5454599,34.20400581,991.8076701
0.2750,130.4787113,34.19783226,991.8175105
0.2800,130.4125574,34.19359078,991.827282
0.2850,130.3477145,34.19176472,991.8371375
0.2900,130.2841672,34.19207356,991.8471208
0.2950,130.2218766,34.19443697,991.8571202
0.3000,130.1607966,34.19909915,991.8671554
0.3050,130.1008461,34.20413451,991.8770009
0.3100,130.0411678,34.21076075,991.887092
0.3150,129.9823817,34.21832319,991.8971906
0.3200,129.925611,34.22769137,991.9071763
0.3250,129.8696194,34.23835012,991.9172359
0.3300,129.8157456,34.25080695,991.9272387
0.3350,129.7638696,34.26489603,991.9373702
0.3400,129.7143465,34.28077349,991.9474371
0.3450,129.666302,34.29745444,991.9575778
0.3500,129.6201932,34.31600503,991.9677243
0.3550,129.5773046,34.33446435,991.9774516
0.3600,129.5352076,34.35347016,991.9873112
0.3650,129.4963136,34.37310679,991.9969591
0.3700,129.4589068,34.39301882,992.0066086
0.3750,129.4233109,34.41358562,992.016092
0.3800,129.3897659,34.43401421,992.0252688
0.3850,129.3573447,34.45329094,992.0341711
0.3900,129.3267772,34.47240041,992.0428831
0.3950,129.297047,34.49172345,992.0514571
0.4000,129.2684205,34.51201813,992.0600638
0.4050,129.240305,34.53133539,992.0684321
0.4100,129.2126782,34.55024251,992.0766054
0.4150,129.1857559,34.56905871,992.0846416
0.4200,129.1592574,34.58653357,992.0924002
0.4250,129.1318873,34.60406755,992.1002059
0.4300,129.1039948,34.62056332,992.1079862
0.4350,129.0760894,34.63546154,992.1153469
0.4400,129.0474999,34.65012791,992.1228874
0.4450,129.018992,34.66337579,992.1301204
0.4500,128.990997,34.67661819,992.137264
0.4550,128.9632999,34.68898915,992.1442464
0.4600,128.9364724,34.70140296,992.1509651
0.4650,128.9103666,34.71321281,992.1574837
0.4700,128.8860873,34.72532489,992.1636632
0.4750,128.8630981,34.73717055,992.1697081
0.4800,128.8409992,34.74878472,992.1755196
0.4850,128.8207388,34.7600249,992.180987
0.4900,128.8002537,34.77123826,992.1864349
0.4950,128.780628,34.78208018,992.191697
0.5000,128.7623001,34.79199643,992.1966154
0.5050,128.7440663,34.80261598,992.2016506
0.5100,128.7266282,34.81365487,992.2065589
0.5150,128.7093093,34.82472636,992.2114543
0.5200,128.6923721,34.83514787,992.2161724
0.5250,128.6774372,34.84645604,992.2207404
0.5300,128.6636126,34.85837683,992.2251351
0.5350,128.6493184,34.87061826,992.2295647
0.5400,128.6364941,34.88316153,992.2337454
0.5450,128.6234465,34.89593439,992.2379797
0.5500,128.6114062,34.90850659,992.2419269
0.5550,128.5994862,34.92134727,992.2457784
0.5600,128.5873115,34.93359496,992.2495259
0.5650,128.5765274,34.94699014,992.2530092
0.5700,128.5662677,34.95867709,992.2561344
0.5750,128.5564615,34.97021916,992.2591204
0.5800,128.549018,34.98101164,992.2615432
0.5850,128.5445423,34.9913533,992.2632723
0.5900,128.5424209,35.00188231,992.2644949
0.5950,128.5426965,35.01060069,992.2649862
0.6000,128.545985,35.01890105,992.2648059
0.6050,128.5524543,35.02651005,992.2639975
0.6100,128.5624013,35.03273636,992.2622719
0.6150,128.5755372,35.03894055,992.2598965
0.6200,128.5920096,35.04297515,992.2564416
0.6250,128.6130928,35.04645897,992.2521531
0.6300,128.6366533,35.04769098,992.2470532
0.6350,128.6630508,35.04699512,992.2410744
0.6400,128.6927853,35.04473719,992.2342627
0.6450,128.7252834,35.04115958,992.2267673
0.6500,128.760706,35.03575262,992.2184461
0.6550,128.7986348,35.02968332,992.2096267
0.6600,128.8392903,35.02225885,992.2001149
0.6650,128.881247,35.01328686,992.1901993
0.6700,128.9254,35.00214354,992.1795603
0.6750,128.9718463,34.98961086,992.1683383
0.6800,129.0212861,34.97455053,992.156277
0.6850,129.0721991,34.95694574,992.1435667
0.6900,129.1260402,34.93755423,992.1300784
0.6950,129.1808605,34.91543916,992.1161101
0.7000,129.238284,34.89046878,992.1012292
0.7050,129.2981722,34.86340555,992.0855871
0.7100,129.3604761,34.83323684,992.0691399
0.7150,129.4250058,34.80008195,992.0518156
0.7200,129.4905246,34.76478817,992.0340114
0.7250,129.5589956,34.72559483,992.0151803
0.7300,129.6294349,34.68361874,991.9954883
0.7350,129.7021587,34.63932828,991.9750821
0.7400,129.7766215,34.59150588,991.9537479
0.7450,129.8535796,34.54147478,991.9316776
0.7500,129.9322419,34.48841567,991.9087155
0.7550,130.0123304,34.4325667,991.884975
0.7600,130.0930507,34.3739016,991.8605998
0.7650,130.1749352,34.31317367,991.8356772
0.7700,130.2563256,34.2480976,991.8101441
0.7750,130.3386023,34.18104946,991.7840168
0.7800,130.4220235,34.11214027,991.7573569
0.7850,130.5048767,34.0398057,991.7302125
0.7900,130.5882201,33.96591283,991.7027253
0.7950,130.6728646,33.89021126,991.6746498
0.8000,130.7572114,33.81311964,991.6462675
0.8050,130.8422976,33.73366169,991.617235
0.8100,130.9266614,33.652194,991.5878841
0.8150,131.0115148,33.56944535,991.558203
0.8200,131.0957919,33.48567619,991.5284086
0.8250,131.1786516,33.40111261,991.498592
0.8300,131.2599892,33.31579904,991.4688491
0.8350,131.3413786,33.22984726,991.4389179
0.8400,131.4217002,33.14243233,991.4089831
0.8450,131.5016531,33.05494597,991.3789596
0.8500,131.5805904,32.96742032,991.3488501
0.8550,131.6580831,32.87963297,991.318958
0.8600,131.7348107,32.79201667,991.2890032
0.8650,131.8095558,32.70288995,991.259198
0.8700,131.8830541,32.61516051,991.22964
0.8750,131.9541204,32.52689353,991.2002759
0.8800,132.0236327,32.43927815,991.1713014
0.8850,132.0897175,32.35308242,991.1431745
0.8900,132.1520891,32.26685639,991.1156415
0.8950,132.2102112,32.18264105,991.0891506
0.9000,132.264443,32.09875872,991.0635394
0.9050,132.3151011,32.01651019,991.0387923
0.9100,132.3600248,31.93675044,991.015462
0.9150,132.3990693,31.85831777,990.9935241
0.9200,132.4328387,31.78260087,990.9732167
0.9250,132.4600885,31.7090302,990.9546111
0.9300,132.4818528,31.63806761,990.9377061
0.9350,132.4981894,31.57088731,990.9226168
0.9400,132.507339,31.50675374,990.9096681
0.9450,132.5113334,31.44547198,990.898291
0.9500,132.5086615,31.3871615,990.8889872
0.9550,132.4999325,31.33210386,990.8816249
0.9600,132.4854347,31.27939413,990.8759305
0.9650,132.4655477,31.22935565,990.8718318
0.9700,132.4415358,31.18416807,990.8695276
0.9750,132.4121203,31.1398334,990.8685835
0.9800,132.3778959,31.09816299,990.8691092
0.9850,132.3397009,31.05876015,990.8709252
0.9900,132.2969166,31.02129142,990.8739942
0.9950,132.2503719,30.98586138,990.8781708
1.0000,132.1994516,30.95183319,990.8834976
1.0050,132.1441263,30.91952968,990.8900197
1.0100,132.0841565,30.88973697,990.8978668
1.0150,132.0196738,30.86225203,990.9071522
1.0200,131.9498307,30.83768877,990.9180598
1.0250,131.872908,30.81574904,990.9308481
1.0300,131.7898596,30.79680517,990.9455518
1.0350,131.6994191,30.78095807,990.9624453
1.0400,131.6018673,30.76857512,990.9814649
1.0450,131.4960631,30.75877754,991.0026396
1.0500,131.3826496,30.75203692,991.0259784
1.0550,131.2608625,30.74783285,991.051485
1.0600,131.13105,30.74698913,991.0792893
1.0650,130.9941229,30.74841439,991.1090057
1.0700,130.8504659,30.75405661,991.140945
1.0750,130.6993254,30.76191008,991.1750212
1.0800,130.539796,30.77357227,991.2115778
1.0850,130.3725899,30.78890773,991.2505551
1.0900,130.1972806,30.80789773,991.2920851
1.0950,130.0130164,30.82999154,991.3363135
1.1000,129.8203142,30.85528461,991.3832805
1.1050,129.6182678,30.883025,991.4331468
1.1100,129.4069703,30.9135619,991.4859797
1.1150,129.1858192,30.94667129,991.5419055
1.1200,128.9558568,30.98281683,991.6008456
1.1250,128.7169114,31.02042066,991.6626021
1.1300,128.4694355,31.05941847,991.7273617
1.1350,128.2134326,31.09910491,991.7950358
1.1400,127.9484093,31.14090471,991.8660206
1.1450,127.6735116,31.18337738,991.9403467
1.1500,127.3895302,31.22761534,992.0184222
1.1550,127.0967973,31.27278837,992.0999077
1.1600,126.7943365,31.31969099,992.1852312
1.1650,126.4825756,31.36804347,992.2741277
1.1700,126.1619955,31.41823051,992.3667167
1.1750,125.8342393,31.47040399,992.462799
1.1800,125.4978815,31.52495892,992.5624461
1.1850,125.1550948,31.58116178,992.6650839
1.1900,124.8065765,31.63944489,992.7706721
1.1950,124.4527815,31.70066479,992.8791439
1.2000,124.0936587,31.7657965,992.9904131
1.2050,123.7288538,31.83424989,993.1045403
1.2100,123.3609195,31.90597857,993.2208335
1.2150,122.9904589,31.98269534,993.3393627
1.2200,122.6157852,32.06333598,993.4601476
1.2250,122.2379967,32.14944819,993.5831634
1.2300,121.8562766,32.2419203,993.7086159
1.2350,121.4708331,32.34044484,993.8365009
1.2400,121.0820435,32.44474696,993.9666087
1.2450,120.6886898,32.55516695,994.0994241
1.2500,120.2912371,32.67122278,994.234839
1.2550,119.8902437,32.79419014,994.3729517
1.2600,119.4852568,32.92341177,994.513975
1.2650,119.0774518,33.05877232,994.6576704
1.2700,118.664441,33.19871268,994.8045107
1.2750,118.2476214,33.34460062,994.9546346
1.2800,117.8258684,33.495981,995.108293
1.2850,117.3988432,33.65217517,995.2655749
1.2900,116.9671932,33.8126489,995.4265865
1.2950,116.5312546,33.97821351,995.5914881
1.3000,116.0906092,34.14762093,995.7603147
1.3050,115.6459863,34.32069385,995.9332482
1.3100,115.1960272,34.49658378,996.1104992
1.3150,114.7415177,34.67696718,996.292234
1.3200,114.2824793,34.85938012,996.4783252
1.3250,113.8187883,35.04511083,996.6692642
1.3300,113.350464,35.23475964,996.8652978
1.3350,112.8772194,35.42717053,997.0665171
1.3400,112.3992435,35.6229037,997.2732358
1.3450,111.9151628,35.82270685,997.486131
1.3500,111.4244076,36.02672844,997.7056253
1.3550,110.9277842,36.23481601,997.9319579
1.3600,110.4239123,36.44745831,998.165825
1.3650,109.9110868,36.66632853,998.4080874
1.3700,109.3901948,36.88956607,998.6584979
1.3750,108.8597122,37.1187999,998.9180743
1.3800,108.3200629,37.35243358,999.1867904
1.3850,107.7709691,37.59135398,999.4651168
1.3900,107.2123758,37.83489121,999.7533221
1.3950,106.6445052,38.08355313,1000.051695
1.4000,106.0665842,38.33661889,1000.360483
1.4050,105.4782321,38.59564833,1000.680312
1.4100,104.8800158,38.85999302,1001.011343
1.4150,104.2715528,39.12979186,1001.354104
1.4200,103.6512153,39.40404195,1001.708824
1.4250,103.0184896,39.68409015,1002.076459
1.4300,102.3731296,39.9706466,1002.457007
1.4350,101.7143321,40.26550745,1002.85131
1.4400,101.0407871,40.56842108,1003.259719
1.4450,100.3529179,40.87928904,1003.682398
1.4500,99.65057535,41.19896175,1004.119595
1.4550,98.93325531,41.52871314,1004.571923
1.4600,98.19998032,41.86718843,1005.039515
1.4650,97.45154911,42.21586054,1005.522744
1.4700,96.68556891,42.57398737,1006.022073
1.4750,95.90291182,42.94234775,1006.537222
1.4800,95.10356891,43.32172581,1007.068824
1.4850,94.28612082,43.71173134,1007.617164
1.4900,93.44988669,44.11254028,1008.182347
1.4950,92.59537095,44.52406101,1008.764412
1.5000,91.72163116,44.94595133,1009.363995
1.5050,90.82940181,45.37976227,1009.980786
1.5100,89.91773087,45.82538078,1010.615654
1.5150,88.9860887,46.28252266,1011.268412
1.5200,88.03451878,46.75285343,1011.939675
1.5250,87.06300409,47.23424098,1012.629261
1.5300,86.0715654,47.72728576,1013.337152
1.5350,85.05957504,48.23269483,1014.063807
1.5400,84.02751574,48.74916624,1014.809352
1.5450,82.97605425,49.27790297,1015.573576
1.5500,81.90518168,49.81960331,1016.356713
1.5550,80.81484378,50.37161187,1017.158394
1.5600,79.70479714,50.93458055,1017.97896
1.5650,78.57541376,51.50865542,1018.818686
1.5700,77.42623867,52.09374917,1019.677268
1.5750,76.25894536,52.68951738,1020.554932
1.5800,75.07409639,53.29531183,1021.451484
1.5850,73.87386147,53.91117892,1022.366858
1.5900,72.65772685,54.53700246,1023.300973
1.5950,71.42632433,55.17085358,1024.253672
1.6000,70.18063642,55.81392615,1025.225012
1.6050,68.92038845,56.46691888,1026.215123
1.6100,67.64814081,57.12929879,1027.223557
1.6150,66.36396829,57.79867744,1028.250272
1.6200,65.07038233,58.47602595,1029.29467
1.6250,63.76879338,59.16167382,1030.356645
1.6300,62.45916971,59.85325016,1031.435831
1.6350,61.14342633,60.55108605,1032.531882
1.6400,59.82267852,61.25568437,1033.644608
1.6450,58.49875176,61.96504407,1034.77331
1.6500,57.17177619,62.67910827,1035.91878
1.6550,55.84183606,63.3983179,1037.080518
1.6600,54.51029016,64.12069926,1038.257759
1.6650,53.17951292,64.84678553,1039.450371
1.6700,51.84832625,65.57610104,1040.658742
1.6750,50.5184884,66.30861701,1041.881947
1.6800,49.19086328,67.043949,1043.119785
1.6850,47.86586802,67.78200164,1044.372096
1.6900,46.54546555,68.52270632,1045.63817
1.6950,45.22890338,69.26668092,1046.918351
1.7000,43.91800083,70.0134614,1048.212214
1.7050,42.61396287,70.76221233,1049.518714
1.7100,41.31708395,71.51344402,1050.837771
1.7150,40.02781417,72.26683434,1052.168921
1.7200,38.74722229,73.02234662,1053.511855
1.7250,37.47618482,73.77998831,1054.865783
1.7300,36.21419203,74.53872422,1056.230991
1.7350,34.96167418,75.29692212,1057.606823
1.7400,33.72058162,76.0544856,1058.992636
1.7450,32.48934628,76.81146857,1060.389032
1.7500,31.26822697,77.5651506,1061.795252
1.7550,30.0573372,78.31514507,1063.210814
1.7600,28.85747583,79.0618069,1064.635912
1.7650,27.66725515,79.80285653,1066.070289
1.7700,26.48705912,80.53897718,1067.514031
1.7750,25.31694447,81.26924748,1068.967341
1.7800,24.15585458,81.99124373,1070.429444
1.7850,23.00456007,82.70449526,1071.900466
1.7900,21.86246147,83.40950465,1073.381059
1.7950,20.72911459,84.10533109,1074.870792
1.8000,19.60495047,84.79179332,1076.369522
1.8050,18.48954307,85.46853076,1077.878083
1.8100,17.38352543,86.13497764,1079.395726
1.8150,16.28557511,86.79021621,1080.923042
1.8200,15.19554237,87.43500546,1082.45946
1.8250,14.11304037,88.06981708,1084.005715
1.8300,13.03733324,88.69242282,1085.561397
1.8350,11.96911884,89.30330817,1087.126526
1.8400,10.90834398,89.90388895,1088.700468
1.8450,9.854766024,90.4936387,1090.283752
1.8500,8.808559727,91.07179856,1091.875824
1.8550,7.768489732,91.63921997,1093.477928
1.8600,6.736190702,92.19659187,1095.089601
1.8650,5.710179962,92.74376436,1096.711042
1.8700,4.692260543,93.28132544,1098.342023
1.8750,3.681069124,93.80895224,1099.981794
1.8800,2.676737812,94.32685915,1101.630922
1.8850,1.678913435,94.83467977,1103.288619
1.8900,0.6879993524,95.3316345,1104.955557
1.8950,-0.2952800181,95.81848715,1106.63157
1.9000,-1.271113673,96.29456039,1108.316322
1.9050,-2.239403777,96.75978924,1110.009504
1.9100,-3.199895314,97.21454872,1111.711511
1.9150,-4.152925836,97.65918439,1113.421831
1.9200,-5.097597015,98.09419764,1115.141005
1.9250,-6.035452203,98.51807101,1116.869008
1.9300,-6.96540227,98.93310948,1118.605848
1.9350,-7.886919136,99.33846376,1120.350919
1.9400,-8.801203591,99.73354204,1122.104802
1.9450,-9.70822065,100.1200263,1123.86758
1.9500,-10.60741565,100.4973249,1125.638135
1.9550,-11.49895108,100.8658993,1127.416725
1.9600,-12.382513,101.2268985,1129.203372
1.9650,-13.26115869,101.57856,1130.997876
1.9700,-14.13226482,101.9237082,1132.800698
1.9750,-14.99586427,102.2589432,1134.610933
1.9800,-15.85214648,102.5858639,1136.428584
1.9850,-16.70081196,102.9046786,1138.253783
1.9900,-17.54278815,103.2149227,1140.086178
1.9950,-18.37800298,103.5161765,1141.925019
2.0000,-19.20640272,103.8089649,1143.770362
2.0050,-20.02872008,104.0923398,1145.62266
2.0100,-20.84557669,104.3669147,1147.481796
2.0150,-21.6564121,104.6321221,1149.347349
2.0200,-22.46130903,104.8893557,1151.219038
2.0250,-23.26046346,105.1375063,1153.096653
2.0300,-24.05305917,105.3772812,1154.980853
2.0350,-24.83940131,105.6091465,1156.871387
2.0400,-25.61998112,105.8335298,1158.768344
2.0450,-26.39426906,106.0500254,1160.671489
2.0500,-27.1612757,106.2596917,1162.57991
2.0550,-27.92096295,106.4620467,1164.494346
2.0600,-28.6734923,106.6567226,1166.414621
2.0650,-29.41894698,106.844751,1168.340954
2.0700,-30.15572395,107.0256577,1170.271979
2.0750,-30.88507498,107.1998043,1172.208576
2.0800,-31.606334,107.3675406,1174.150699
2.0850,-32.31916317,107.5290409,1176.097823
2.0900,-33.02321038,107.6837119,1178.04916
2.0950,-33.71831362,107.8310306,1180.00514
2.1000,-34.40661809,107.9716515,1181.965177
2.1050,-35.08780143,108.1047401,1183.928812
2.1100,-35.76256213,108.2308699,1185.896036
2.1150,-36.42945995,108.349568,1187.865282
2.1200,-37.08812857,108.4606714,1189.836548
2.1250,-37.73843764,108.563294,1191.808807
2.1300,-38.3814507,108.6597833,1193.782619
2.1350,-39.01675033,108.7486186,1195.757016
2.1400,-39.64498853,108.8310415,1197.732477
2.1450,-40.26659329,108.9047445,1199.708167
2.1500,-40.88244549,108.9711624,1201.684532
2.1550,-41.49141302,109.0305939,1203.659894
2.1600,-42.09477106,109.0826895,1205.633966
2.1650,-42.69239189,109.127259,1207.606119
2.1700,-43.28454012,109.1628632,1209.57609
2.1750,-43.87229341,109.1907054,1211.544398
2.1800,-44.45444091,109.2103887,1213.510016
2.1850,-45.03072233,109.2226327,1215.473577
2.1900,-45.60223088,109.2276656,1217.433852
2.1950,-46.16925189,109.2246118,1219.391017
2.2000,-46.73114623,109.2132759,1221.345037
2.2050,-47.28760152,109.1928364,1223.295633
2.2100,-47.83836534,109.1639587,1225.241857
2.2150,-48.38236238,109.1264592,1227.183712
2.2200,-48.92041101,109.0814569,1229.121251
2.2250,-49.45175068,109.0291461,1231.054052
2.2300,-49.97702994,108.9684935,1232.981601
2.2350,-50.49675327,108.9010928,1234.904903
2.2400,-51.01053643,108.8257311,1236.82339
2.2450,-51.51890456,108.7423922,1238.736307
2.2500,-52.02142832,108.6516127,1240.643717
2.2550,-52.51700875,108.5515487,1242.545718
2.2600,-53.00556736,108.4438768,1244.441139
2.2650,-53.48554156,108.3277272,1246.33015
2.2700,-53.9586919,108.2036606,1248.212846
2.2750,-54.4258534,108.0715506,1250.089553
2.2800,-54.88636409,107.9310513,1251.96039
2.2850,-55.34148876,107.7819841,1253.825429
2.2900,-55.7906005,107.6247769,1255.684809
2.2950,-56.23345392,107.4582172,1257.538526
2.3000,-56.67064448,107.2839818,1259.38614
2.3050,-57.10157838,107.1021029,1261.228004
2.3100,-57.52503519,106.913463,1263.06355
2.3150,-57.94229113,106.7177742,1264.892871
2.3200,-58.35123565,106.514772,1266.716268
2.3250,-58.75226058,106.3045255,1268.534736
2.3300,-59.14632288,106.0862697,1270.346482
2.3350,-59.53252755,105.8612881,1272.152172
2.3400,-59.91012879,105.6293233,1273.951686
2.3450,-60.27848974,105.3903936,1275.744847
2.3500,-60.63886079,105.1446236,1277.532727
2.3550,-60.99122683,104.8930784,1279.314789
2.3600,-61.33566573,104.6353891,1281.091567
2.3650,-61.66982261,104.3737125,1282.862638
2.3700,-61.99582816,104.1072132,1284.627944
2.3750,-62.31262597,103.836874,1286.386898
2.3800,-62.6205415,103.5624051,1288.139907
2.3850,-62.91983828,103.2854972,1289.886973
2.3900,-63.21013787,103.0054756,1291.628298
2.3950,-63.49104504,102.7245657,1293.363319
2.4000,-63.76331161,102.4417395,1295.092281
2.4050,-64.02643597,102.1583662,1296.813924
2.4100,-64.28133623,101.8744424,1298.528837
2.4150,-64.5280615,101.5900633,1300.237746
2.4200,-64.76740245,101.3062705,1301.941204
2.4250,-65.00047846,101.0240264,1303.639453
2.4300,-65.22597696,100.7427756,1305.332133
2.4350,-65.4455651,100.4625237,1307.018688
2.4400,-65.65910917,100.1827539,1308.699573
2.4450,-65.86674668,99.9046456,1310.375099
2.4500,-66.06910866,99.62855009,1312.04488
2.4550,-66.26681136,99.35366155,1313.708849
2.4600,-66.45911029,99.07988518,1315.366576
2.4650,-66.64686272,98.80694266,1317.018636
2.4700,-66.8305336,98.53617713,1318.66505
2.4750,-67.00806652,98.26709953,1320.305936
2.4800,-67.18119601,98.00014181,1321.941577
2.4850,-67.35072589,97.73515979,1323.571486
2.4900,-67.51500621,97.47174276,1325.195405
2.4950,-67.67425664,97.21094543,1326.813694
2.5000,-67.82898268,96.95314764,1328.426025
2.5050,-67.9798697,96.69840197,1330.033231
2.5100,-68.12731668,96.44704994,1331.635071
2.5150,-68.27211934,96.1987206,1333.23273
2.5200,-68.41436236,95.95217635,1334.825244
2.5250,-68.55381113,95.70846819,1336.412552
2.5300,-68.69015472,95.46747825,1337.994688
2.5350,-68.82319731,95.22908014,1339.571488
2.5400,-68.95299054,94.99464655,1341.143147
2.5450,-69.07897544,94.76426226,1342.709986
2.5500,-69.20207066,94.53739882,1344.272796
2.5550,-69.32236148,94.3162289,1345.831185
2.5600,-69.44017781,94.09926971,1347.38546
2.5650,-69.55564906,93.88564223,1348.935735
2.5700,-69.66907273,93.67436834,1350.48111
2.5750,-69.77993598,93.46758428,1352.022522
2.5800,-69.88899201,93.26347887,1353.559674
2.5850,-69.99475153,93.06280777,1355.09258
2.5900,-70.09783519,92.86399607,1356.620965
2.5950,-70.19769236,92.66773971,1358.144842
2.6000,-70.29461412,92.47245141,1359.664422
2.6050,-70.38757875,92.27827364,1361.179051
2.6100,-70.47740703,92.08305639,1362.688918
2.6150,-70.56124205,91.88870232,1364.194112
2.6200,-70.64049225,91.6952177,1365.694175
2.6250,-70.71410031,91.50323152,1367.189768
2.6300,-70.78187217,91.31440292,1368.6802
2.6350,-70.84338884,91.12563829,1370.165127
2.6400,-70.89923163,90.9376344,1371.644016
2.6450,-70.94996994,90.75028857,1373.117217
2.6500,-70.99523638,90.5641012,1374.584095
2.6550,-71.03468832,90.37873013,1376.04489
2.6600,-71.06930309,90.19452551,1377.499227
2.6650,-71.1002857,90.01031926,1378.947586
2.6700,-71.12616077,89.82535546,1380.390596
2.6750,-71.14801804,89.64000495,1381.828537
2.6800,-71.16474213,89.4546694,1383.260438
2.6850,-71.17745372,89.26927984,1384.686796
2.6900,-71.18555605,89.08392415,1386.106559
2.6950,-71.19032756,88.89759546,1387.519843
2.7000,-71.19022848,88.71069469,1388.926238
2.7050,-71.18684886,88.52326313,1390.327024
2.7100,-71.17959566,88.33566765,1391.722069
2.7150,-71.16957372,88.14792195,1393.110888
2.7200,-71.1558359,87.95964075,1394.492965
2.7250,-71.1379781,87.77099636,1395.867647
2.7300,-71.11555165,87.58241946,1397.235072
2.7350,-71.08799438,87.39337213,1398.595428
2.7400,-71.05554822,87.20431322,1399.947902
2.7450,-71.01851692,87.0154122,1401.292919
2.7500,-70.97577088,86.82676204,1402.63009
2.7550,-70.92740852,86.63860754,1403.959224
2.7600,-70.87408978,86.4520391,1405.281344
2.7650,-70.81482252,86.26639024,1406.595804
2.7700,-70.74990362,86.08129081,1407.902298
2.7750,-70.68073069,85.89637192,1409.201357
2.7800,-70.60661395,85.71224444,1410.492432
2.7850,-70.52789092,85.52779471,1411.776257
2.7900,-70.44605875,85.34438616,1413.054354
2.7950,-70.3607828,85.16178358,1414.326094
2.8000,-70.27189601,84.97950134,1415.591983
2.8050,-70.17839093,84.7977497,1416.851639
2.8100,-70.08092379,84.61537512,1418.105489
2.8150,-69.97913877,84.43341667,1419.352613
2.8200,-69.87202865,84.25177532,1420.594406
2.8250,-69.76062773,84.07042179,1421.83054
2.8300,-69.64405748,83.88964478,1423.061403
2.8350,-69.52262323,83.70870745,1424.286664
2.8400,-69.39511987,83.52770304,1425.506057
2.8450,-69.26217289,83.34564895,1426.719849
2.8500,-69.12386823,83.16384184,1427.927344
2.8550,-68.98044309,82.98107632,1429.129456
2.8600,-68.83191958,82.79630126,1430.3262
2.8650,-68.67714945,82.61170845,1431.517521
2.8700,-68.51564278,82.42647422,1432.703228
2.8750,-68.34754476,82.24090342,1433.882639
2.8800,-68.17257619,82.05509787,1435.056498
2.8850,-67.9922793,81.86775093,1436.223324
2.8900,-67.80491174,81.67960999,1437.383955
2.8950,-67.61134756,81.49048661,1438.53802
2.9000,-67.41196893,81.29990479,1439.685484
2.9050,-67.20741776,81.10827459,1440.826648
2.9100,-66.99795837,80.9180373,1441.962
2.9150,-66.78526374,80.72700113,1443.091553
2.9200,-66.56965547,80.53351126,1444.215476
2.9250,-66.35122245,80.33836584,1445.33222
2.9300,-66.12947499,80.14049356,1446.442819
2.9350,-65.90638362,79.94284732,1447.54802
2.9400,-65.68118762,79.74421477,1448.647994
2.9450,-65.45346126,79.54547271,1449.741968
2.9500,-65.22266879,79.34661828,1450.829917
2.9550,-64.98997522,79.147918,1451.912628
2.9600,-64.75461601,78.95032258,1452.988505
2.9650,-64.51619619,78.75396803,1454.057971
2.9700,-64.27438769,78.56150924,1455.120273
2.9750,-64.02819504,78.37084225,1456.174282
2.9800,-63.77950382,78.18294439,1457.221126
2.9850,-63.52639302,77.99816764,1458.259774
2.9900,-63.27082675,77.81713777,1459.291705
2.9950,-63.01216676,77.63975901,1460.316626
3.0000,-62.74988115,77.46640699,1461.333915
3.0050,-62.48413032,77.29669413,1462.343613
3.0100,-62.21445552,77.12998092,1463.344775
3.0150,-61.94116165,76.96740605,1464.338206
3.0200,-61.66488518,76.80822944,1465.323801
3.0250,-61.38543788,76.6524272,1466.302181
3.0300,-61.10402117,76.49928561,1467.272396
3.0350,-60.8204654,76.35008843,1468.236082
3.0400,-60.53505772,76.20367631,1469.192644
3.0450,-60.2477105,76.06150314,1470.142251
3.0500,-59.95928129,75.92274591,1471.084457
3.0550,-59.67027156,75.78778266,1472.020244
3.0600,-59.38013344,75.65590257,1472.949236
3.0650,-59.08968676,75.52831557,1473.871808
3.0700,-58.79896978,75.40394578,1474.788045
3.0750,-58.50884999,75.28372108,1475.697904
3.0800,-58.2191791,75.16674767,1476.602001
3.0850,-57.92926659,75.05393529,1477.500015
3.0900,-57.63788282,74.94433288,1478.390747
3.0950,-57.34508145,74.83892622,1479.2748
3.1000,-57.05060297,74.73803451,1480.151986
3.1050,-56.75445441,74.64057107,1481.022354
3.1100,-56.45606582,74.54632413,1481.885865
3.1150,-56.15548002,74.45421416,1482.742346
3.1200,-55.85417873,74.36487627,1483.591997
3.1250,-55.55117708,74.27802798,1484.434534
3.1300,-55.24713383,74.19331441,1485.270304
3.1350,-54.94208527,74.10989709,1486.099852
3.1400,-54.63612251,74.02930472,1486.92292
3.1450,-54.32861233,73.95136275,1487.739849
3.1500,-54.01902781,73.8746896,1488.550529
3.1550,-53.70655596,73.80052499,1489.354682
3.1600,-53.39076781,73.72852702,1490.152416
3.1650,-53.07247893,73.65750771,1490.944371
3.1700,-52.75303195,73.58815892,1491.731343
3.1750,-52.43194797,73.51856891,1492.512625
3.1800,-52.10967688,73.44928189,1493.287993
3.1850,-51.7859385,73.38075744,1494.059504
3.1900,-51.46234916,73.31276909,1494.826906
3.1950,-51.1390596,73.24559767,1495.590964
3.2000,-50.81431449,73.17904736,1496.351508
3.2050,-50.4891354,73.11312326,1497.108588
3.2100,-50.16150502,73.04720918,1497.861963
3.2150,-49.83363328,72.98170994,1498.612657
3.2200,-49.50585317,72.91705125,1499.360465
3.2250,-49.17851777,72.85221143,1500.105988
3.2300,-48.8512411,72.78835999,1500.849072
3.2350,-48.52323891,72.72409957,1501.589041
3.2400,-48.19507522,72.66025328,1502.32636
3.2450,-47.86601393,72.59667582,1503.060719
3.2500,-47.53739138,72.53403593,1503.793565
3.2550,-47.20778183,72.47253581,1504.522836
3.2600,-46.87690015,72.41131156,1505.249548
3.2650,-46.54588938,72.35044858,1505.972837
3.2700,-46.2152097,72.28882165,1506.693305
3.2750,-45.88491541,72.22904245,1507.411119
3.2800,-45.55507758,72.16980703,1508.126189
3.2850,-45.2255341,72.11158821,1508.837985
3.2900,-44.8954388,72.05446954,1509.546117
3.2950,-44.56454308,71.99894426,1510.250268
3.3000,-44.23299601,71.94492701,1510.951503
3.3050,-43.90140354,71.8926952,1511.649001
3.3100,-43.56925311,71.84176985,1512.343237
3.3150,-43.23602298,71.79216931,1513.033652
3.3200,-42.90281012,71.74321749,1513.720279
3.3250,-42.57040642,71.6946477,1514.403201
3.3300,-42.23802594,71.6472045,1515.083239
3.3350,-41.90611674,71.59919464,1515.759274
3.3400,-41.57447387,71.55192866,1516.431918
3.3450,-41.2438759,71.50419514,1517.100626
3.3500,-40.91461627,71.45611661,1517.76574
3.3550,-40.58646498,71.40653015,1518.427151
3.3600,-40.26094435,71.35595868,1519.084864
3.3650,-39.9373586,71.30447395,1519.73911
3.3700,-39.61716645,71.25237395,1520.390256
3.3750,-39.2991698,71.20007222,1521.038085
3.3800,-38.9841562,71.1469088,1521.681939
3.3850,-38.67282292,71.0929361,1522.322203
3.3900,-38.36531468,71.03862974,1522.958981
3.3950,-38.06215915,70.98256674,1523.592413
3.4000,-37.7627126,70.92467948,1524.22253
3.4050,-37.46741205,70.8655425,1524.849247
3.4100,-37.17602935,70.80539936,1525.472101
3.4150,-36.88876126,70.74518428,1526.091727
3.4200,-36.60473212,70.68419785,1526.707345
3.4250,-36.32371697,70.62206705,1527.319222
3.4300,-36.0471039,70.55885937,1527.926584
3.4350,-35.77219131,70.4954425,1528.529448
3.4400,-35.49994514,70.43048553,1529.127951
3.4450,-35.22976248,70.3650367,1529.722145
3.4500,-34.96208533,70.29885511,1530.312274
3.4550,-34.69772264,70.2313448,1530.898275
3.4600,-34.43474232,70.16318704,1531.47992
3.4650,-34.17474657,70.09472273,1532.057418
3.4700,-33.91544911,70.02533982,1532.629606
3.4750,-33.65735513,69.95635235,1533.197489
3.4800,-33.3995064,69.88748405,1533.761141
3.4850,-33.14275909,69.81802407,1534.319336
3.4900,-32.88611126,69.74811919,1534.872446
3.4950,-32.63016493,69.67908539,1535.420259
3.5000,-32.37604198,69.6104018,1535.963122
3.5050,-32.12324644,69.54250619,1536.501017
3.5100,-31.873445,69.47513412,1537.03353
3.5150,-31.62488848,69.40880911,1537.559683
3.5200,-31.37670823,69.34431228,1538.080201
3.5250,-31.1298278,69.28263927,1538.595106
3.5300,-30.88486772,69.22237031,1539.104982
3.5350,-30.64034834,69.16427251,1539.609275
3.5400,-30.39785757,69.10762046,1540.108197
3.5450,-30.15779847,69.05297712,1540.602066
3.5500,-29.91982339,68.99996629,1541.089919
3.5550,-29.68464221,68.94737546,1541.572503
3.5600,-29.45192135,68.89682842,1542.049717
3.5650,-29.22074719,68.84771485,1542.521714
3.5700,-28.99192188,68.80028401,1542.988466
3.5750,-28.76552214,68.75439387,1543.450582
3.5800,-28.54161818,68.71054211,1543.908069
3.5850,-28.32004749,68.66800443,1544.361124
3.5900,-28.10088012,68.62648854,1544.809947
3.5950,-27.88419122,68.58531291,1545.254413
3.6000,-27.670311,68.54507817,1545.694852
3.6050,-27.45865266,68.50542006,1546.131303
3.6100,-27.24920673,68.46585886,1546.563565
3.6150,-27.04196413,68.42609441,1546.992647
3.6200,-26.83650822,68.38639389,1547.418594
3.6250,-26.63256354,68.34529904,1547.841255
3.6300,-26.43078935,68.30196264,1548.260353
3.6350,-26.23131518,68.25698093,1548.677021
3.6400,-26.03406655,68.20904951,1549.090872
3.6450,-25.83920705,68.15806092,1549.50258
3.6500,-25.64583094,68.1033132,1549.912294
3.6550,-25.45492478,68.04583354,1550.320314
3.6600,-25.26481825,67.98397537,1550.726506
3.6650,-25.07641998,67.91685575,1551.131254
3.6700,-24.88809038,67.84368019,1551.533564
3.6750,-24.70118989,67.7640328,1551.934464
3.6800,-24.5151167,67.67866182,1552.334908
3.6850,-24.32890311,67.58605427,1552.734211
3.6900,-24.14327729,67.48570829,1553.133598
3.6950,-23.95836366,67.37837911,1553.532712
3.7000,-23.77439065,67.2652072,1553.932872
3.7050,-23.59053972,67.1454645,1554.333435
3.7100,-23.40626492,67.01918367,1554.734829
3.7150,-23.22146186,66.88692549,1555.137349
3.7200,-23.03560354,66.74905699,1555.540808
3.7250,-22.84912002,66.60551812,1555.945355
3.7300,-22.65947786,66.45664657,1556.35132
3.7350,-22.46891882,66.30318416,1556.758457
3.7400,-22.27695249,66.1448505,1557.167495
3.7450,-22.0829248,65.98293607,1557.577652
3.7500,-21.8872184,65.81723525,1557.988431
3.7550,-21.68820295,65.64893406,1558.399774
3.7600,-21.48752377,65.4769425,1558.811819
3.7650,-21.28451632,65.30274433,1559.22385
3.7700,-21.08005829,65.12687279,1559.636806
3.7750,-20.87284848,64.94892761,1560.049677
3.7800,-20.66360142,64.77054408,1560.462487
3.7850,-20.45210861,64.59275245,1560.874838
3.7900,-20.23896947,64.41590151,1561.28633
3.7950,-20.02383784,64.23895401,1561.697168
3.8000,-19.806622,64.0638978,1562.106836
3.8050,-19.58775425,63.89114308,1562.514812
3.8100,-19.36753545,63.71985794,1562.92211
3.8150,-19.14639902,63.55063612,1563.328646
3.8200,-18.92479939,63.38500959,1563.734422
3.8250,-18.70248819,63.2217918,1564.138993
3.8300,-18.4795414,63.06220693,1564.541985
3.8350,-18.25810281,62.90641366,1564.943708
3.8400,-18.03670798,62.75579008,1565.344163
3.8450,-17.81666027,62.60948852,1565.742927
3.8500,-17.59845577,62.46795899,1566.140127
3.8550,-17.38161714,62.33177666,1566.535784
3.8600,-17.168727,62.1997513,1566.930568
3.8650,-16.9607204,62.07218659,1567.324177
3.8700,-16.7571373,61.9495164,1567.717126
3.8750,-16.55983483,61.82969004,1568.108665
3.8800,-16.36783783,61.71366811,1568.498104
3.8850,-16.18199068,61.60116973,1568.886363
3.8900,-16.00195393,61.49178576,1569.272732
3.8950,-15.82855169,61.38577674,1569.658197
3.9000,-15.66131971,61.28185367,1570.041152
3.9050,-15.50059017,61.17921295,1570.422594
3.9100,-15.3473022,61.07762591,1570.802946
3.9150,-15.20236087,60.97630739,1571.181714
3.9200,-15.06436606,60.87435247,1571.558342
3.9250,-14.93373183,60.77200389,1571.933641
3.9300,-14.80915173,60.66817306,1572.306751
3.9350,-14.68985543,60.5630313,1572.677615
3.9400,-14.57638294,60.45480942,1573.046085
3.9450,-14.46751061,60.34302121,1573.412544
3.9500,-14.36353109,60.2275794,1573.776905
3.9550,-14.26240846,60.10649522,1574.138538
3.9600,-14.16577849,59.98002305,1574.498451
3.9650,-14.07219665,59.84693713,1574.855313
3.9700,-13.98251386,59.70764449,1575.210357
3.9750,-13.89509073,59.56150132,1575.562964
3.9800,-13.80950818,59.40807908,1575.912544
3.9850,-13.72696229,59.24677938,1576.259132
3.9900,-13.64607945,59.07818857,1576.602185
3.9950,-13.5658539,58.90193454,1576.941309
4.0000,-13.48598047,58.71471277,1577.275448
4.0050,-13.40654706,58.51864729,1577.605236
4.0100,-13.32860165,58.31280782,1577.930857
4.0150,-13.25112403,58.09817126,1578.251789
4.0200,-13.17417033,57.87359642,1578.567479
4.0250,-13.0960385,57.6403777,1578.878019
4.0300,-13.01778756,57.3994354,1579.183673
4.0350,-12.93839314,57.15123679,1579.48388
4.0400,-12.85695945,56.89591824,1579.77783
4.0450,-12.77407383,56.63306781,1580.065521
4.0500,-12.68845861,56.36479285,1580.346848
4.0550,-12.60221866,56.09047317,1580.622717
4.0600,-12.51387854,55.81173223,1580.892574
4.0650,-12.42307079,55.52907633,1581.156628
4.0700,-12.32933178,55.24341798,1581.41445
4.0750,-12.23419497,54.95547206,1581.666632
4.0800,-12.13762333,54.6655008,1581.913078
4.0850,-12.03815254,54.37496629,1582.154298
4.0900,-11.93747367,54.08616121,1582.391
4.0950,-11.83444121,53.79903871,1582.621911
4.1000,-11.73087916,53.514592,1582.848533
4.1050,-11.62710731,53.23443631,1583.071983
4.1100,-11.52236157,52.95997241,1583.290429
4.1150,-11.41878235,52.6918583,1583.505416
4.1200,-11.31614374,52.42994617,1583.716223
4.1250,-11.21490789,52.17584376,1583.923154
4.1300,-11.11547722,51.93044915,1584.126618
4.1350,-11.0181431,51.69401221,1584.326342
4.1400,-10.92338537,51.4668476,1584.522174
4.1450,-10.83105884,51.25143363,1584.714902
4.1500,-10.74140872,51.04649101,1584.903847
4.1550,-10.65605236,50.85316754,1585.08909
4.1600,-10.57306411,50.67279998,1585.269635
4.1650,-10.49247078,50.50544492,1585.445679
4.1700,-10.41564309,50.35063434,1585.616204
4.1750,-10.34132704,50.21076043,1585.781852
4.1800,-10.26966041,50.08526582,1585.94197
4.1850,-10.20191823,49.97377583,1586.09625
4.1900,-10.13855964,49.87574298,1586.244224
4.1950,-10.07808627,49.79213914,1586.384721
4.2000,-10.02237702,49.72218237,1586.517939
4.2050,-9.970885431,49.66522912,1586.64261
4.2100,-9.922769327,49.62215339,1586.757751
4.2150,-9.878641605,49.59150858,1586.863302
4.2200,-9.839062693,49.57362458,1586.958546
4.2250,-9.803747111,49.56866024,1587.042962
4.2300,-9.774052851,49.57519461,1587.11721
4.2350,-9.750731756,49.59319564,1587.180152
4.2400,-9.732446755,49.62303551,1587.23182
4.2450,-9.720188524,49.66260294,1587.27111
4.2500,-9.713917263,49.71142224,1587.298274
4.2550,-9.714947919,49.76839096,1587.313194
4.2600,-9.721926083,49.83445133,1587.315474
4.2650,-9.736605085,49.9078854,1587.3064
4.2700,-9.75747247,49.98878285,1587.285575
4.2750,-9.785872455,50.07597271,1587.252941
4.2800,-9.821867098,50.16921497,1587.209072
4.2850,-9.864302326,50.26895797,1587.154554
4.2900,-9.914041287,50.37317504,1587.089176
4.2950,-9.971457465,50.48214637,1587.01416
4.3000,-10.03707989,50.59635935,1586.92955
4.3050,-10.11052083,50.71307311,1586.835358
4.3100,-10.19060788,50.83398173,1586.731436
4.3150,-10.27749532,50.95716113,1586.617996
4.3200,-10.37162855,51.08308649,1586.49591
4.3250,-10.47263911,51.21207469,1586.364521
4.3300,-10.58030473,51.34420606,1586.223952
4.3350,-10.6937912,51.47893966,1586.074714
4.3400,-10.81430029,51.61758376,1585.917293
4.3450,-10.94080084,51.75966531,1585.751752
4.3500,-11.07401314,51.90489073,1585.578318
4.3550,-11.2123117,52.05370281,1585.39637
4.3600,-11.35718265,52.20616499,1585.206732
4.3650,-11.50886253,52.36317408,1585.010157
4.3700,-11.66745484,52.52407366,1584.806588
4.3750,-11.83217597,52.69028128,1584.596275
4.3800,-12.00291494,52.8609002,1584.379309
4.3850,-12.18070272,53.03599683,1584.155833
4.3900,-12.36472856,53.21493319,1583.925958
4.3950,-12.55568921,53.39909597,1583.690797
4.4000,-12.75266195,53.58948694,1583.449675
4.4050,-12.95464767,53.78620931,1583.202758
4.4100,-13.1628482,53.99005376,1582.951235
4.4150,-13.3743897,54.20165642,1582.693869
4.4200,-13.58975168,54.42148311,1582.431353
4.4250,-13.80866047,54.64935256,1582.163207
4.4300,-14.03067005,54.88454745,1581.889186
4.4350,-14.25596812,55.12777347,1581.610127
4.4400,-14.48315067,55.37915579,1581.325272
4.4450,-14.71291905,55.63745403,1581.034064
4.4500,-14.94402059,55.90421368,1580.736824
4.4550,-15.17533517,56.1787482,1580.433741
4.4600,-15.40838459,56.4600535,1580.124283
4.4650,-15.64298885,56.74861532,1579.808682
4.4700,-15.87820218,57.04490545,1579.487174
4.4750,-16.11449745,57.34722985,1579.159495
4.4800,-16.35197038,57.65514825,1578.82556
4.4850,-16.58944931,57.96865431,1578.484786
4.4900,-16.82678135,58.28877315,1578.138128
4.4950,-17.06526805,58.61375531,1577.785402
4.5000,-17.30400797,58.94304531,1577.427176
4.5050,-17.54369128,59.27626832,1577.06308
4.5100,-17.78535091,59.61246957,1576.694135
4.5150,-18.0276923,59.95051896,1576.319567
4.5200,-18.27259731,60.28943991,1575.940623
4.5250,-18.51884122,60.62942713,1575.556449
4.5300,-18.76604984,60.969953,1575.167071
4.5350,-19.015964,61.3099076,1574.77371
4.5400,-19.26954615,61.64711574,1574.376487
4.5450,-19.52681782,61.98369455,1573.975896
4.5500,-19.78787458,62.3175209,1573.571496
4.5550,-20.05309624,62.64966076,1573.164192
4.5600,-20.3232681,62.97869508,1572.754145
4.5650,-20.59728902,63.30700797,1572.341471
4.5700,-20.87777079,63.63168866,1571.925399
4.5750,-21.16317471,63.95402911,1571.506648
4.5800,-21.45450681,64.27345964,1571.085187
4.5850,-21.75233373,64.5908396,1570.660937
4.5900,-22.05678026,64.90600057,1570.233896
4.5950,-22.36793729,65.21776903,1569.803494
4.6000,-22.68529566,65.52889504,1569.370185
4.6050,-23.0090289,65.84077223,1568.934449
4.6100,-23.33852171,66.15299769,1568.495633
4.6150,-23.67289061,66.46615362,1568.053188
4.6200,-24.01076663,66.78138436,1567.606287
4.6250,-24.35296959,67.09838803,1567.154887
4.6300,-24.69948098,67.41663211,1566.698661
4.6350,-25.04970281,67.73643383,1566.236109
4.6400,-25.40321201,68.05792577,1565.766829
4.6450,-25.7599631,68.38128233,1565.291147
4.6500,-26.12005176,68.70605212,1564.809011
4.6550,-26.48359426,69.03312387,1564.320068
4.6600,-26.84961655,69.36286536,1563.823707
4.6650,-27.21841056,69.69398868,1563.31944
4.6700,-27.58948099,70.02709301,1562.806494
4.6750,-27.96446631,70.36252113,1562.285814
4.6800,-28.34286238,70.70122689,1561.756735
4.6850,-28.72608027,71.0425341,1561.219567
4.6900,-29.1134758,71.38797049,1560.674286
4.6950,-29.50670249,71.73747457,1560.121107
4.7000,-29.90494196,72.09055634,1559.560059
4.7050,-30.30850001,72.44761856,1558.990816
4.7100,-30.71557122,72.80955176,1558.412796
4.7150,-31.12702488,73.1767295,1557.826095
4.7200,-31.54161676,73.54919615,1557.230096
4.7250,-31.95994751,73.92747435,1556.625377
4.7300,-32.38144746,74.31240035,1556.01184
4.7350,-32.8047984,74.70379634,1555.388934
4.7400,-33.23138814,75.102138,1554.756776
4.7450,-33.65986909,75.50741232,1554.116228
4.7500,-34.08969331,75.918677,1553.466284
4.7550,-34.52196981,76.33495839,1552.806384
4.7600,-34.95599452,76.75719998,1552.137896
4.7650,-35.39130781,77.18543647,1551.460225
4.7700,-35.82746007,77.61838902,1550.773331
4.7750,-36.26363455,78.05597501,1550.076434
4.7800,-36.7007279,78.49713098,1549.370416
4.7850,-37.14081998,78.94078645,1548.656206
4.7900,-37.58372659,79.38603649,1547.932893
4.7950,-38.03091678,79.83208495,1547.200959
4.8000,-38.48281615,80.27961574,1546.460596
4.8050,-38.94012606,80.72809631,1545.712188
4.8100,-39.40387398,81.17638646,1544.955775
4.8150,-39.8746828,81.62495301,1544.19133
4.8200,-40.35136705,82.07434503,1543.419251
4.8250,-40.83616326,82.52384327,1542.639798
4.8300,-41.32900272,82.97443046,1541.852792
4.8350,-41.82939869,83.42546841,1541.058419
4.8400,-42.33606133,83.87871788,1540.25684
4.8450,-42.84910987,84.33414672,1539.448349
4.8500,-43.36743384,84.79185141,1538.632524
4.8550,-43.89018032,85.2519283,1537.809504
4.8600,-44.41721803,85.71395206,1536.97893
4.8650,-44.94768099,86.17653566,1536.140452
4.8700,-45.4792181,86.64155761,1535.294871
4.8750,-46.01228753,87.10840349,1534.441745
4.8800,-46.54654501,87.57511945,1533.58112
4.8850,-47.08143326,88.04118889,1532.71323
4.8900,-47.61664342,88.50808348,1531.838469
4.8950,-48.1520923,88.97699591,1530.95716
4.9000,-48.68800895,89.44595339,1530.069517
4.9050,-49.22335956,89.91584222,1529.174526
4.9100,-49.75831759,90.38578814,1528.272955
4.9150,-50.29483752,90.85559962,1527.364894
4.9200,-50.83239753,91.32581101,1526.450401
4.9250,-51.37204132,91.79448854,1525.529271
4.9300,-51.91259964,92.263326,1524.601694
4.9350,-52.45637494,92.73076487,1523.668146
4.9400,-53.00163181,93.19772543,1522.728714
4.9450,-53.54871056,93.66462552,1521.782702
4.9500,-54.09667014,94.13183234,1520.829916
4.9550,-54.64569441,94.59903212,1519.869966
4.9600,-55.19498928,95.06572659,1518.903546
4.9650,-55.74375192,95.53362746,1517.929943
4.9700,-56.29132545,96.00188915,1516.949746
4.9750,-56.83695991,96.47021812,1515.961854
4.9800,-57.3805461,96.93890201,1514.966113
4.9850,-57.92057349,97.40870889,1513.962855
4.9900,-58.45719936,97.87737271,1512.951582
4.9950,-58.98877223,98.34578512,1511.931971
5.0000,-59.51621369,98.81312024,1510.904489
5.0050,-60.03983348,99.27732737,1509.868315
5.0100,-60.56019314,99.73829733,1508.824344
5.0150,-61.07703387,100.195787,1507.772776
5.0200,-61.59168163,100.6486015,1506.713126
5.0250,-62.10258573,101.0979566,1505.645564
5.0300,-62.61047662,101.5436455,1504.569609
5.0350,-63.11501424,101.9847677,1503.484688
5.0400,-63.61632412,102.4212414,1502.391573
5.0450,-64.11394484,102.8533095,1501.289402
5.0500,-64.60825307,103.281996,1500.178849
5.0550,-65.09775305,103.7083678,1499.059467
5.0600,-65.58153753,104.1325704,1497.930469
5.0650,-66.06096473,104.5539408,1496.791699
5.0700,-66.53617181,104.9735089,1495.643461
5.0750,-67.00826062,105.3916757,1494.486525
5.0800,-67.47674962,105.807616,1493.319445
5.0850,-67.94080475,106.2210092,1492.141531
5.0900,-68.40093524,106.6326729,1490.952853
5.0950,-68.85719934,107.0413167,1489.753608
5.1000,-69.30971121,107.446257,1488.543076
5.1050,-69.75801637,107.8473956,1487.321858
5.1100,-70.20202692,108.2454772,1486.08932
5.1150,-70.64065966,108.6421501,1484.845713
5.1200,-71.07452457,109.0370501,1483.589971
5.1250,-71.50385333,109.4295564,1482.322232
5.1300,-71.92906828,109.8191944,1481.042858
5.1350,-72.34947067,110.2073101,1479.751372
5.1400,-72.76675914,110.5924952,1478.446804
5.1450,-73.18103777,110.9753253,1477.129818
5.1500,-73.59481648,111.3551074,1475.800458
5.1550,-74.00734677,111.7329095,1474.458418
5.1600,-74.41909504,112.1098674,1473.103575
5.1650,-74.83146957,112.4855654,1471.736035
5.1700,-75.24347678,112.8616473,1470.354892
5.1750,-75.65459633,113.2365171,1468.960248
5.1800,-76.06296021,113.6122408,1467.55201
5.1850,-76.4677816,113.9894325,1466.130656
5.1900,-76.86882419,114.3682568,1464.69523
5.1950,-77.26589797,114.7485026,1463.246207
5.2000,-77.65709791,115.1317594,1461.783049
5.2050,-78.04334763,115.5158719,1460.306354
5.2100,-78.42486096,115.9024503,1458.815485
5.2150,-78.80105137,116.2906692,1457.31021
5.2200,-79.17190122,116.6802874,1455.789871
5.2250,-79.53722484,117.0715057,1454.254883
5.2300,-79.89648626,117.464483,1452.704272
5.2350,-80.24904027,117.8591945,1451.138124
5.2400,-80.59586578,118.2539619,1449.55524
5.2450,-80.93692846,118.6490694,1447.955515
5.2500,-81.27207813,119.0442557,1446.338898
5.2550,-81.60160879,119.4394623,1444.705682
5.2600,-81.92619704,119.8342496,1443.055131
5.2650,-82.24576167,120.2290799,1441.38709
5.2700,-82.56180701,120.6241146,1439.701855
5.2750,-82.87352439,121.0190399,1437.999729
5.2800,-83.18127211,121.4134191,1436.280915
5.2850,-83.48419595,121.8068884,1434.545087
5.2900,-83.7828511,122.1998321,1432.792457
5.2950,-84.07663201,122.593155,1431.023175
5.3000,-84.36540597,122.9863335,1429.237004
5.3050,-84.64949477,123.3798277,1427.433888
5.3100,-84.92992839,123.7722754,1425.612801
5.3150,-85.2064599,124.1632771,1423.773822
5.3200,-85.47855891,124.5532441,1421.917113
5.3250,-85.74750963,124.940344,1420.042761
5.3300,-86.01171352,125.3249643,1418.151533
5.3350,-86.27113277,125.7069304,1416.243878
5.3400,-86.52440311,126.0859071,1414.319092
5.3450,-86.77228511,126.4612106,1412.377206
5.3500,-87.01409002,126.8311706,1410.418594
5.3550,-87.25085386,127.197198,1408.442915
5.3600,-87.48291627,127.5574873,1406.451342
5.3650,-87.70959901,127.9105729,1404.443996
5.3700,-87.92998262,128.2566314,1402.42073
5.3750,-88.14545392,128.5947794,1400.38119
5.3800,-88.3551446,128.926417,1398.326523
5.3850,-88.55932313,129.2500965,1396.256542
5.3900,-88.75779715,129.5642148,1394.172334
5.3950,-88.94825601,129.8693282,1392.07446
5.4000,-89.13028094,130.1653479,1389.963237
5.4050,-89.30124851,130.4529002,1387.837846
5.4100,-89.46027342,130.7319931,1385.699557
5.4150,-89.60797685,130.9998773,1383.54787
5.4200,-89.74423553,131.257848,1381.384301
5.4250,-89.86901484,131.5052336,1379.209253
5.4300,-89.9816137,131.7423949,1377.023086
5.4350,-90.0835406,131.9678291,1374.825954
5.4400,-90.17433706,132.1830425,1372.619113
5.4450,-90.25440615,132.3854586,1370.402294
5.4500,-90.32174268,132.5772644,1368.176251
5.4550,-90.37746381,132.7562838,1365.941285
5.4600,-90.42014911,132.9213059,1363.698545
5.4650,-90.44948268,133.0737099,1361.448694
5.4700,-90.46731039,133.2114577,1359.193265
5.4750,-90.47340272,133.3351578,1356.93333
5.4800,-90.46735781,133.4458572,1354.669775
5.4850,-90.44960115,133.543097,1352.403362
5.4900,-90.41997948,133.6275931,1350.135576
5.4950,-90.37794454,133.7009563,1347.86719
5.5000,-90.32452534,133.7627353,1345.598802
5.5050,-90.26037777,133.815519,1343.331195
5.5100,-90.18657687,133.8587065,1341.065259
5.5150,-90.10275509,133.8921858,1338.802024
5.5200,-90.01051029,133.9163299,1336.542078
5.5250,-89.90980254,133.9335504,1334.285554
5.5300,-89.80163294,133.941345,1332.032124
5.5350,-89.68538376,133.9429464,1329.782461
5.5400,-89.5617448,133.9396894,1327.536741
5.5450,-89.43178163,133.9313439,1325.294569
5.5500,-89.29720716,133.919465,1323.055661
5.5550,-89.15677248,133.9052247,1320.819733
5.5600,-89.0106003,133.8893637,1318.585754
5.5650,-88.85874997,133.8732121,1316.354029
5.5700,-88.70124852,133.8580682,1314.122724
5.5750,-88.53915285,133.8444227,1311.891865
5.5800,-88.37279381,133.8337108,1309.660799
5.5850,-88.20228353,133.8260106,1307.428655
5.5900,-88.02624443,133.8220269,1305.195648
5.5950,-87.84456691,133.8220689,1302.961022
5.6000,-87.65521219,133.8271015,1300.722868
5.6050,-87.45743252,133.838883,1298.482534
5.6100,-87.24923566,133.8587457,1296.239082
5.6150,-87.02939358,133.8872187,1293.992494
5.6200,-86.79664976,133.9241466,1291.742699
5.6250,-86.54968879,133.9697943,1289.488698
5.6300,-86.29007163,134.022918,1287.2302
5.6350,-86.01810102,134.083942,1284.967059
5.6400,-85.73367432,134.1521923,1282.70011
5.6450,-85.43637582,134.2275655,1280.42918
5.6500,-85.126553,134.3098141,1278.153418
5.6550,-84.804159,134.397569,1275.874057
5.6600,-84.46874515,134.4913399,1273.589592
5.6650,-84.12013389,134.5930285,1271.300093
5.6700,-83.75903422,134.6991366,1269.005605
5.6750,-83.38205597,134.8100189,1266.706053
5.6800,-82.99004529,134.9241725,1264.401723
5.6850,-82.58252787,135.0422434,1262.092803
5.6900,-82.1597376,135.1629754,1259.779318
5.6950,-81.7219218,135.2853098,1257.462145
5.7000,-81.27068587,135.406916,1255.141388
5.7050,-80.80892023,135.5268425,1252.818266
5.7100,-80.33726411,135.644379,1250.492382
5.7150,-79.85569201,135.7598726,1248.165722
5.7200,-79.36405048,135.8724657,1245.83825
5.7250,-78.86169464,135.981273,1243.511208
5.7300,-78.34915656,136.0849805,1241.184866
5.7350,-77.8251376,136.1834332,1238.860685
5.7400,-77.28967758,136.275257,1236.538778
5.7450,-76.74282749,136.3605495,1234.219281
5.7500,-76.18396601,136.4391337,1231.903105
5.7550,-75.61404673,136.5105229,1229.591529
5.7600,-75.03240818,136.5761064,1227.285557
5.7650,-74.43864515,136.6355713,1224.984855
5.7700,-73.8332161,136.6896363,1222.690732
5.7750,-73.21582666,136.7383353,1220.402858
5.7800,-72.58767522,136.7802562,1218.12091
5.7850,-71.94889955,136.8158702,1215.844742
5.7900,-71.29977629,136.8445246,1213.575347
5.7950,-70.6401167,136.8643633,1211.311978
5.8000,-69.97033996,136.8749528,1209.055844
5.8050,-69.28932629,136.875711,1206.806515
5.8100,-68.59594241,136.8670412,1204.564588
5.8150,-67.89030005,136.8492389,1202.329343
5.8200,-67.17176287,136.8229113,1200.102246
5.8250,-66.43950765,136.7882335,1197.883415
5.8300,-65.69303504,136.7484002,1195.675158
5.8350,-64.93217405,136.7024635,1193.47704
5.8400,-64.157199,136.6508129,1191.289744
5.8450,-63.36615967,136.59444,1189.113907
5.8500,-62.55860289,136.5342781,1186.950649
5.8550,-61.73450238,136.4708043,1184.79972
5.8600,-60.89336467,136.4062006,1182.662809
5.8650,-60.03627625,136.3378008,1180.539856
5.8700,-59.16325162,136.265952,1178.431761
5.8750,-58.27504267,136.1912415,1176.338501
5.8800,-57.37145543,136.1141552,1174.260427
5.8850,-56.45345126,136.0349284,1172.197218
5.8900,-55.52159172,135.9536589,1170.148749
5.8950,-54.57583108,135.8697649,1168.115062
5.9000,-53.61816234,135.7842676,1166.097769
5.9050,-52.64746809,135.6949793,1164.094956
5.9100,-51.66584342,135.6026075,1162.108632
5.9150,-50.67426805,135.5065397,1160.138201
5.9200,-49.6731801,135.4064949,1158.183869
5.9250,-48.66461463,135.3032131,1156.246814
5.9300,-47.6475096,135.1973918,1154.326542
5.9350,-46.62135574,135.0911375,1152.423526
5.9400,-45.58742423,134.9853677,1150.537557
5.9450,-44.54639293,134.8801157,1148.668895
5.9500,-43.49818245,134.7767423,1146.817746
5.9550,-42.44274428,134.6761624,1144.984324
5.9600,-41.38094684,134.578308,1143.168857
5.9650,-40.31293675,134.4824255,1141.372209
5.9700,-39.23834187,134.3906978,1139.593425
5.9750,-38.16005263,134.301875,1137.833561
5.9800,-37.07836462,134.2164751,1136.092486
5.9850,-35.99401847,134.135449,1134.37051
5.9900,-34.9080971,134.0600144,1132.667822
5.9950,-33.82115928,133.9896852,1130.983255
6.0000,-32.73372002,133.9248409,1129.317361
6.0050,-31.64566612,133.8666216,1127.670303
6.0100,-30.55825851,133.8155519,1126.041903
6.0150,-29.47304143,133.7709171,1124.43097
6.0200,-28.38956712,133.7326498,1122.8372
6.0250,-27.30914691,133.7014412,1121.260334
6.0300,-26.23298244,133.6769089,1119.699867
6.0350,-25.1611421,133.6594473,1118.15485
6.0400,-24.09370701,133.6485488,1116.625279
6.0450,-23.03062931,133.6437863,1115.110907
6.0500,-21.97253255,133.646203,1113.611963
6.0550,-20.91849585,133.6547274,1112.127492
6.0600,-19.86850699,133.6685072,1110.657368
6.0650,-18.82350315,133.6876495,1109.2029
6.0700,-17.7819229,133.7123574,1107.7635
6.0750,-16.74365108,133.7437286,1106.33964
6.0800,-15.70784847,133.7823021,1104.931935
6.0850,-14.67342057,133.8268723,1103.540128
6.0900,-13.63905445,133.878726,1102.164284
6.0950,-12.60475011,133.9377758,1100.805172
6.1000,-11.56835029,134.0037507,1099.461722
6.1050,-10.52953771,134.0758301,1098.1343
6.1100,-9.48663809,134.1538453,1096.823012
6.1150,-8.438950723,134.2380004,1095.527893
6.1200,-7.385514584,134.3261052,1094.248306
6.1250,-6.325354092,134.4177982,1092.984475
6.1300,-5.259190859,134.5099574,1091.735749
6.1350,-4.185829721,134.6019818,1090.501587
6.1400,-3.104756022,134.6930168,1089.282078
6.1450,-2.017483095,134.7817199,1088.077086
6.1500,-0.9225958229,134.8665318,1086.885321
6.1550,0.1792786505,134.9463613,1085.707068
6.1600,1.28758389,135.0200412,1084.541194
6.1650,2.403772832,135.08839,1083.387664
6.1700,3.527405494,135.1509767,1082.246244
6.1750,4.659324493,135.2058245,1081.116312
6.1800,5.800443735,135.2536691,1079.997581
6.1850,6.949169692,135.2935037,1078.890683
6.1900,8.105830904,135.3250737,1077.795049
6.1950,9.269592202,135.348069,1076.710691
6.2000,10.4396178,135.3604796,1075.637068
6.2050,11.61408415,135.3628751,1074.574989
6.2100,12.79362132,135.3549667,1073.523996
6.2150,13.97624073,135.3363658,1072.484453
6.2200,15.16173893,135.3073086,1071.456211
6.2250,16.35083392,135.2681522,1070.439238
6.2300,17.54351553,135.2198263,1069.433621
6.2350,18.73712741,135.1603876,1068.439183
6.2400,19.9322207,135.0903528,1067.455756
6.2450,21.12934397,135.0106018,1066.483474
6.2500,22.32653741,134.9196377,1065.522136
6.2550,23.52395393,134.8183058,1064.571425
6.2600,24.72086357,134.7067604,1063.631843
6.2650,25.91615537,134.5848978,1062.702798
6.2700,27.10943892,134.454186,1061.784888
6.2750,28.29967854,134.3150997,1060.877998
6.2800,29.48650847,134.1684826,1059.982172
6.2850,30.67093282,134.0151158,1059.097139
6.2900,31.85337363,133.8544249,1058.222069
6.2950,33.03361118,133.6893619,1057.357612
6.3000,34.2125227,133.5210239,1056.503397
6.3050,35.3900034,133.3487408,1055.65884
6.3100,36.56673644,133.1735726,1054.824066
6.3150,37.7446115,132.9965936,1053.998662
6.3200,38.92222573,132.8182874,1053.182764
6.3250,40.09987812,132.6376442,1052.375737
6.3300,41.27942401,132.4566535,1051.577386
6.3350,42.45994594,132.2740695,1050.787528
6.3400,43.64126072,132.0907335,1050.005844
6.3450,44.82266249,131.9072968,1049.232611
6.3500,46.00533274,131.7223315,1048.466802
6.3550,47.19135783,131.5377783,1047.70821
6.3600,48.37999539,131.353592,1046.956508
6.3650,49.5730077,131.1703659,1046.211251
6.3700,50.77069883,130.9877174,1045.472227
6.3750,51.9744435,130.8061008,1044.739024
6.3800,53.18489949,130.6253969,1044.010967
6.3850,54.40224521,130.4473696,1043.288699
6.3900,55.62644544,130.2713496,1042.57199
6.3950,56.85785911,130.098231,1041.860679
6.4000,58.0966828,129.9292774,1041.155412
6.4050,59.34240646,129.7640447,1040.456056
6.4100,60.59391927,129.6033974,1039.762657
6.4150,61.85121952,129.4481783,1039.075651
6.4200,63.11431098,129.2987422,1038.395116
6.4250,64.38277355,129.1547773,1037.720848
6.4300,65.65846466,129.0172298,1037.052547
6.4350,66.94113774,128.8858294,1036.390527
6.4400,68.23093131,128.7618235,1035.734876
6.4450,69.53010446,128.6453406,1035.085283
6.4500,70.83744972,128.5366391,1034.442435
6.4550,72.15405953,128.4366594,1033.806339
6.4600,73.48103901,128.3453096,1033.177004
6.4650,74.81665214,128.2606613,1032.554229
6.4700,76.16071104,128.1834338,1031.938512
6.4750,77.51362282,128.1133355,1031.329676
6.4800,78.87176533,128.047258,1030.727764
6.4850,80.23702512,127.9862626,1030.132598
6.4900,81.60903783,127.9296705,1029.544383
6.4950,82.986779,127.8758937,1028.962926
6.5000,84.37045209,127.8257241,1028.388567
6.5050,85.76009224,127.7791213,1027.821504
6.5100,87.15492013,127.7360265,1027.261949
6.5150,88.55610479,127.6964093,1026.709834
6.5200,89.96195407,127.6608885,1026.165888
6.5250,91.37154153,127.6279956,1025.62986
6.5300,92.7824839,127.5969683,1025.102296
6.5350,94.19515353,127.569232,1024.583854
6.5400,95.60820755,127.5434051,1024.074486
6.5450,97.0201468,127.5192448,1023.574419
6.5500,98.43153344,127.4985621,1023.084122
6.5550,99.83982506,127.4799776,1022.603858
6.5600,101.2448222,127.4632819,1022.133302
6.5650,102.6455725,127.4499319,1021.673321
6.5700,104.0417459,127.4375251,1021.223068
6.5750,105.4343743,127.4250496,1020.782065
6.5800,106.8248486,127.4122094,1020.349811
6.5850,108.2130419,127.3980307,1019.926163
6.5900,109.6020626,127.3804212,1019.509996
6.5950,110.9934719,127.3581252,1019.100589
6.6000,112.3858662,127.3308945,1018.697997
6.6050,113.7787592,127.2979575,1018.301765
6.6100,115.1710079,127.258632,1017.911752
6.6150,116.5608125,127.2128754,1017.527927
6.6200,117.9487431,127.1608326,1017.150072
6.6250,119.3360293,127.1046408,1016.778365
6.6300,120.7225436,127.0427242,1016.412168
6.6350,122.1096833,126.9766409,1016.051357
6.6400,123.4975559,126.9064018,1015.695812
6.6450,124.8875023,126.8333147,1015.345505
6.6500,126.2796414,126.7583828,1015.000571
6.6550,127.6732714,126.6814851,1014.660919
6.6600,129.070077,126.6028399,1014.326166
6.6650,130.468394,126.5225359,1013.996403
6.6700,131.8698982,126.4421401,1013.671573
6.6750,133.2734365,126.361061,1013.351513
6.6800,134.6770609,126.279998,1013.036642
6.6850,136.0803998,126.1994743,1012.726848
6.6900,137.4826067,126.1186385,1012.421802
6.6950,138.882941,126.0379369,1012.121716
6.7000,140.2814756,125.9562194,1011.82586
6.7050,141.6771569,125.8731006,1011.534281
6.7100,143.069364,125.7874816,1011.24679
6.7150,144.4579468,125.6982785,1010.962908
6.7200,145.8417299,125.6047241,1010.682584
6.7250,147.2203304,125.5071751,1010.405986
6.7300,148.592114,125.4046908,1010.133011
6.7350,149.9543701,125.2978292,1009.86416
6.7400,151.3051151,125.1857789,1009.599521
6.7450,152.6410477,125.0688012,1009.339464
6.7500,153.9605947,124.9476904,1009.084335
6.7550,155.2609767,124.8220661,1008.834147
6.7600,156.5404287,124.691766,1008.588972
6.7650,157.799187,124.5593981,1008.349432
6.7700,159.0379459,124.4242663,1008.115167
6.7750,160.2553665,124.2883555,1007.886891
6.7800,161.4550711,124.1547699,1007.665065
6.7850,162.6358609,124.0231017,1007.449669
6.7900,163.7978441,123.8941342,1007.240767
6.7950,164.9409608,123.7701305,1007.039009
6.8000,166.0664859,123.65129,1006.84425
6.8050,167.1743326,123.5385606,1006.656689
6.8100,168.2652414,123.4323357,1006.476314
6.8150,169.3412151,123.3336497,1006.303187
6.8200,170.4009956,123.2419231,1006.137168
6.8250,171.4470004,123.1594471,1005.978651
6.8300,172.4804076,123.0856489,1005.827237
6.8350,173.5032159,123.0203661,1005.68257
6.8400,174.5161445,122.9637137,1005.544483
6.8450,175.5207394,122.9162145,1005.412956
6.8500,176.5183638,122.8770835,1005.287626
6.8550,177.5107833,122.8464599,1005.168359
6.8600,178.49754,122.82441,1005.055242
6.8650,179.4820036,122.8084185,1004.947104
6.8700,180.4650192,122.7994101,1004.844136
6.8750,181.4466996,122.7970104,1004.746102
6.8800,182.4268724,122.8008521,1004.652881
6.8850,183.4051164,122.8110253,1004.564336
6.8900,184.3799515,122.8292339,1004.481028
6.8950,185.350389,122.8524333,1004.401934
6.9000,186.316343,122.8816588,1004.327261
6.9050,187.2808288,122.9166102,1004.256639
6.9100,188.2448715,122.9574454,1004.189972
6.9150,189.2108433,123.0043668,1004.127181
6.9200,190.1784901,123.0558586,1004.067814
6.9250,191.1479733,123.1114956,1004.01168
6.9300,192.1178387,123.170893,1003.958746
6.9350,193.0889636,123.2344698,1003.909045
6.9400,194.0615264,123.3014077,1003.862339
6.9450,195.0352313,123.3702626,1003.818219
6.9500,196.0084423,123.4400135,1003.776452
6.9550,196.9815105,123.510922,1003.737036
6.9600,197.9530557,123.58346,1003.700216
6.9650,198.923633,123.6564927,1003.665576
6.9700,199.8910838,123.7298683,1003.633209
6.9750,200.8542381,123.8043162,1003.60334
6.9800,201.8140244,123.8795516,1003.575825
6.9850,202.7681685,123.9541466,1003.550353
6.9900,203.7157791,124.0280228,1003.526898
6.9950,204.6556016,124.1009958,1003.505365
7.0000,205.5855502,124.1721881,1003.485547
7.0050,206.5053775,124.2427791,1003.467737
7.0100,207.4140554,124.3106158,1003.451224
7.0150,208.3115002,124.3760758,1003.436103
7.0200,209.1965823,124.4406008,1003.422693
7.0250,210.0682759,124.5026463,1003.410458
7.0300,210.9262887,124.5633863,1003.399679
7.0350,211.7708125,124.6229258,1003.390235
7.0400,212.6006798,124.6806789,1003.381826
7.0450,213.4148197,124.7367362,1003.374478
7.0500,214.2138801,124.7909242,1003.367988
7.0550,214.9976633,124.8427515,1003.362124
7.0600,215.7640659,124.8925214,1003.356975
7.0650,216.5132825,124.9384261,1003.351964
7.0700,217.2444248,124.9797892,1003.346839
7.0750,217.9567099,125.0166777,1003.341505
7.0800,218.6492907,125.0470244,1003.335321
7.0850,219.3219802,125.0704264,1003.328056
7.0900,219.9733811,125.085119,1003.319154
7.0950,220.6053444,125.0912168,1003.308566
7.1000,221.2169727,125.0888381,1003.296278
7.1050,221.8084246,125.0762865,1003.281683
7.1100,222.3804801,125.0536925,1003.264807
7.1150,222.9304763,125.0204829,1003.245426
7.1200,223.4611791,124.9764431,1003.223362
7.1250,223.9707299,124.9207827,1003.198337
7.1300,224.4601275,124.8537195,1003.170391
7.1350,224.9282725,124.7755923,1003.139524
7.1400,225.3765941,124.6874522,1003.106149
7.1450,225.8043155,124.5876618,1003.069638
7.1500,226.2108605,124.4772577,1003.030252
7.1550,226.5979598,124.3561707,1002.987858
7.1600,226.96618,124.2248378,1002.942589
7.1650,227.3162825,124.0842906,1002.894743
7.1700,227.6483967,123.9343407,1002.844249
7.1750,227.9638288,123.7753786,1002.791256
7.1800,228.2623709,123.6081989,1002.735923
7.1850,228.5440967,123.4322263,1002.678148
7.1900,228.8099871,123.2476947,1002.617893
7.1950,229.0604177,123.0568192,1002.555846
7.2000,229.2976311,122.858295,1002.491601
7.2050,229.5201924,122.654096,1002.425839
7.2100,229.7276744,122.4422051,1002.357851
7.2150,229.9204188,122.2222835,1002.28756
7.2200,230.0990746,121.9946975,1002.215001
7.2250,230.2637529,121.7582824,1002.139862
7.2300,230.4153951,121.5153247,1002.06286
7.2350,230.5540117,121.264005,1001.983484
7.2400,230.6802727,121.0063163,1001.9023
7.2450,230.7938761,120.7423398,1001.819345
7.2500,230.8963036,120.4718356,1001.734542
7.2550,230.9874174,120.1961051,1001.648349
7.2600,231.0680687,119.9146175,1001.560564
7.2650,231.1392142,119.6283068,1001.47147
7.2700,231.2000257,119.3379271,1001.381272
7.2750,231.2510934,119.0426885,1001.289724
7.2800,231.2915915,118.7434801,1001.197152
7.2850,231.3234339,118.4402612,1001.103473
7.2900,231.3463273,118.1345768,1001.009151
7.2950,231.3621609,117.826306,1000.914245
7.3000,231.3710673,117.5169973,1000.819155
7.3050,231.3729999,117.206187,1000.723758
7.3100,231.3688849,116.8956272,1000.628568
7.3150,231.3579795,116.5856669,1000.533688
7.3200,231.339995,116.2753503,1000.438849
7.3250,231.3156547,115.9655999,1000.344359
7.3300,231.2878294,115.6565735,1000.250279
7.3350,231.2560732,115.3489026,1000.156803
7.3400,231.2214399,115.0428019,1000.064017
7.3450,231.184593,114.7393041,999.9722538
7.3500,231.1451874,114.4380779,999.8813798
7.3550,231.1026744,114.1392697,999.7914993
7.3600,231.0576484,113.8428252,999.702569
7.3650,231.009329,113.5500638,999.6149529
7.3700,230.9564225,113.261461,999.5287155
7.3750,230.900539,112.9759591,999.4436505
7.3800,230.838707,112.6943021,999.3598964
7.3850,230.7707517,112.4164726,999.2775176
7.3900,230.6970984,112.1437177,999.1967964
7.3950,230.615581,111.8738055,999.1170935
7.4000,230.5263003,111.60645,999.0383631
7.4050,230.429594,111.3433153,998.9610929
7.4100,230.3242397,111.0839955,998.8850778
7.4150,230.2117795,110.8290466,998.8105142
7.4200,230.0913277,110.579807,998.7377742
7.4250,229.9629662,110.3346165,998.6664184
7.4300,229.8258289,110.0949068,998.596863
7.4350,229.6804599,109.8602555,998.5290157
7.4400,229.5271739,109.630316,998.4627972
7.4450,229.3658538,109.4066377,998.3986532
7.4500,229.1971802,109.1886859,998.3365188
7.4550,229.0197177,108.9765054,998.276455
7.4600,228.8338559,108.7696179,998.218289
7.4650,228.6386279,108.5689678,998.1623372
7.4700,228.4344649,108.3743576,998.1085672
7.4750,228.2190724,108.1871118,998.0572869
7.4800,227.9918158,108.0052725,998.0080241
7.4850,227.7516957,107.8305814,997.9612515
7.4900,227.4954537,107.6620194,997.9167538
7.4950,227.2228548,107.500334,997.8747946
7.5000,226.931531,107.3454869,997.8353912
7.5050,226.6210388,107.1956211,997.7980173
7.5100,226.2903693,107.0516297,997.7630177
7.5150,225.9354882,106.9131515,997.7303528
7.5200,225.5553427,106.7795487,997.6999132
7.5250,225.1485716,106.6519978,997.6720562
7.5300,224.7131455,106.5284946,997.6462727
7.5350,224.248878,106.4101285,997.6229505
7.5400,223.7546156,106.2948291,997.6016542
7.5450,223.2301122,106.1835766,997.5827226
7.5500,222.6748536,106.0771782,997.5664918
7.5550,222.088863,105.9743638,997.5527264
7.5600,221.4716838,105.8755987,997.5416874
7.5650,220.8236069,105.7800867,997.5333257
7.5700,220.1465578,105.6878924,997.5278529
7.5750,219.4414722,105.5982056,997.5251534
7.5800,218.7096897,105.5101736,997.525102
7.5850,217.9512173,105.4246045,997.5282071
7.5900,217.1677986,105.3400145,997.5342019
7.5950,216.3606558,105.2554909,997.5429172
7.6000,215.5304848,105.1703028,997.5543981
7.6050,214.6788905,105.0836961,997.5685309
7.6100,213.8076626,104.9953785,997.5853944
7.6150,212.9189847,104.9049988,997.6050333
7.6200,212.0161722,104.8111922,997.6271798
7.6250,211.100341,104.7153994,997.6522874
7.6300,210.170024,104.6162337,997.6802415
7.6350,209.2269704,104.5125897,997.7107735
7.6400,208.27161,104.4055979,997.7444077
7.6450,207.3051111,104.2946956,997.780954
7.6500,206.3280983,104.1785951,997.8202405
7.6550,205.3410632,104.0582564,997.8626462
7.6600,204.3455622,103.9334857,997.9081077
7.6650,203.3406777,103.8046851,997.9569872
7.6700,202.3273807,103.6722186,998.0093938
7.6750,201.3055556,103.5365445,998.0655658
7.6800,200.2750809,103.3985502,998.1257506
7.6850,199.2387524,103.2589591,998.1900165
7.6900,198.1971976,103.1187506,998.2586247
7.6950,197.1508069,102.9797364,998.3321328
7.7000,196.1009451,102.843703,998.4108628
7.7050,195.0470317,102.7107587,998.4948801
7.7100,193.9897281,102.5818605,998.5844788
7.7150,192.9296274,102.4574956,998.6796872
7.7200,191.8674713,102.3376905,998.7805018
7.7250,190.8035611,102.2244864,998.8874557
7.7300,189.7394178,102.1177381,999.0003427
7.7350,188.6760031,102.0175935,999.1192991
7.7400,187.6133022,101.9240917,999.2442195
7.7450,186.5533196,101.8385814,999.3755393
7.7500,185.4966615,101.7600333,999.512976
7.7550,184.4439188,101.6892346,999.656773
7.7600,183.3971535,101.6253102,999.8066621
7.7650,182.3576514,101.5686194,999.962781
7.7700,181.3234899,101.5201635,1000.125621
7.7750,180.2973632,101.4793992,1000.294962
7.7800,179.2796398,101.4480118,1000.471273
7.7850,178.268805,101.4239928,1000.654266
7.7900,177.2646302,101.4083088,1000.844217
7.7950,176.2651368,101.4005999,1001.041357
7.8000,175.2685877,101.4003712,1001.245715
7.8050,174.2738425,101.4084622,1001.457733
7.8100,173.2805988,101.4250392,1001.677713
7.8150,172.2884036,101.450886,1001.905763
7.8200,171.2956702,101.4869572,1002.142553
7.8250,170.3009409,101.5320866,1002.387957
7.8300,169.3064118,101.586705,1002.642056
7.8350,168.3083401,101.6505081,1002.905282
7.8400,167.3070745,101.7244836,1003.178013
7.8450,166.3032197,101.8078573,1003.460229
7.8500,165.2959006,101.9011493,1003.75227
7.8550,164.2847538,102.0042264,1004.054435
7.8600,163.2695299,102.1163561,1004.366911
7.8650,162.2496859,102.2371993,1004.689899
7.8700,161.2251495,102.3658346,1005.023554
7.8750,160.197012,102.5030145,1005.368574
7.8800,159.1641968,102.6477576,1005.725103
7.8850,158.1275413,102.7992846,1006.093203
7.8900,157.087626,102.9571026,1006.47314
7.8950,156.0446411,103.1216447,1006.865539
7.9000,154.9998193,103.291881,1007.270472
7.9050,153.9544056,103.4687274,1007.68829
7.9100,152.9084517,103.651575,1008.119231
7.9150,151.8614371,103.8394961,1008.563313
7.9200,150.8134849,104.0338601,1009.021097
7.9250,149.7655168,104.2336724,1009.49258
7.9300,148.7171993,104.439605,1009.977795
7.9350,147.6687566,104.6518522,1010.477088
7.9400,146.6193144,104.8709253,1010.990734
7.9450,145.5700317,105.0965661,1011.518479
7.9500,144.5201152,105.3311754,1012.061157
7.9550,143.470027,105.5731083,1012.618257
7.9600,142.4188644,105.8247412,1013.190509
7.9650,141.3674101,106.0849927,1013.777337
7.9700,140.3158038,106.3542145,1014.378872
7.9750,139.2631848,106.6337269,1014.995139
7.9800,138.2111918,106.9227666,1015.626275
7.9850,137.1585704,107.2219435,1016.272384
7.9900,136.1043632,107.5308244,1016.933666
7.9950,135.0494057,107.8500194,1017.610025
8.0000,133.9926928,108.1796227,1018.301759
8.0050,132.9348613,108.5194544,1019.00871
8.0100,131.8762765,108.868739,1019.730721
8.0150,130.8160709,109.228608,1020.468185
8.0200,129.7547766,109.5990068,1021.221306
8.0250,128.6929768,109.9797984,1021.989824
8.0300,127.630195,110.370949,1022.774053
8.0350,126.566887,110.7729254,1023.573994
8.0400,125.5040726,111.1853127,1024.389395
8.0450,124.4409017,111.6085347,1025.220675
8.0500,123.3778821,112.0422556,1026.067178
8.0550,122.3158985,112.485922,1026.928637
8.0600,121.2542576,112.9411708,1027.805714
8.0650,120.1923287,113.406728,1028.697646
8.0700,119.1313156,113.8830114,1029.604208
8.0750,118.0699428,114.3690765,1030.525276
8.0800,117.0063994,114.8638504,1031.460781
8.0850,115.9424351,115.3673394,1032.410113
8.0900,114.8776141,115.8797459,1033.373272
8.0950,113.8120414,116.4004041,1034.349614
8.1000,112.7459078,116.9280267,1035.339053
8.1050,111.6781659,117.4617012,1036.341254
8.1100,110.6083325,118.0010332,1037.356069
8.1150,109.5355412,118.5447597,1038.383424
8.1200,108.460473,119.0923636,1039.423064
8.1250,107.384384,119.644105,1040.47475
8.1300,106.3047048,120.1978556,1041.538436
8.1350,105.2237854,120.754907,1042.614034
8.1400,104.1416312,121.3137604,1043.700772
8.1450,103.0572384,121.8749787,1044.799172
8.1500,101.9723489,122.4364812,1045.908364
8.1550,100.8860258,122.9978807,1047.028427
8.1600,99.79905155,123.5595928,1048.159346
8.1650,98.71045705,124.1203959,1049.30089
8.1700,97.62114235,124.6808669,1050.452882
8.1750,96.52960857,125.2386409,1051.614788
8.1800,95.43764575,125.7941594,1052.786542
8.1850,94.34522035,126.3477746,1053.967807
8.1900,93.25273137,126.899543,1055.158784
8.1950,92.15894153,127.4474804,1056.358779
8.2000,91.06347399,127.9930142,1057.567852
8.2050,89.96662828,128.53483,1058.78609
8.2100,88.86785025,129.0730677,1060.013087
8.2150,87.76740854,129.6081401,1061.24912
8.2200,86.66654233,130.1399245,1062.49384
8.2250,85.56416183,130.6676066,1063.747234
8.2300,84.45959195,131.1905875,1065.009553
8.2350,83.35350075,131.7099002,1066.280859
8.2400,82.2466588,132.2244078,1067.560865
8.2450,81.13736398,132.7335867,1068.849778
8.2500,80.02631568,133.238071,1070.147649
8.2550,78.91310823,133.7390388,1071.454981
8.2600,77.79807263,134.2344304,1072.771291
8.2650,76.68092203,134.7274019,1074.097385
8.2700,75.56188908,135.2181129,1075.43353
8.2750,74.44130092,135.7048947,1076.779938
8.2800,73.31919226,136.1899827,1078.136414
8.2850,72.19568413,136.6719511,1079.502629
8.2900,71.07253916,137.1531445,1080.878893
8.2950,69.94881466,137.6335648,1082.265495
8.3000,68.82598454,138.1121519,1083.662125
8.3050,67.70524114,138.5903297,1085.068775
8.3100,66.58507387,139.0682576,1086.485535
8.3150,65.4681859,139.5453557,1087.911683
8.3200,64.35349976,140.0218737,1089.347363
8.3250,63.2436853,140.4986164,1090.792608
8.3300,62.13840594,140.9751221,1092.246856
8.3350,61.03870336,141.451147,1093.709541
8.3400,59.94467315,141.9264488,1095.180785
8.3450,58.85839947,142.4009068,1096.659587
8.3500,57.77953076,142.874529,1098.146098
8.3550,56.70979082,143.3480228,1099.640233
8.3600,55.64950087,143.8192277,1101.141141
8.3650,54.59912218,144.2892689,1102.648948
8.3700,53.5595406,144.7566144,1104.162789
8.3750,52.53121111,145.2212582,1105.682509
8.3800,51.5148576,145.6832796,1107.207979
8.3850,50.51082185,146.1427357,1108.739448
8.3900,49.51881986,146.5991127,1110.276739
8.3950,48.53768064,147.052457,1111.82013
8.4000,47.567952,147.5033835,1113.369476
8.4050,46.60887265,147.9513556,1114.924767
8.4100,45.66081157,148.3976614,1116.486096
8.4150,44.7242924,148.8414758,1118.053453
8.4200,43.79839797,149.2832357,1119.626644
8.4250,42.88278161,149.722698,1121.205505
8.4300,41.97703671,150.160697,1122.790371
8.4350,41.07931129,150.5957347,1124.381197
8.4400,40.18986824,151.0286483,1125.978524
8.4450,39.30753326,151.4590081,1127.581656
8.4500,38.43148299,151.8860896,1129.191248
8.4550,37.56217921,152.3101688,1130.80679
8.4600,36.69820647,152.7314001,1132.428675
8.4650,35.83904159,153.1492939,1134.056823
8.4700,34.9829239,153.5623664,1135.69072
8.4750,34.13069555,153.9713689,1137.330662
8.4800,33.28071023,154.3772958,1138.976505
8.4850,32.43410335,154.7778181,1140.62844
8.4900,31.58867047,155.1740453,1142.286554
8.4950,30.74611333,155.5668945,1143.950836
8.5000,29.90692411,155.9525104,1145.620059
8.5050,29.07001322,156.3321601,1147.294925
8.5100,28.23597062,156.7051099,1148.975671
8.5150,27.40472124,157.0709827,1150.661161
8.5200,26.57303443,157.4282681,1152.352194
8.5250,25.74141585,157.7771053,1154.048126
8.5300,24.91041227,158.117738,1155.749193
8.5350,24.07897104,158.4494427,1157.45567
8.5400,23.2469405,158.7714421,1159.166656
8.5450,22.41503919,159.0845408,1160.882687
8.5500,21.58394879,159.3874186,1162.603846
8.5550,20.75323468,159.6801993,1164.329065
8.5600,19.92319033,159.9637584,1166.05975
8.5650,19.09442795,160.2364539,1167.794427
8.5700,18.26687866,160.4980729,1169.533234
8.5750,17.4413632,160.7496087,1171.275886
8.5800,16.61818274,160.9904208,1173.02185
8.5850,15.79873073,161.2221289,1174.7723
8.5900,14.98242474,161.4437111,1176.52666
8.5950,14.1688188,161.6551803,1178.284834
8.6000,13.35789106,161.8565311,1180.046264
8.6050,12.54943821,162.0480699,1181.811709
8.6100,11.74504868,162.2300591,1183.580505
8.6150,10.94488118,162.4017051,1185.352299
8.6200,10.14984662,162.5641658,1187.12735
8.6250,9.360457834,162.7173021,1188.905633
8.6300,8.577775296,162.861325,1190.686482
8.6350,7.802395034,162.9969504,1192.470656
8.6400,7.033865719,163.1246383,1194.257936
8.6450,6.272081819,163.2439737,1196.04781
8.6500,5.518006759,163.3542028,1197.840932
8.6550,4.770360435,163.4548189,1199.63571
8.6600,4.030670481,163.5477964,1201.432336
8.6650,3.297459737,163.6322768,1203.231133
8.6700,2.570852213,163.7074358,1205.031781
8.6750,1.850498661,163.7740109,1206.833736
8.6800,1.136766583,163.831798,1208.636718
8.6850,0.4280277386,163.881762,1210.440758
8.6900,-0.2749257124,163.9237925,1212.246122
8.6950,-0.9725517352,163.9574173,1214.0523
8.7000,-1.664610586,163.9837041,1215.85914
8.7050,-2.351264276,164.0025976,1217.666289
8.7100,-3.033600472,164.0129282,1219.474325
8.7150,-3.711835031,164.0162008,1221.282539
8.7200,-4.386833205,164.010923,1223.09126
8.7250,-5.059213999,163.9968593,1224.900538
8.7300,-5.729680244,163.9746142,1226.710103
8.7350,-6.397559835,163.9454005,1228.520015
8.7400,-7.065160777,163.9074168,1230.32996
8.7450,-7.731236667,163.8609522,1232.139832
8.7500,-8.397229884,163.8062183,1233.949659
8.7550,-9.063889235,163.7429202,1235.75987
8.7600,-9.729856805,163.6709952,1237.569338
8.7650,-10.39436821,163.5912874,1239.378496
8.7700,-11.05641272,163.5031829,1241.187164
8.7750,-11.71687863,163.4067981,1242.995239
8.7800,-12.37474336,163.301215,1244.802145
8.7850,-13.03163682,163.1869165,1246.607476
8.7900,-13.68683906,163.0634246,1248.410259
8.7950,-14.34131436,162.9298829,1250.210925
8.8000,-14.99532112,162.7881675,1252.010061
8.8050,-15.64786393,162.6386286,1253.806263
8.8100,-16.29905019,162.4815329,1255.599327
8.8150,-16.9483564,162.3161039,1257.388909
8.8200,-17.59256146,162.1444261,1259.175012
8.8250,-18.23235431,161.965245,1260.957122
8.8300,-18.86750144,161.779246,1262.7351
8.8350,-19.49719481,161.5863298,1264.508222
8.8400,-20.12037946,161.3882485,1266.2773
8.8450,-20.73627082,161.1853431,1268.042351
8.8500,-21.34518054,160.9779527,1269.802646
8.8550,-21.94500138,160.7664171,1271.558427
8.8600,-22.53552739,160.5511887,1273.308642
8.8650,-23.11671379,160.3322616,1275.053936
8.8700,-23.6872031,160.1104068,1276.794505
8.8750,-24.24763731,159.8849194,1278.529359
8.8800,-24.79836598,159.6558817,1280.259405
8.8850,-25.33975226,159.4231724,1281.983848
8.8900,-25.87144113,159.1872775,1283.703609
8.8950,-26.39160941,158.9481297,1285.417297
8.9000,-26.89859911,158.7076048,1287.125629
8.9050,-27.39307297,158.4639543,1288.827651
8.9100,-27.87505026,158.2181508,1290.524039
8.9150,-28.34445809,157.9706119,1292.215373
8.9200,-28.80134439,157.7216675,1293.901302
8.9250,-29.24729652,157.4706584,1295.580999
8.9300,-29.68110597,157.2177,1297.255367
8.9350,-30.10423012,156.9626498,1298.924015
8.9400,-30.51577924,156.7053003,1300.586375
8.9450,-30.9155242,156.4450034,1302.242352
8.9500,-31.30412155,156.1827254,1303.891548
8.9550,-31.68130176,155.9169704,1305.534053
8.9600,-32.04642938,155.6482411,1307.17037
8.9650,-32.40031319,155.3765454,1308.799518
8.9700,-32.74320875,155.1024677,1310.422188
8.9750,-33.07514043,154.8257243,1312.038817
8.9800,-33.39688523,154.545143,1313.649546
8.9850,-33.70826909,154.2604832,1315.253924
8.9900,-34.01034356,153.973083,1316.852406
8.9950,-34.30228999,153.6822985,1318.444508
9.0000,-34.58528652,153.3881412,1320.031197
9.0050,-34.85910828,153.0913409,1321.612498
9.0100,-35.12458468,152.791507,1323.18838
9.0150,-35.38129598,152.4890558,1324.759248
9.0200,-35.63066105,152.1842945,1326.325113
9.0250,-35.87391736,151.8773942,1327.886393
9.0300,-36.11172604,151.5679799,1329.443026
9.0350,-36.34602685,151.2554282,1330.995511
9.0400,-36.57625743,150.9398883,1332.545139
9.0450,-36.80385595,150.6206256,1334.091513
9.0500,-37.02911955,150.2990741,1335.635088
9.0550,-37.25125005,149.9750914,1337.176019
9.0600,-37.47200822,149.6486857,1338.715399
9.0650,-37.69116558,149.3203403,1340.253543
9.0700,-37.90990249,148.9910718,1341.790659
9.0750,-38.12802956,148.6603074,1343.327118
9.0800,-38.34461232,148.3287393,1344.863453
9.0850,-38.56085216,147.9969229,1346.400105
9.0900,-38.77472315,147.6637853,1347.936848
9.0950,-38.98647762,147.3302737,1349.473638
9.1000,-39.19599689,146.9972062,1351.010329
9.1050,-39.40265546,146.6630554,1352.547604
9.1100,-39.60670298,146.327911,1354.085301
9.1150,-39.80837388,145.9910676,1355.623901
9.1200,-40.00947595,145.6525362,1357.163215
9.1250,-40.20863926,145.3128609,1358.703921
9.1300,-40.40569149,144.9716179,1360.24575
9.1350,-40.60080888,144.6276989,1361.788115
9.1400,-40.79458778,144.2808692,1363.331017
9.1450,-40.98756634,143.9298833,1364.873664
9.1500,-41.1803117,143.5744949,1366.415825
9.1550,-41.37384812,143.2153543,1367.957098
9.1600,-41.56794197,142.8511613,1369.498104
9.1650,-41.76269579,142.4827231,1371.038415
9.1700,-41.95832874,142.109973,1372.57714
9.1750,-42.15374013,141.7332628,1374.115011
9.1800,-42.34906539,141.3533922,1375.651319
9.1850,-42.54409434,140.9714157,1377.185869
9.1900,-42.73799945,140.5874364,1378.718534
9.1950,-42.93101867,140.2025481,1380.249339
9.2000,-43.1235482,139.8166748,1381.777791
9.2050,-43.31371761,139.4316771,1383.304556
9.2100,-43.50079709,139.048098,1384.828156
9.2150,-43.68543292,138.6656179,1386.348493
9.2200,-43.86640284,138.2843013,1387.864607
9.2250,-44.04257099,137.9053976,1389.37668
9.2300,-44.21582916,137.5281876,1390.883777
9.2350,-44.3843786,137.1529885,1392.386067
9.2400,-44.54872569,136.7793583,1393.88267
9.2450,-44.70830483,136.407717,1395.373726
9.2500,-44.86428023,136.0379729,1396.857898
9.2550,-45.01604155,135.6707064,1398.336203
9.2600,-45.16522536,135.3052876,1399.807607
9.2650,-45.30989248,134.9418118,1401.272204
9.2700,-45.44959817,134.5806248,1402.729123
9.2750,-45.58417786,134.2209264,1404.178322
9.2800,-45.71431219,133.864702,1405.619731
9.2850,-45.83939713,133.5099645,1407.052663
9.2900,-45.95928583,133.1564243,1408.476844
9.2950,-46.07467357,132.8045653,1409.891887
9.3000,-46.18524929,132.4541471,1411.297995
9.3050,-46.29184425,132.1046753,1412.695256
9.3100,-46.39492422,131.7560801,1414.083077
9.3150,-46.4945141,131.408139,1415.462538
9.3200,-46.59050117,131.0612342,1416.833295
9.3250,-46.68145925,130.7149584,1418.195408
9.3300,-46.76640829,130.3693372,1419.549468
9.3350,-46.84408879,130.0233197,1420.894609
9.3400,-46.91503287,129.6771444,1422.230395
9.3450,-46.97762663,129.3309923,1423.557332
9.3500,-47.03260451,128.98356,1424.875883
9.3550,-47.08070419,128.6344268,1426.186155
9.3600,-47.12127638,128.2823356,1427.488201
9.3650,-47.15469044,127.9267972,1428.78156
9.3700,-47.18141085,127.5659381,1430.066084
9.3750,-47.20076276,127.2002189,1431.341955
9.3800,-47.214075,126.8288045,1432.609184
9.3850,-47.22034963,126.4509109,1433.868187
9.3900,-47.22100799,126.0660131,1435.119403
9.3950,-47.21590807,125.6745442,1436.363212
9.4000,-47.20567803,125.2757121,1437.59976
9.4050,-47.19099535,124.8691226,1438.828688
9.4100,-47.17219799,124.4550799,1440.05097
9.4150,-47.14851523,124.03573,1441.266936
9.4200,-47.11976393,123.6088628,1442.476557
9.4250,-47.08652595,123.1759841,1443.679714
9.4300,-47.04872284,122.7374697,1444.87686
9.4350,-47.00682155,122.2932362,1446.068962
9.4400,-46.96169562,121.8433635,1447.255045
9.4450,-46.91335326,121.3888402,1448.436482
9.4500,-46.86241138,120.9296325,1449.613359
9.4550,-46.8078534,120.4648015,1450.786658
9.4600,-46.75153702,119.9964639,1451.955714
9.4650,-46.69366594,119.5240046,1453.121664
9.4700,-46.63447432,119.0480946,1454.285108
9.4750,-46.57597217,118.5701677,1455.44638
9.4800,-46.51653553,118.090315,1456.605595
9.4850,-46.45626023,117.6078593,1457.76331
9.4900,-46.3952133,117.1232575,1458.918814
9.4950,-46.3333857,116.6378098,1460.072701
9.5000,-46.27084165,116.1505787,1461.225291
9.5050,-46.20824251,115.6624657,1462.376011
9.5100,-46.14462788,115.172715,1463.526343
9.5150,-46.08010937,114.682761,1464.676172
9.5200,-46.01472737,114.1919765,1465.825309
9.5250,-45.94914091,113.7012423,1466.974208
9.5300,-45.8825742,113.2113362,1468.12305
9.5350,-45.81582858,112.7221083,1469.271389
9.5400,-45.74815612,112.2342276,1470.420012
9.5450,-45.68168071,111.7481601,1471.568145
9.5500,-45.61440491,111.2640893,1472.715819
9.5550,-45.54643177,110.7816326,1473.862731
9.5600,-45.47860795,110.3004544,1475.008469
9.5650,-45.41040135,109.8192446,1476.152856
9.5700,-45.34336967,109.3385904,1477.296291
9.5750,-45.27699499,108.8586724,1478.43832
9.5800,-45.21045377,108.3789847,1479.578123
9.5850,-45.14498283,107.9013079,1480.716812
9.5900,-45.08101657,107.4251933,1481.853558
9.5950,-45.01752694,106.9511764,1482.98933
9.6000,-44.95466967,106.4792049,1484.12309
9.6050,-44.8922005,106.0096831,1485.255346
9.6100,-44.82952985,105.5431095,1486.386077
9.6150,-44.76618173,105.0790338,1487.514346
9.6200,-44.70093512,104.6182024,1488.639932
9.6250,-44.63482574,104.1596976,1489.763371
9.6300,-44.56712088,103.7037336,1490.883233
9.6350,-44.49738013,103.2500042,1492.000242
9.6400,-44.42616969,102.799411,1493.114331
9.6450,-44.35304989,102.3517152,1494.225512
9.6500,-44.27600652,101.905947,1495.33264
9.6550,-44.19603111,101.4628049,1496.435763
9.6600,-44.11102456,101.0217666,1497.53389
9.6650,-44.0215131,100.5829518,1498.627325
9.6700,-43.92580489,100.1478099,1499.716237
9.6750,-43.82376436,99.71622872,1500.800169
9.6800,-43.71511114,99.28660116,1501.878941
9.6850,-43.59947022,98.86037372,1502.952328
9.6900,-43.47626768,98.43764911,1504.019821
9.6950,-43.34548699,98.01725158,1505.080499
9.7000,-43.20657094,97.60084383,1506.134423
9.7050,-43.05875957,97.18774468,1507.181995
9.7100,-42.90320986,96.77790791,1508.221751
9.7150,-42.74076941,96.36953512,1509.253493
9.7200,-42.57096602,95.96354965,1510.27708
9.7250,-42.39512998,95.55988871,1511.292793
9.7300,-42.2125334,95.15726518,1512.299532
9.7350,-42.02408323,94.75667505,1513.296929
9.7400,-41.83036712,94.35851732,1514.28543
9.7450,-41.63144186,93.96147428,1515.263288
9.7500,-41.42685391,93.5657136,1516.230278
9.7550,-41.21881601,93.17179142,1517.186868
9.7600,-41.00517799,92.77846399,1518.13236
9.7650,-40.78743101,92.38539602,1519.065603
9.7700,-40.56636853,91.99222201,1519.98657
9.7750,-40.34097252,91.598488,1520.894537
9.7800,-40.11253225,91.20416441,1521.789178
9.7850,-39.8816678,90.80887472,1522.670427
9.7900,-39.64933691,90.41333648,1523.538634
9.7950,-39.41505185,90.01693087,1524.393949
9.8000,-39.17881929,89.62160543,1525.237233
9.8050,-38.94093821,89.22635936,1526.068227
9.8100,-38.70213087,88.83158203,1526.886546
9.8150,-38.46204052,88.43714838,1527.69246
9.8200,-38.22061111,88.04484513,1528.486883
9.8250,-37.97937524,87.65306059,1529.270093
9.8300,-37.73680645,87.26269548,1530.042638
9.8350,-37.49360206,86.87414687,1530.804152
9.8400,-37.25079666,86.48754183,1531.555998
9.8450,-37.00686557,86.10263843,1532.298154
9.8500,-36.76247973,85.71837193,1533.03131
9.8550,-36.51885433,85.33524197,1533.755122
9.8600,-36.27371604,84.95474374,1534.470405
9.8650,-36.02854953,84.576083,1535.177791
9.8700,-35.78285495,84.19835116,1535.876885
9.8750,-35.53661991,83.82211546,1536.568811
9.8800,-35.29000197,83.44735532,1537.253606
9.8850,-35.04232816,83.07334624,1537.93123
9.8900,-34.79339595,82.69848277,1538.601607
9.8950,-34.54127139,82.32373335,1539.264731
9.9000,-34.28605717,81.94870537,1539.920729
9.9050,-34.02623153,81.57236081,1540.568694
9.9100,-33.76122459,81.19511043,1541.209179
9.9150,-33.49146926,80.81596536,1541.841954
9.9200,-33.21602894,80.4336948,1542.466722
9.9250,-32.93357953,80.04985048,1543.083338
9.9300,-32.64343866,79.66356377,1543.692459
9.9350,-32.34489713,79.27552682,1544.29286
9.9400,-32.03551485,78.88362774,1544.883441
9.9450,-31.71581539,78.48790603,1545.464103
9.9500,-31.38663436,78.08798387,1546.035107
9.9550,-31.04671539,77.68362636,1546.595912
9.9600,-30.69896892,77.27506451,1547.147301
9.9650,-30.34331294,76.86172886,1547.689604
9.9700,-29.98119544,76.44223208,1548.222628
9.9750,-29.61512804,76.01655615,1548.747653
9.9800,-29.24586835,75.58657258,1549.265302
9.9850,-28.87422721,75.14997873,1549.775238
9.9900,-28.50105384,74.70851407,1550.27859
9.9950,-28.12685724,74.26256004,1550.775605
10.0000,-27.7521044,73.81115049,1551.266844
10.0050,-27.37942599,73.35549774,1551.75283
10.0100,-27.00757251,72.89765598,1552.234967
10.0150,-26.6396019,72.43690649,1552.713927
10.0200,-26.27575718,71.97528652,1553.190472
10.0250,-25.91690944,71.51257459,1553.664817
10.0300,-25.5641209,71.05089857,1554.138012
10.0350,-25.21844962,70.59040494,1554.610446
10.0400,-24.87982415,70.13129957,1555.08213
10.0450,-24.54924076,69.67409955,1555.553788
10.0500,-24.22821017,69.22021793,1556.025927
10.0550,-23.91577298,68.76997509,1556.497738
10.0600,-23.61523379,68.32429573,1556.970083
10.0650,-23.32542911,67.88326982,1557.443232
10.0700,-23.04597125,67.44785717,1557.916415
10.0750,-22.77760726,67.01849859,1558.389905
10.0800,-22.5185641,66.59500958,1558.863637
10.0850,-22.26884225,66.17846808,1559.337012
10.0900,-22.02738326,65.76933067,1559.809788
10.0950,-21.79475155,65.36699931,1560.281244
10.1000,-21.57157975,64.97053397,1560.751341
10.1050,-21.35699256,64.58108187,1561.22038
10.1100,-21.15143447,64.19922368,1561.688903
10.1150,-20.95438047,63.82558683,1562.156927
10.1200,-20.76578619,63.46032705,1562.62498
10.1250,-20.58292246,63.10404041,1563.092091
10.1300,-20.40774483,62.7561966,1563.558654
10.1350,-20.23978768,62.41615709,1564.02537
10.1400,-20.0777087,62.08433786,1564.491188
10.1450,-19.92221812,61.76063362,1564.957002
10.1500,-19.77314919,61.4469722,1565.423608
10.1550,-19.62986245,61.14263821,1565.891056
10.1600,-19.49358803,60.84604059,1566.359186
10.1650,-19.36403009,60.55820769,1566.8279
10.1700,-19.24012635,60.27923068,1567.296681
10.1750,-19.12270961,60.00779109,1567.765116
10.1800,-19.01169205,59.74329073,1568.2339
10.1850,-18.90776993,59.48540081,1568.7023
10.1900,-18.80968585,59.23331108,1569.17007
10.1950,-18.72059689,58.9861685,1569.637309
10.2000,-18.63968447,58.74251745,1570.104095
10.2050,-18.56616601,58.50455353,1570.570279
10.2100,-18.49967834,58.26957634,1571.034638
10.2150,-18.44008522,58.03805466,1571.497264
10.2200,-18.38905893,57.80940564,1571.958253
10.2250,-18.34585553,57.58175992,1572.416783
10.2300,-18.30941123,57.35494998,1572.872373
10.2350,-18.28000329,57.12713183,1573.325305
10.2400,-18.25915173,56.89917725,1573.776335
10.2450,-18.24666072,56.66955028,1574.22497
10.2500,-18.24105441,56.4381188,1574.671031
10.2550,-18.2427255,56.2036735,1575.11464
10.2600,-18.25177938,55.96566926,1575.555218
10.2650,-18.26588003,55.72357907,1575.99155
10.2700,-18.28583677,55.47668756,1576.424666
10.2750,-18.3102417,55.22453005,1576.853251
10.2800,-18.33882896,54.96567183,1577.276341
10.2850,-18.371784,54.70108458,1577.694729
10.2900,-18.40880716,54.42926215,1578.107779
10.2950,-18.44971124,54.1494814,1578.515099
10.3000,-18.49505933,53.86100631,1578.91585
10.3050,-18.54421117,53.56416048,1579.310377
10.3100,-18.59789568,53.25727384,1579.697008
10.3150,-18.65287551,52.94196225,1580.075
10.3200,-18.71046531,52.61631087,1580.443945
10.3250,-18.77044693,52.28059985,1580.803952
10.3300,-18.8338572,51.93476392,1581.154508
10.3350,-18.89869305,51.5801579,1581.495276
10.3400,-18.9652029,51.21556014,1581.824852
10.3450,-19.03329466,50.84402441,1582.144062
10.3500,-19.10188881,50.46495943,1582.451701
10.3550,-19.1714891,50.07938379,1582.747472
10.3600,-19.24083963,49.68770623,1583.030218
10.3650,-19.31046092,49.29142266,1583.300201
10.3700,-19.38066883,48.89163185,1583.557952
10.3750,-19.45236698,48.48821543,1583.802487
10.3800,-19.52567223,48.08243977,1584.033697
10.3850,-19.6012499,47.67438056,1584.251611
10.3900,-19.67893748,47.26529938,1584.456104
10.3950,-19.75772947,46.85908925,1584.647838
10.4000,-19.83907035,46.45601491,1584.826716
10.4050,-19.92235154,46.05700152,1584.992671
10.4100,-20.00762517,45.66408683,1585.145616
10.4150,-20.09440067,45.2798959,1585.286221
10.4200,-20.18236951,44.90462737,1585.413216
10.4250,-20.27251534,44.53906567,1585.526606
10.4300,-20.36380278,44.18552471,1585.625933
10.4350,-20.45693673,43.84479186,1585.710893
10.4400,-20.55237623,43.51795479,1585.78131
10.4450,-20.65168094,43.20498508,1585.837381
10.4500,-20.75375326,42.90770204,1585.877916
10.4550,-20.85988152,42.626984,1585.902951
10.4600,-20.97066465,42.36319713,1585.912358
10.4650,-21.08650772,42.11709629,1585.905294
10.4700,-21.20842886,41.89002142,1585.883059
10.4750,-21.3371941,41.68279162,1585.844995
10.4800,-21.47363676,41.4952868,1585.79024
10.4850,-21.61705571,41.32925221,1585.718865
10.4900,-21.76954488,41.18636625,1585.631856
10.4950,-21.93093528,41.06612785,1585.52843
10.5000,-22.10202398,40.96933834,1585.408496
10.5050,-22.28380546,40.89397613,1585.272153
10.5100,-22.47877131,40.84238796,1585.120198
10.5150,-22.68522824,40.81467328,1584.952387
10.5200,-22.90242163,40.8104366,1584.768284
10.5250,-23.13107294,40.82857799,1584.567311
10.5300,-23.37289082,40.86899697,1584.350467
10.5350,-23.62784204,40.9322977,1584.117492
10.5400,-23.89373577,41.01705431,1583.867276
10.5450,-24.17078444,41.12389478,1583.600797
10.5500,-24.46069206,41.25215669,1583.317253
10.5550,-24.76260005,41.40146381,1583.017232
10.5600,-25.07698888,41.56923488,1582.700651
10.5650,-25.40519019,41.75526869,1582.367685
10.5700,-25.74730945,41.9596514,1582.018097
10.5750,-26.10282101,42.18188752,1581.651513
10.5800,-26.47274315,42.41933857,1581.26834
10.5850,-26.85855208,42.67154667,1580.868347
10.5900,-27.26054959,42.93696299,1580.452036
10.5950,-27.67917797,43.21681618,1580.019972
10.6000,-28.11408274,43.50988449,1579.572376
10.6050,-28.56433151,43.81505813,1579.108391
10.6100,-29.02926917,44.13206071,1578.629037
10.6150,-29.51199497,44.45887766,1578.135388
10.6200,-30.01057642,44.79801546,1577.627443
10.6250,-30.52311775,45.14844599,1577.104063
10.6300,-31.04949189,45.5101806,1576.565816
10.6350,-31.59031113,45.88294149,1576.012948
10.6400,-32.14449487,46.26802564,1575.44615
10.6450,-32.71174725,46.66241114,1574.86418
10.6500,-33.29029934,47.06758397,1574.267724
10.6550,-33.87967177,47.48243111,1573.656944
10.6600,-34.47956161,47.90645678,1573.032107
10.6650,-35.08888121,48.33936626,1572.391814
10.6700,-35.70759431,48.77971093,1571.736306
10.6750,-36.33429243,49.22723442,1571.065678
10.6800,-36.971034,49.68243641,1570.380714
10.6850,-37.6153061,50.14613614,1569.681259
10.6900,-38.26797083,50.61745188,1568.967117
10.6950,-38.92838751,51.0948013,1568.238445
10.7000,-39.59474102,51.57961714,1567.494825
10.7050,-40.26825303,52.07147045,1566.736605
10.7100,-40.94954349,52.56828608,1565.963694
10.7150,-41.63742186,53.06897373,1565.17561
10.7200,-42.33253062,53.57416066,1564.373048
10.7250,-43.0357662,54.08451579,1563.556675
10.7300,-43.74714041,54.59891145,1562.726649
10.7350,-44.46718373,55.1187259,1561.884026
10.7400,-45.1956089,55.64292626,1561.029044
10.7450,-45.92969561,56.17350397,1560.161138
10.7500,-46.67091947,56.709763,1559.280878
10.7550,-47.41829646,57.25185358,1558.388692
10.7600,-48.17052154,57.8010747,1557.484482
10.7650,-48.92663024,58.35686089,1556.569004
10.7700,-49.68671672,58.91771075,1555.64178
10.7750,-50.4490944,59.48382923,1554.702811
10.7800,-51.21320897,60.05559531,1553.752687
10.7850,-51.97925698,60.63211902,1552.792354
10.7900,-52.74651424,61.21348371,1551.82097
10.7950,-53.51484043,61.79778171,1550.839041
10.8000,-54.28359506,62.38595914,1549.846695
10.8050,-55.05287787,62.97683987,1548.84439
10.8100,-55.82255082,63.56878944,1547.832563
10.8150,-56.59437525,64.16060367,1546.810926
10.8200,-57.36995887,64.7509402,1545.780241
10.8250,-58.14950209,65.34104665,1544.741366
10.8300,-58.93420116,65.92867601,1543.694284
10.8350,-59.72490642,66.51414431,1542.639986
10.8400,-60.52308837,67.09732299,1541.579482
10.8450,-61.328424,67.67623553,1540.512638
10.8500,-62.13900561,68.25230809,1539.440614
10.8550,-62.95544706,68.82301063,1538.362682
10.8600,-63.77596698,69.39194511,1537.279521
10.8650,-64.60146747,69.95767355,1536.191641
10.8700,-65.43147087,70.5190634,1535.09891
10.8750,-66.26692066,71.07563957,1534.002387
10.8800,-67.1064348,71.62860959,1532.902937
10.8850,-67.94902257,72.1782926,1531.800549
10.8900,-68.793667,72.72497669,1530.695198
10.8950,-69.63921572,73.2671079,1529.586834
10.9000,-70.48605038,73.8053479,1528.476111
10.9050,-71.33561188,74.33955073,1527.363262
10.9100,-72.18753796,74.86900127,1526.248451
10.9150,-73.03933715,75.39488648,1525.131592
10.9200,-73.89211172,75.91479008,1524.012853
10.9250,-74.74680835,76.42839489,1522.891878
10.9300,-75.60223863,76.93590373,1521.769249
10.9350,-76.45806654,77.43646131,1520.645194
10.9400,-77.31409475,77.92915309,1519.520338
10.9450,-78.1703764,78.41479409,1518.395105
10.9500,-79.02876444,78.89254829,1517.269258
10.9550,-79.88791269,79.36433332,1516.143095
10.9600,-80.74766168,79.83049345,1515.016937
10.9650,-81.60772469,80.29169405,1513.891263
10.9700,-82.46698508,80.74741246,1512.764567
10.9750,-83.32514141,81.19959519,1511.638669
10.9800,-84.17994909,81.64817807,1510.512161
10.9850,-85.03240216,82.09423744,1509.385641
10.9900,-85.88177548,82.53760754,1508.259064
10.9950,-86.72700327,82.97759803,1507.131486
11.0000,-87.56878644,83.41385222,1506.003312
11.0050,-88.40645973,83.84665447,1504.874476
11.0100,-89.23842117,84.27663873,1503.744261
11.0150,-90.06619281,84.70389907,1502.612691
11.0200,-90.88940811,85.1272317,1501.479761
11.0250,-91.70604376,85.5477601,1500.345385
11.0300,-92.51594821,85.96662026,1499.208433
11.0350,-93.31723504,86.38293061,1498.068264
11.0400,-94.11009245,86.79806732,1496.924811
11.0450,-94.89533865,87.21120394,1495.777322
11.0500,-95.67309924,87.62112753,1494.625134
11.0550,-96.44233172,88.02935541,1493.468496
11.0600,-97.20361315,88.43544572,1492.306396
11.0650,-97.95707681,88.83975989,1491.137186
11.0700,-98.70260459,89.24292785,1489.960377
11.0750,-99.43988055,89.64434358,1488.775144
11.0800,-100.1698462,90.04292783,1487.581966
11.0850,-100.8926422,90.43858362,1486.37952
11.0900,-101.6079499,90.83080275,1485.168614
11.0950,-102.3155862,91.21979662,1483.949478
11.1000,-103.0168613,91.60519626,1482.721
11.1050,-103.7119477,91.98726637,1481.482764
11.1100,-104.4008742,92.36530419,1480.23487
11.1150,-105.083782,92.73993506,1478.977795
11.1200,-105.7602227,93.11063669,1477.710703
11.1250,-106.4309395,93.47849417,1476.433625
11.1300,-107.0949992,93.84440561,1475.14582
11.1350,-107.7514085,94.20927537,1473.846817
11.1400,-108.4014115,94.57181729,1472.536067
11.1450,-109.0446694,94.93333767,1471.213764
11.1500,-109.6827674,95.29265197,1469.879573
11.1550,-110.3149049,95.65242965,1468.533254
11.1600,-110.9437331,96.01111571,1467.175237
11.1650,-111.5688085,96.36809177,1465.805229
11.1700,-112.1889332,96.72537446,1464.423331
11.1750,-112.8042246,97.08224088,1463.029862
11.1800,-113.414652,97.43810016,1461.623045
11.1850,-114.0195249,97.79258807,1460.203716
11.1900,-114.6186405,98.14478198,1458.77064
11.1950,-115.2130611,98.49491763,1457.325382
11.2000,-115.8021153,98.84185311,1455.868
11.2050,-116.3842904,99.18473782,1454.398205
11.2100,-116.959425,99.52340466,1452.915529
11.2150,-117.527527,99.85680458,1451.419842
11.2200,-118.0886508,100.1841705,1449.912245
11.2250,-118.6424728,100.5070722,1448.394066
11.2300,-119.1903037,100.8221698,1446.864152
11.2350,-119.7328545,101.128751,1445.323272
11.2400,-120.2700494,101.4276779,1443.77137
11.2450,-120.8016335,101.7191008,1442.208689
11.2500,-121.3280571,102.00254,1440.635688
11.2550,-121.849813,102.2769587,1439.051192
11.2600,-122.3670524,102.5419954,1437.454979
11.2650,-122.8794583,102.7984169,1435.84697
11.2700,-123.3873694,103.0471149,1434.228297
11.2750,-123.8889865,103.2870435,1432.597054
11.2800,-124.3860218,103.5200759,1430.954144
11.2850,-124.8772154,103.7440808,1429.298602
11.2900,-125.3620696,103.9614083,1427.630995
11.2950,-125.8415235,104.1719936,1425.950941
11.3000,-126.314673,104.3780816,1424.257577
11.3050,-126.7810227,104.5788034,1422.550781
11.3100,-127.2405572,104.7765517,1420.829914
11.3150,-127.6921854,104.9713043,1419.094651
11.3200,-128.134566,105.1637857,1417.344165
11.3250,-128.5687288,105.3547227,1415.578095
11.3300,-128.9942094,105.5423445,1413.796701
11.3350,-129.409746,105.7272742,1411.998943
11.3400,-129.815752,105.9090829,1410.184045
11.3450,-130.2122002,106.0867761,1408.352155
11.3500,-130.5977581,106.2615221,1406.502483
11.3550,-130.972503,106.4312953,1404.634203
11.3600,-131.3369908,106.5965376,1402.747444
11.3650,-131.6918964,106.7564212,1400.842008
11.3700,-132.0358777,106.912369,1398.917432
11.3750,-132.3711452,107.0645959,1396.974347
11.3800,-132.6963501,107.2154161,1395.011158
11.3850,-133.01201,107.3635513,1393.028271
11.3900,-133.3174866,107.5093758,1391.024612
11.3950,-133.614636,107.65203,1389.000351
11.4000,-133.9025379,107.7923861,1386.957027
11.4050,-134.1805343,107.9316338,1384.894415
11.4100,-134.4476399,108.0700281,1382.812567
11.4150,-134.7034569,108.2068821,1380.711876
11.4200,-134.9476647,108.3433522,1378.592904
11.4250,-135.1798061,108.4794373,1376.454988
11.4300,-135.4003816,108.6157933,1374.29945
11.4350,-135.6109109,108.7503191,1372.127409
11.4400,-135.8097783,108.8850884,1369.9385
11.4450,-135.9978735,109.0200917,1367.732338
11.4500,-136.1746651,109.1554822,1365.509363
11.4550,-136.3416433,109.2901848,1363.27079
11.4600,-136.4965295,109.4237827,1361.017091
11.4650,-136.6396038,109.5566491,1358.749197
11.4700,-136.77082,109.6870571,1356.467365
11.4750,-136.8900833,109.816039,1354.171711
11.4800,-136.9971484,109.9436834,1351.863848
11.4850,-137.0912627,110.0709649,1349.543775
11.4900,-137.1724482,110.198553,1347.212252
11.4950,-137.2395647,110.3247247,1344.869568
11.5000,-137.2910337,110.4493653,1342.515904
11.5050,-137.3261291,110.5737759,1340.152127
11.5100,-137.3459871,110.6966299,1337.779999
11.5150,-137.3507891,110.8169615,1335.399871
11.5200,-137.3403591,110.93464,1333.011874
11.5250,-137.3158216,111.0470532,1330.617536
11.5300,-137.2774077,111.154071,1328.218569
11.5350,-137.2239545,111.2550779,1325.815019
11.5400,-137.1554355,111.3490018,1323.408167
11.5450,-137.0722061,111.4349352,1320.9984
11.5500,-136.9734498,111.5131346,1318.586664
11.5550,-136.8598551,111.5827699,1316.175081
11.5600,-136.7292728,111.6445201,1313.763934
11.5650,-136.5822154,111.6979297,1311.353552
11.5700,-136.4176953,111.7429805,1308.943639
11.5750,-136.2372425,111.7806104,1306.534955
11.5800,-136.0397348,111.8098804,1304.127745
11.5850,-135.8256129,111.8324444,1301.72284
11.5900,-135.5962221,111.8465439,1299.320368
11.5950,-135.3509104,111.8534695,1296.921249
11.6000,-135.0903695,111.8510451,1294.526438
11.6050,-134.8145285,111.8410059,1292.135939
11.6100,-134.5232758,111.8202186,1289.751448
11.6150,-134.2173785,111.7889174,1287.372934
11.6200,-133.898763,111.7472075,1285.001271
11.6250,-133.5678685,111.6945927,1282.636417
11.6300,-133.2236387,111.633254,1280.278341
11.6350,-132.8669127,111.5637496,1277.927695
11.6400,-132.497041,111.4860054,1275.584506
11.6450,-132.1142956,111.401555,1273.248817
11.6500,-131.7193089,111.3105912,1270.921737
11.6550,-131.3130495,111.2140812,1268.602436
11.6600,-130.8964352,111.1104931,1266.291067
11.6650,-130.4697638,111.0018687,1263.988276
11.6700,-130.0341275,110.8874051,1261.693966
11.6750,-129.5892185,110.7678865,1259.407639
11.6800,-129.1362394,110.6436443,1257.130254
11.6850,-128.6746205,110.5153754,1254.861169
11.6900,-128.2045175,110.3836772,1252.600823
11.6950,-127.7244998,110.2508308,1250.348982
11.7000,-127.2342667,110.1164471,1248.104334
11.7050,-126.7347302,109.98052,1245.867156
11.7100,-126.2250963,109.8458215,1243.637091
11.7150,-125.7057593,109.7130828,1241.413953
11.7200,-125.1752426,109.5845516,1239.197293
11.7250,-124.6349676,109.4587457,1236.988398
11.7300,-124.0831619,109.337123,1234.787072
11.7350,-123.5184897,109.2198455,1232.592391
11.7400,-122.9425225,109.106016,1230.405598
11.7450,-122.3545872,108.9954207,1228.227765
11.7500,-121.7548097,108.8885276,1226.058811
11.7550,-121.14203,108.7840064,1223.898392
11.7600,-120.5164318,108.6815338,1221.747062
11.7650,-119.8770957,108.5819953,1219.605241
11.7700,-119.2248084,108.485309,1217.47323
11.7750,-118.5586654,108.390742,1215.351562
11.7800,-117.8782988,108.2986752,1213.240098
11.7850,-117.1845559,108.2070142,1211.139647
11.7900,-116.4767716,108.1157607,1209.050641
11.7950,-115.7547889,108.0251057,1206.972842
11.8000,-115.0196097,107.9355437,1204.90721
11.8050,-114.2722901,107.8445991,1202.854715
11.8100,-113.5115615,107.7541766,1200.815614
11.8150,-112.7364408,107.6630667,1198.790391
11.8200,-111.9474105,107.5709578,1196.779654
11.8250,-111.143751,107.4774703,1194.783061
11.8300,-110.3255715,107.3841715,1192.802288
11.8350,-109.4927124,107.2908597,1190.836998
11.8400,-108.6459384,107.1984018,1188.88763
11.8450,-107.7851953,107.1065214,1186.954194
11.8500,-106.9120582,107.0144316,1185.037683
11.8550,-106.0258051,106.9220681,1183.137201
11.8600,-105.1293065,106.8292008,1181.253503
11.8650,-104.2234907,106.7345665,1179.38675
11.8700,-103.3095634,106.6378467,1177.537067
11.8750,-102.3879091,106.5382726,1175.704397
11.8800,-101.4604265,106.4343101,1173.889196
11.8850,-100.5284688,106.325776,1172.09243
11.8900,-99.59148192,106.2126369,1170.31337
11.8950,-98.65139381,106.0946788,1168.55245
11.9000,-97.70910434,105.9706005,1166.809492
11.9050,-96.76637998,105.8404982,1165.084955
11.9100,-95.82461434,105.7062408,1163.378158
11.9150,-94.88394412,105.5675789,1161.689259
11.9200,-93.944231,105.4250643,1160.017448
11.9250,-93.00596106,105.2786384,1158.362617
11.9300,-92.07072435,105.1282672,1156.724476
11.9350,-91.13863568,104.9732396,1155.101585
11.9400,-90.2125778,104.8143185,1153.494332
11.9450,-89.29180027,104.650583,1151.901646
11.9500,-88.37734197,104.4818902,1150.322825
11.9550,-87.46868794,104.3073363,1148.757832
11.9600,-86.56581983,104.1277388,1147.207037
11.9650,-85.66902188,103.9429283,1145.670029
11.9700,-84.77871444,103.7522394,1144.146914
11.9750,-83.89409352,103.5573721,1142.63764
11.9800,-83.01416167,103.3570117,1141.141347
11.9850,-82.13809632,103.1534508,1139.658135
11.9900,-81.26509512,102.947126,1138.186932
11.9950,-80.39368659,102.7385769,1136.726936
12.0000,-79.52380479,102.5284786,1135.278178
12.0050,-78.65534971,102.3166017,1133.840319
12.0100,-77.78793921,102.1030389,1132.412731
12.0150,-76.92076207,101.8865078,1130.994585
12.0200,-76.0544186,101.6649613,1129.585661
12.0250,-75.18876741,101.4389213,1128.186047
12.0300,-74.32569424,101.2058408,1126.795527
12.0350,-73.46544677,100.9659209,1125.414671
12.0400,-72.60764926,100.7195956,1124.043326
12.0450,-71.7526453,100.4655683,1122.680992
12.0500,-70.90093388,100.2027491,1121.327854
12.0550,-70.05237558,99.93409433,1119.984407
12.0600,-69.20528625,99.65961107,1118.649518
12.0650,-68.35990976,99.37786793,1117.322965
12.0700,-67.51561771,99.09058099,1116.004967
12.0750,-66.67174103,98.79702798,1114.694598
12.0800,-65.82824449,98.49702159,1113.392524
12.0850,-64.98293258,98.19155267,1112.097263
12.0900,-64.1379231,97.88029562,1110.809917
12.0950,-63.29185656,97.56374479,1109.529716
12.1000,-62.44386454,97.24211167,1108.256106
12.1050,-61.59183953,96.91617732,1106.988287
12.1100,-60.73425097,96.58598632,1105.725236
12.1150,-59.87222118,96.25320711,1104.467291
12.1200,-59.00428882,95.91893255,1103.21431
12.1250,-58.13055935,95.58444697,1101.966493
12.1300,-57.24908745,95.24914596,1100.72249
12.1350,-56.36090838,94.91461759,1099.483281
12.1400,-55.46540975,94.57999039,1098.247786
12.1450,-54.5626086,94.24616042,1097.016399
12.1500,-53.65144427,93.91439716,1095.788648
12.1550,-52.73294866,93.5832165,1094.564493
12.1600,-51.80571018,93.25274165,1093.343816
12.1650,-50.86974254,92.92461658,1092.127092
12.1700,-49.92607391,92.59744759,1090.914728
12.1750,-48.97558659,92.2715484,1089.707497
12.1800,-48.01741172,91.94756942,1088.505562
12.1850,-47.05118907,91.62512482,1087.308491
12.1900,-46.07708572,91.30491335,1086.117181
12.1950,-45.09538571,90.98536881,1084.931559
12.2000,-44.10548067,90.66847351,1083.75164
12.2050,-43.10769845,90.35256986,1082.577383
12.2100,-42.10120889,90.03697948,1081.408209
12.2150,-41.08655532,89.72206427,1080.244478
12.2200,-40.06453184,89.40677963,1079.08637
12.2250,-39.03353837,89.09136839,1077.932958
12.2300,-37.99404408,88.77617922,1076.78451
12.2350,-36.94619369,88.45982298,1075.640936
12.2400,-35.88771989,88.1435058,1074.502069
12.2450,-34.81951568,87.82718744,1073.368089
12.2500,-33.74127804,87.51050451,1072.239339
12.2550,-32.65312038,87.19460399,1071.115691
12.2600,-31.55311998,86.87848692,1069.996203
12.2650,-30.44230979,86.56200526,1068.881572
12.2700,-29.32115606,86.24391242,1067.771709
12.2750,-28.18844457,85.92287155,1066.666337
12.2800,-27.04444177,85.59865269,1065.566053
12.2850,-25.88945364,85.27033898,1064.471278
12.2900,-24.72324839,84.93730874,1063.382237
12.2950,-23.54461679,84.59921163,1062.298992
12.3000,-22.35385876,84.25460086,1061.221762
12.3050,-21.14946538,83.9036642,1060.150434
12.3100,-19.93110397,83.5448499,1059.085249
12.3150,-18.69660795,83.17940702,1058.02603
12.3200,-17.44780732,82.80848387,1056.974294
12.3250,-16.18253561,82.42999736,1055.928754
12.3300,-14.89925447,82.04576408,1054.889659
12.3350,-13.5983508,81.65418468,1053.856863
12.3400,-12.28045035,81.25398191,1052.830333
12.3450,-10.94517885,80.84580151,1051.810051
12.3500,-9.59417782,80.42892983,1050.796648
12.3550,-8.227285449,80.00144043,1049.789508
12.3600,-6.84632438,79.56364226,1048.789417
12.3650,-5.453526868,79.11545404,1047.796959
12.3700,-4.048062356,78.65467225,1046.811178
12.3750,-2.632893183,78.18238213,1045.833572
12.3800,-1.207457744,77.6980543,1044.863296
12.3850,0.2255387405,77.20118432,1043.901513
12.3900,1.666881693,76.69211128,1042.947934
12.3950,3.114892825,76.17017298,1042.003254
12.4000,4.569513,75.63577332,1041.067364
12.4050,6.027922969,75.08923135,1040.141327
12.4100,7.489584048,74.53029924,1039.225303
12.4150,8.954698281,73.95885379,1038.319372
12.4200,10.42175627,73.37396496,1037.423694
12.4250,11.89162768,72.77573386,1036.537892
12.4300,13.363799,72.16573041,1035.662271
12.4350,14.83748722,71.54269709,1034.796648
12.4400,16.31313216,70.90843718,1033.941244
12.4450,17.78925057,70.26238672,1033.096196
12.4500,19.26619725,69.60344029,1032.261084
12.4550,20.74291386,68.93505282,1031.436517
12.4600,22.2180628,68.25662161,1030.622264
12.4650,23.6905847,67.56878142,1029.818572
12.4700,25.1580685,66.87245412,1029.025784
12.4750,26.62007073,66.16963409,1028.244095
12.4800,28.0751073,65.45917291,1027.473339
12.4850,29.52326917,64.74100435,1026.712954
12.4900,30.96326612,64.01495111,1025.962895
12.4950,32.39451039,63.28379335,1025.223547
12.5000,33.81560294,62.54585249,1024.494504
12.5050,35.22704358,61.8030759,1023.775686
12.5100,36.62712321,61.05629163,1023.067437
12.5150,38.01384569,60.30691786,1022.37025
12.5200,39.38801094,59.55492454,1021.683456
12.5250,40.74755561,58.80221833,1021.007948
12.5300,42.0917979,58.04791668,1020.343423
12.5350,43.42027014,57.29455456,1019.690264
12.5400,44.7312427,56.54118062,1019.048461
12.5450,46.02632244,55.78887695,1018.417413
12.5500,47.30424178,55.03704141,1017.796937
12.5550,48.56571755,54.28599862,1017.186791
12.5600,49.80876327,53.53615031,1016.587192
12.5650,51.03552894,52.78675549,1015.997029
12.5700,52.2460391,52.03998396,1015.41668
12.5750,53.43998455,51.29455631,1014.84576
12.5800,54.61761676,50.55195772,1014.284008
12.5850,55.77994586,49.81169296,1013.730856
12.5900,56.92626343,49.07461462,1013.18656
12.5950,58.05543856,48.33996235,1012.650914
12.6000,59.17049944,47.61004133,1012.123606
12.6050,60.27117689,46.88354351,1011.604266
12.6100,61.35951353,46.16053368,1011.092219
12.6150,62.43490509,45.44090484,1010.58738
12.6200,63.49971179,44.72340302,1010.088843
12.6250,64.55389744,44.00886543,1009.596879
12.6300,65.59887505,43.29706152,1009.110958
12.6350,66.63564398,42.58780091,1008.630716
12.6400,67.6654467,41.88039467,1008.155885
12.6450,68.68833703,41.17531875,1007.686604
12.6500,69.70527048,40.47228827,1007.222626
12.6550,70.7176271,39.77182834,1006.763718
12.6600,71.72338488,39.07162093,1006.310171
12.6650,72.72500176,38.37269024,1005.861624
12.6700,73.72094045,37.67328654,1005.418436
12.6750,74.71407913,36.97427708,1004.979978
12.6800,75.7025106,36.27492213,1004.546776
12.6850,76.68624224,35.57453044,1004.118893
12.6900,77.66269858,34.87261165,1003.696677
12.6950,78.63335754,34.16965945,1003.279885
12.7000,79.59770916,33.46372467,1002.868575
12.7050,80.55675941,32.75601233,1002.46272
12.7100,81.51034177,32.04581905,1002.062142
12.7150,82.45926622,31.33429888,1001.666682
12.7200,83.40421676,30.62201825,1001.276322
12.7250,84.3437978,29.91038025,1000.891532
12.7300,85.27761572,29.19840666,1000.512174
12.7350,86.20618643,28.48850977,1000.138421
12.7400,87.12852222,27.78023517,999.770358
12.7450,88.0454393,27.0754563,999.4081101
12.7500,88.95711009,26.37488627,999.0514527
12.7550,89.8632096,25.67797529,998.7004979
12.7600,90.76445434,24.98675672,998.355134
12.7650,91.66072769,24.30109743,998.0153452
12.7700,92.55457086,23.62318394,997.6808131
12.7750,93.44794378,22.95235998,997.3508617
12.7800,94.34028431,22.29218756,997.0258932
12.7850,95.23148836,21.64485117,996.7061053
12.7900,96.12153174,21.01150565,996.3915175
12.7950,97.01282822,20.39105147,996.0812438
12.8000,97.90616482,19.78687317,995.7755041
12.8050,98.80354518,19.19912762,995.4736249
12.8100,99.7057464,18.62971814,995.1755604
12.8150,100.6141516,18.07813142,994.8807683
12.8200,101.5286602,17.54578281,994.5893248
12.8250,102.4494694,17.03228631,994.3009393
12.8300,103.3768545,16.53918654,994.0157958
12.8350,104.311367,16.06528689,993.7335221
12.8400,105.2534452,15.61062802,993.4539832
12.8450,106.2002585,15.17527768,993.1778053
12.8500,107.1529321,14.75925061,992.9046957
12.8550,108.1087585,14.36266814,992.6351241
12.8600,109.0665207,13.98410935,992.3691796
12.8650,110.0231688,13.62375439,992.1074779
12.8700,110.9773189,13.27974658,991.8499752
12.8750,111.9261122,12.95309814,991.5972725
12.8800,112.8685798,12.64083122,991.3493949
12.8850,113.8022992,12.34244465,991.1066796
12.8900,114.7264212,12.05659139,990.8691255
12.8950,115.6387747,11.78284427,990.6371986
12.9000,116.5356433,11.51925426,990.4112408
12.9050,117.4161194,11.26546807,990.1914541
12.9100,118.2767176,11.02221056,989.9784935
12.9150,119.1162849,10.78735191,989.7723268
12.9200,119.934678,10.56134306,989.5729311
12.9250,120.7312305,10.3443704,989.3802935
12.9300,121.5042991,10.13531115,989.1945145
12.9350,122.2544386,9.934489352,989.0155057
12.9400,122.9808012,9.743152702,988.8434415
12.9450,123.6838154,9.560807851,988.678077
12.9500,124.3632343,9.387990334,988.5194641
12.9550,125.0189023,9.223199409,988.3673684
12.9600,125.6521886,9.068709018,988.2215379
12.9650,126.2634959,8.92434824,988.0819438
12.9700,126.8518025,8.792508819,987.9487854
12.9750,127.4155147,8.671011973,987.8221345
12.9800,127.9546575,8.561462062,987.7020175
12.9850,128.4686101,8.464553,987.5885521
12.9900,128.9611546,8.378815651,987.4809782
12.9950,129.4311544,8.305197855,987.3794311
13.0000,129.8781798,8.244131089,987.2839546
13.0050,130.3022717,8.194916063,987.1943053
13.0100,130.7038609,8.156081817,987.1103692
13.0150,131.0825796,8.127488336,987.0320563
13.0200,131.4392329,8.10875213,986.9591453
13.0250,131.7759268,8.098093796,986.8910698
13.0300,132.0934052,8.095470579,986.8277178
13.0350,132.3934866,8.099093845,986.768604
13.0400,132.6766084,8.108192513,986.7135151
13.0450,132.9438128,8.12215188,986.6620973
13.0500,133.1946864,8.140639891,986.6146064
13.0550,133.4315494,8.163420779,986.5704413
13.0600,133.6526285,8.190001988,986.5299411
13.0650,133.8589826,8.220865505,986.4928426
13.0700,134.0506353,8.255623399,986.459144
13.0750,134.2248422,8.294354272,986.4292453
13.0800,134.3833765,8.335905153,986.4027748
13.0850,134.5237121,8.380895658,986.3801695
13.0900,134.6452518,8.428065734,986.3613991
13.0950,134.7461525,8.479586938,986.3471057
13.1000,134.8233498,8.534585899,986.3375801
13.1050,134.873756,8.593086169,986.3333085
13.1100,134.8955935,8.654559561,986.3345531
13.1150,134.8880997,8.719414453,986.3415533
13.1200,134.8500802,8.787765867,986.3544328
13.1250,134.7801362,8.858690661,986.3733997
13.1300,134.6777717,8.931483614,986.3984239
13.1350,134.5421019,9.008221342,986.4297732
13.1400,134.3743228,9.087524554,986.467077
13.1450,134.1747784,9.169036441,986.510268
13.1500,133.9426498,9.252077444,986.5594991
13.1550,133.6793453,9.334282798,986.6144845
13.1600,133.3845432,9.416623827,986.6754842
13.1650,133.0582886,9.496694188,986.7423919
13.1700,132.7007419,9.573735164,986.8153026
13.1750,132.3110518,9.645345522,986.8943912
13.1800,131.8874639,9.711295752,986.9799664
13.1850,131.4306493,9.770723169,987.0719683
13.1900,130.9394603,9.821556216,987.1707038
13.1950,130.4137475,9.863075686,987.2762683
13.2000,129.8535453,9.894748788,987.3888416
13.2050,129.2577957,9.916760037,987.5087725
13.2100,128.6281302,9.928528746,987.6359176
13.2150,127.9648484,9.93202148,987.7707095
13.2200,127.2674881,9.926648404,987.9133677
13.2250,126.5380186,9.915091088,988.0639555
13.2300,125.7779409,9.897909371,988.2225233
13.2350,124.9881661,9.876895387,988.3891874
13.2400,124.171365,9.851936213,988.5635333
13.2450,123.3294227,9.825340024,988.7455847
13.2500,122.4655053,9.798516185,988.9349799
13.2550,121.5804051,9.772939928,989.131787
13.2600,120.6776765,9.749693925,989.33561
13.2650,119.7588422,9.730890519,989.5463032
13.2700,118.8274993,9.716989783,989.7633096
13.2750,117.8864765,9.710140675,989.9863066
13.2800,116.9398846,9.711608133,990.2146298
13.2850,115.9923566,9.721730775,990.4473196
13.2900,115.0449699,9.742308101,990.6844474
13.2950,114.0991222,9.774773942,990.925868
13.3000,113.1573453,9.819228531,991.1710319
13.3050,112.2222833,9.875813995,991.4194962
13.3100,111.2943165,9.946155257,991.6713129
13.3150,110.3739562,10.0290899,991.9264228
13.3200,109.4627674,10.12487026,992.1845492
13.3250,108.5606942,10.23431464,992.44589
13.3300,107.666976,10.3571898,992.7106949
13.3350,106.7809786,10.49550208,992.979378
13.3400,105.9032011,10.64857441,993.2517823
13.3450,105.0326081,10.81649094,993.52838
13.3500,104.168296,11.0006851,993.8092824
13.3550,103.30858,11.20059401,994.0950708
13.3600,102.454543,11.41610817,994.3856537
13.3650,101.6043704,11.64780527,994.6815823
13.3700,100.7553811,11.8959435,994.9836641
13.3750,99.90886537,12.16085288,995.2919145
13.3800,99.06264672,12.44266839,995.6069562
13.3850,98.21579227,12.7408866,995.9291402
13.3900,97.36647229,13.0570623,996.2591643
13.3950,96.51272871,13.38947286,996.5973197
13.4000,95.65432437,13.73914937,996.9441167
13.4050,94.78964298,14.10579284,997.3001003
13.4100,93.91795132,14.48989193,997.6658188
13.4150,93.03837995,14.89048286,998.0414942
13.4200,92.14901067,15.30831042,998.4281065
13.4250,91.24961117,15.74260697,998.825793
13.4300,90.34012806,16.19337966,999.2348424
13.4350,89.4193629,16.65946431,999.6557846
13.4400,88.48691009,17.14155059,1000.089259
13.4450,87.54291606,17.63932808,1000.535334
13.4500,86.58675376,18.15190217,1000.994457
13.4550,85.61801004,18.67959954,1001.466921
13.4600,84.63867047,19.22051684,1001.952259
13.4650,83.64726808,19.77575686,1002.451275
13.4700,82.64622857,20.34472086,1002.963554
13.4750,81.63524476,20.92699403,1003.489215
13.4800,80.61602961,21.52345772,1004.028469
13.4850,79.58806314,22.13268914,1004.581611
13.4900,78.5512793,22.75607671,1005.14897
13.4950,77.50778995,23.39295321,1005.730349
13.5000,76.45710998,24.04402222,1006.326117
13.5050,75.40154186,24.70818372,1006.936184
13.5100,74.33953948,25.38586676,1007.561228
13.5150,73.27055813,26.07669463,1008.201434
13.5200,72.19617165,26.77998266,1008.856702
13.5250,71.11507397,27.49461728,1009.527575
13.5300,70.02632679,28.2203645,1010.214458
13.5350,68.93025716,28.95711254,1010.917454
13.5400,67.82731205,29.70537442,1011.636789
13.5450,66.7169183,30.46313402,1012.372565
13.5500,65.59833074,31.23021952,1013.125232
13.5550,64.47372804,32.00820589,1013.894734
13.5600,63.342372,32.79666925,1014.681452
13.5650,62.2043608,33.59469636,1015.485442
13.5700,61.05975752,34.40193807,1016.306913
13.5750,59.90980689,35.21899935,1017.14569
13.5800,58.75366496,36.04386737,1018.002071
13.5850,57.59140652,36.87682824,1018.87612
13.5900,56.42330539,37.7182331,1019.767749
13.5950,55.25064135,38.56515314,1020.676079
13.6000,54.07262906,39.41829466,1021.601876
13.6050,52.88947985,40.27641823,1022.544595
13.6100,51.70086452,41.1393305,1023.504481
13.6150,50.50800212,42.00670432,1024.480778
13.6200,49.30962489,42.87744665,1025.473976
13.6250,48.10530871,43.75107032,1026.483931
13.6300,46.89554293,44.62735598,1027.510343
13.6350,45.67994566,45.50375453,1028.552906
13.6400,44.45843417,46.38028919,1029.611757
13.6450,43.23188696,47.25630027,1030.68631
13.6500,41.99948935,48.13129178,1031.777213
13.6550,40.76173399,49.00487862,1032.88398
13.6600,39.51743027,49.87656395,1034.006684
13.6650,38.26730676,50.7444606,1035.144941
13.6700,37.01247788,51.60816085,1036.298276
13.6750,35.75115415,52.46697404,1037.466878
13.6800,34.48422981,53.32072231,1038.650392
13.6850,33.2123516,54.16937464,1039.848285
13.6900,31.93656224,55.01229183,1041.059936
13.6950,30.6568109,55.85075422,1042.285661
13.7000,29.37365043,56.68378828,1043.524633
13.7050,28.08773301,57.51243548,1044.776733
13.7100,26.79960897,58.33465233,1046.041146
13.7150,25.50914053,59.15166857,1047.317871
13.7200,24.2172791,59.96273745,1048.605995
13.7250,22.92473957,60.76930882,1049.905646
13.7300,21.63150937,61.57068271,1051.216403
13.7350,20.33850592,62.3661851,1052.537546
13.7400,19.04552094,63.1553767,1053.868614
13.7450,17.75200252,63.93825041,1055.209318
13.7500,16.45863162,64.71545616,1056.559573
13.7550,15.16560558,65.48762303,1057.918869
13.7600,13.8732426,66.2554715,1059.287516
13.7650,12.5835682,67.01817698,1060.664607
