type,name,time_units,begin_time,frequency,count,units
signal_3d,"Noraxon MyoMotion-Trajectories-Body center of mass","s",0.0000,200,5172,"mm"

time,x,y,z
0.0000,1.048681362,16.91013199,1075.17345
0.0050,1.045340177,16.91082981,1075.173902
0.0100,1.041998637,16.91152541,1075.174354
0.0150,1.038656744,16.9122188,1075.174807
0.0200,1.03505056,16.91295058,1075.175298
0.0250,1.031200573,16.91371141,1075.175825
0.0300,1.027130546,16.91449003,1075.176384
0.0350,1.022866559,16.9152734,1075.176973
0.0400,1.018436067,16.91604721,1075.177587
0.0450,1.013866948,16.91679651,1075.178222
0.0500,1.009186749,16.91750641,1075.178875
0.0550,1.004422311,16.91816285,1075.179539
0.0600,0.9995996547,16.9187532,1075.180213
0.0650,0.9947438264,16.91926677,1075.180891
0.0700,0.9898786756,16.91969502,1075.181571
0.0750,0.9850267958,16.92003146,1075.182248
0.0800,0.9802096726,16.92027169,1075.182919
0.0850,0.9754479414,16.92041378,1075.183581
0.0900,0.9707617039,16.92045868,1075.184231
0.0950,0.9661706552,16.92041038,1075.184866
0.1000,0.9616937891,16.9202757,1075.185484
0.1050,0.957348959,16.92006366,1075.186082
0.1100,0.9531526841,16.91978454,1075.186659
0.1150,0.9491201893,16.919449,1075.187213
0.1200,0.9452654924,16.9190673,1075.187741
0.1250,0.9416014841,16.91864891,1075.188244
0.1300,0.9381399849,16.9182021,1075.188718
0.1350,0.9348916633,16.91773372,1075.189163
0.1400,0.9318657235,16.91724899,1075.189577
0.1450,0.9290694536,16.91675156,1075.189959
0.1500,0.9265076598,16.91624372,1075.190307
0.1550,0.9204615447,16.91574049,1075.191133
0.1600,0.9146933939,16.91519596,1075.191918
0.1650,0.9092231975,16.91465933,1075.192665
0.1700,0.9040182089,16.91410343,1075.193373
0.1750,0.8990896276,16.91354505,1075.194039
0.1800,0.8944063034,16.91298606,1075.194673
0.1850,0.889993491,16.91244062,1075.195269
0.1900,0.8858500636,16.91185383,1075.195823
0.1950,0.8819507527,16.91128228,1075.196342
0.2000,0.8782808606,16.91069822,1075.196826
0.2050,0.8748292631,16.9101242,1075.19728
0.2100,0.8715863988,16.90955321,1075.197703
0.2150,0.8685621089,16.90899299,1075.198094
0.2200,0.8657285875,16.90849152,1075.198462
0.2250,0.86304336,16.9080355,1075.19881
0.2300,0.8605249648,16.9075959,1075.199133
0.2350,0.8581458758,16.90716664,1075.199438
0.2400,0.8558588356,16.90680283,1075.199731
0.2450,0.8537434089,16.90648458,1075.200001
0.2500,0.8517347364,16.90623824,1075.200262
0.2550,0.8498260717,16.90607532,1075.200514
0.2600,0.8480323285,16.90602254,1075.200759
0.2650,0.8463069469,16.90604667,1075.201001
0.2700,0.8446614497,16.9061632,1075.201239
0.2750,0.8430660802,16.90635324,1075.201477
0.2800,0.8414656888,16.90662088,1075.201721
0.2850,0.8398912217,16.90696269,1075.201969
0.2900,0.8383407676,16.9073605,1075.202222
0.2950,0.8368016193,16.90782018,1075.202481
0.3000,0.8352844707,16.90835397,1075.202744
0.3050,0.8337765709,16.90889593,1075.203006
0.3100,0.8322598814,16.90947292,1075.203277
0.3150,0.8307652013,16.91007227,1075.203547
0.3200,0.8293253124,16.91072662,1075.203815
0.3250,0.8278998562,16.91141395,1075.204086
0.3300,0.8265385631,16.91214988,1075.204354
0.3350,0.8252320338,16.91290626,1075.204621
0.3400,0.8239898184,16.91370356,1075.204886
0.3450,0.8228004537,16.91450116,1075.205147
0.3500,0.8216740054,16.91534559,1075.205404
0.3550,0.8206577226,16.91617255,1075.205645
0.3600,0.8196579345,16.9169875,1075.205887
0.3650,0.8187577703,16.91779135,1075.206117
0.3700,0.8179094042,16.91857711,1075.206341
0.3750,0.8171142752,16.91937169,1075.206559
0.3800,0.8163882987,16.92015251,1075.206765
0.3850,0.815685142,16.92087925,1075.206963
0.3900,0.8150461261,16.92158344,1075.207152
0.3950,0.8144305589,16.92229153,1075.207336
0.4000,0.8138533073,16.92301839,1075.207518
0.4050,0.8132908455,16.92371065,1075.207693
0.4100,0.8127404361,16.92439159,1075.207863
0.4150,0.8122137492,16.92506733,1075.208028
0.4200,0.8116929914,16.92569657,1075.208187
0.4250,0.8111458149,16.92633466,1075.208347
0.4300,0.810586156,16.92693488,1075.208504
0.4350,0.8100129424,16.92749888,1075.208655
0.4400,0.8094113842,16.92803924,1075.20881
0.4450,0.8087984114,16.92853745,1075.20896
0.4500,0.8081915149,16.92902859,1075.209108
0.4550,0.8076001401,16.92949071,1075.20925
0.4600,0.8070223567,16.9299603,1075.209389
0.4650,0.8064664547,16.93040729,1075.209521
0.4700,0.8059669267,16.93087062,1075.209645
0.4750,0.8055018661,16.93130802,1075.209764
0.4800,0.8050678169,16.93174151,1075.209876
0.4850,0.8046932846,16.93215861,1075.209977
0.4900,0.8043079884,16.93257502,1075.210078
0.4950,0.8039533591,16.93297578,1075.210171
0.5000,0.8036349363,16.93334179,1075.210256
0.5050,0.8033178267,16.93372123,1075.210342
0.5100,0.8030125508,16.934111,1075.210426
0.5150,0.8027060296,16.93449596,1075.210511
0.5200,0.8024006921,16.93485477,1075.210591
0.5250,0.8021418831,16.93522488,1075.210668
0.5300,0.8019043355,16.93561348,1075.210743
0.5350,0.8016487719,16.93601523,1075.210819
0.5400,0.8014188019,16.93642065,1075.210892
0.5450,0.8011750354,16.9368278,1075.210966
0.5500,0.8009477148,16.9372294,1075.211036
0.5550,0.8007109923,16.937643,1075.211106
0.5600,0.8004403412,16.93803138,1075.211178
0.5650,0.8001935004,16.93846606,1075.211249
0.5700,0.7999277769,16.93883414,1075.211315
0.5750,0.7996642212,16.93919504,1075.21138
0.5800,0.7994484312,16.93952688,1075.211435
0.5850,0.7992930501,16.93984585,1075.211478
0.5900,0.7991785695,16.94017273,1075.211514
0.5950,0.7991232958,16.94044319,1075.211535
0.6000,0.7991346389,16.94070238,1075.211544
0.6050,0.7992342814,16.94093358,1075.211537
0.6100,0.7994142951,16.94112536,1075.211513
0.6150,0.7996733488,16.94132047,1075.211476
0.6200,0.8000130707,16.94146314,1075.211418
0.6250,0.8004713806,16.94157647,1075.21134
0.6300,0.8009909083,16.94162063,1075.211245
0.6350,0.8015768519,16.94161016,1075.211132
0.6400,0.8022501448,16.94154863,1075.211
0.6450,0.8029801165,16.94143802,1075.210855
0.6500,0.8037783088,16.94126996,1075.210693
0.6550,0.8046371588,16.9410711,1075.21052
0.6600,0.8055701392,16.94082958,1075.21033
0.6650,0.8065305242,16.94052947,1075.210131
0.6700,0.8075433596,16.94015925,1075.209916
0.6750,0.8086194738,16.93974092,1075.209685
0.6800,0.8097687617,16.93923373,1075.209436
0.6850,0.8109520003,16.93864729,1075.209171
0.6900,0.8122130693,16.9380031,1075.208889
0.6950,0.813499428,16.93726246,1075.208593
0.7000,0.8148469842,16.93643361,1075.208277
0.7050,0.8162533439,16.93553842,1075.207944
0.7100,0.8177264697,16.93453886,1075.207591
0.7150,0.8192432672,16.93344609,1075.20722
0.7200,0.8207829621,16.93228458,1075.206838
0.7250,0.8223996309,16.93099611,1075.206431
0.7300,0.8240533795,16.92962977,1075.206009
0.7350,0.8257834372,16.92819586,1075.205566
0.7400,0.8275487591,16.92666297,1075.205105
0.7450,0.8293922436,16.92506508,1075.204625
0.7500,0.8312673164,16.92338947,1075.20413
0.7550,0.833169147,16.9216418,1075.203619
0.7600,0.8350851485,16.91982314,1075.203096
0.7650,0.8370232678,16.91794846,1075.202564
0.7700,0.8389377452,16.91594772,1075.202019
0.7750,0.8408713433,16.91390688,1075.201463
0.7800,0.8428292648,16.91181844,1075.200898
0.7850,0.8447650238,16.90963712,1075.200324
0.7900,0.8467185694,16.90741753,1075.199742
0.7950,0.8487044193,16.90515714,1075.199148
0.8000,0.8506774696,16.90287412,1075.19855
0.8050,0.8526776201,16.9005454,1075.197939
0.8100,0.8546613002,16.8981773,1075.197322
0.8150,0.8566688938,16.89578332,1075.196696
0.8200,0.8586627376,16.89336949,1075.196067
0.8250,0.8606187135,16.8909504,1075.19544
0.8300,0.8625303926,16.88851877,1075.194816
0.8350,0.8644432703,16.88607895,1075.194188
0.8400,0.8663388284,16.88359809,1075.193557
0.8450,0.8682207579,16.88113205,1075.192927
0.8500,0.8700661968,16.87869258,1075.1923
0.8550,0.8718645777,16.8762458,1075.191679
0.8600,0.8736429531,16.87383216,1075.191059
0.8650,0.8753584715,16.87137012,1075.190444
0.8700,0.87703875,16.86897193,1075.189838
0.8750,0.8786415442,16.8665724,1075.189239
0.8800,0.8802006499,16.86419124,1075.188649
0.8850,0.8816705043,16.86184943,1075.188077
0.8900,0.8830371705,16.85951043,1075.187518
0.8950,0.8842799393,16.85722632,1075.186984
0.9000,0.8854298364,16.85493554,1075.186464
0.9050,0.8864796656,16.85269052,1075.185964
0.9100,0.8873833674,16.85051212,1075.185492
0.9150,0.888122838,16.84834602,1075.185048
0.9200,0.8887342296,16.84622282,1075.184632
0.9250,0.889185217,16.84413139,1075.184247
0.9300,0.8895218773,16.84207783,1075.183887
0.9350,0.8897387219,16.84009901,1075.183558
0.9400,0.8897965424,16.83816069,1075.183262
0.9450,0.8897540606,16.83627973,1075.182989
0.9500,0.8895692868,16.83443354,1075.182748
0.9550,0.8892516128,16.8326367,1075.182537
0.9600,0.8888100451,16.83087436,1075.182352
0.9650,0.8882515945,16.82916168,1075.182193
0.9700,0.8876181614,16.8275564,1075.182063
0.9750,0.8868490277,16.82594111,1075.181956
0.9800,0.8859708376,16.82437923,1075.181875
0.9850,0.8849994501,16.82285524,1075.181816
0.9900,0.8839012737,16.82136611,1075.181783
0.9950,0.8826953736,16.81991792,1075.181774
1.0000,0.8813815067,16.81849235,1075.181787
1.0050,0.8799512074,16.81709948,1075.181824
1.0100,0.8783984646,16.81576504,1075.181888
1.0150,0.8767411965,16.81446887,1075.181978
1.0200,0.8749597425,16.81323532,1075.182097
1.0250,0.8729983208,16.81205223,1075.182253
1.0300,0.8708997948,16.8109196,1075.182441
1.0350,0.868612571,16.80983041,1075.18267
1.0400,0.866147568,16.80880523,1075.18294
1.0450,0.8634686612,16.80782118,1075.183252
1.0500,0.8605950949,16.8068863,1075.183605
1.0550,0.8575118547,16.80599227,1075.183998
1.0600,0.8542110921,16.80515106,1075.184437
1.0650,0.8507430432,16.80434535,1075.184909
1.0700,0.8471264328,16.80362621,1075.185419
1.0750,0.8433411179,16.80292552,1075.185963
1.0800,0.8393653166,16.80229794,1075.18655
1.0850,0.835236716,16.80173731,1075.187174
1.0900,0.8309357127,16.80123588,1075.187838
1.0950,0.8264658734,16.80077854,1075.188541
1.1000,0.8218434282,16.80035754,1075.189281
1.1050,0.8170406677,16.79993983,1075.190062
1.1100,0.8120887997,16.79954332,1075.19088
1.1150,0.8069538257,16.79915305,1075.191739
1.1200,0.8016832924,16.79878658,1075.192635
1.1250,0.7962679675,16.79839903,1075.193564
1.1300,0.790747466,16.7979698,1075.194523
1.1350,0.7851202591,16.79747968,1075.195509
1.1400,0.779381648,16.79696547,1075.196528
1.1450,0.7735044302,16.79637529,1075.197581
1.1500,0.7675377002,16.79571367,1075.198668
1.1550,0.761487903,16.79497526,1075.199783
1.1600,0.7553263441,16.79417392,1075.200935
1.1650,0.7490580733,16.79332028,1075.202121
1.1700,0.7426986063,16.79241617,1075.203342
1.1750,0.7362889233,16.79146202,1075.204595
1.1800,0.7297765391,16.79049717,1075.205886
1.1850,0.7231877515,16.78949941,1075.20721
1.1900,0.7165679305,16.78849351,1075.20856
1.1950,0.7098925279,16.78750822,1075.209945
1.2000,0.7031495691,16.78659705,1075.211368
1.2050,0.6963241708,16.78573653,1075.212829
1.2100,0.6894683665,16.78494413,1075.214319
1.2150,0.6826114305,16.78428556,1075.21584
1.2200,0.6756825772,16.7837381,1075.217397
1.2250,0.6687002094,16.78335089,1075.218994
1.2300,0.6616385968,16.78316073,1075.220637
1.2350,0.6544996191,16.78315098,1075.222326
1.2400,0.6472850632,16.7833247,1075.224059
1.2450,0.6399787716,16.78368046,1075.225843
1.2500,0.6325944885,16.78420216,1075.227673
1.2550,0.625150608,16.78493123,1075.229553
1.2600,0.6176428164,16.78583148,1075.231483
1.2650,0.6101159889,16.78690798,1075.233456
1.2700,0.6025056174,16.78809401,1075.235479
1.2750,0.5948775034,16.78942483,1075.237548
1.2800,0.5872023037,16.79088333,1075.239668
1.2850,0.5794877327,16.79245034,1075.241836
1.2900,0.5717778044,16.79409694,1075.244048
1.2950,0.5640929138,16.79584803,1075.246303
1.3000,0.5564289422,16.79766314,1075.2486
1.3050,0.5488246923,16.79951758,1075.250936
1.3100,0.5412421946,16.80138804,1075.253316
1.3150,0.5337247938,16.80333547,1075.255738
1.3200,0.5262658177,16.80526737,1075.2582
1.3250,0.5188873791,16.80721704,1075.260704
1.3300,0.5115900269,16.80919526,1075.263254
1.3350,0.5043808978,16.81116415,1075.265848
1.3400,0.4972829806,16.81313586,1075.268486
1.3450,0.4902737165,16.81512627,1075.271179
1.3500,0.4833415996,16.81713122,1075.273933
1.3550,0.4765292001,16.81913152,1075.276747
1.3600,0.4698213706,16.82114023,1075.279627
1.3650,0.4631619554,16.82319863,1075.282595
1.3700,0.4565804244,16.82525154,1075.285641
1.3750,0.4500378016,16.82732989,1075.288785
1.3800,0.4435523898,16.82938148,1075.292022
1.3850,0.4371105322,16.8314266,1075.295362
1.3900,0.4307208626,16.83344039,1075.298807
1.3950,0.4243712022,16.83542576,1075.302364
1.4000,0.4180448799,16.83736964,1075.306036
1.4050,0.4117324448,16.83931647,1075.309836
1.4100,0.4054263141,16.84122265,1075.313768
1.4150,0.3991331005,16.84309269,1075.317837
1.4200,0.3927975547,16.84491377,1075.322052
1.4250,0.3864018281,16.8466989,1075.326428
1.4300,0.3799190738,16.84849672,1075.330972
1.4350,0.3733166739,16.85035125,1075.335702
1.4400,0.3665412555,16.85226328,1075.340628
1.4450,0.3596090149,16.8542388,1075.345751
1.4500,0.3524939427,16.85630769,1075.351082
1.4550,0.345175695,16.85850821,1075.356631
1.4600,0.3376087576,16.86080426,1075.362405
1.4650,0.3298105497,16.86323787,1075.36841
1.4700,0.3216873333,16.86579346,1075.374661
1.4750,0.3132511405,16.86852714,1075.381156
1.4800,0.3044989589,16.87144877,1075.387907
1.4850,0.2953750631,16.87456321,1075.394922
1.4900,0.2858243458,16.87787897,1075.40221
1.4950,0.2758729048,16.88141591,1075.409771
1.5000,0.2654744785,16.88514285,1075.417617
1.5050,0.254635296,16.8891442,1075.425748
1.5100,0.2433323275,16.89340163,1075.434176
1.5150,0.2315213537,16.89792489,1075.442905
1.5200,0.219202601,16.90276446,1075.451945
1.5250,0.2063750252,16.90786777,1075.461292
1.5300,0.1930064165,16.91325523,1075.47095
1.5350,0.1790792837,16.91896159,1075.480929
1.5400,0.1646016849,16.92493433,1075.491229
1.5450,0.1495671718,16.93122561,1075.501852
1.5500,0.1339711602,16.93786815,1075.512802
1.5550,0.1177876232,16.94477485,1075.524076
1.5600,0.1010093076,16.9519786,1075.535681
1.5650,0.08364304244,16.95948018,1075.547621
1.5700,0.06566072,16.96730927,1075.559895
1.5750,0.04711507775,16.97543699,1075.572504
1.5800,0.02802297906,16.98386124,1075.585445
1.5850,0.008454258564,16.99257872,1075.598711
1.5900,-0.01162094413,17.00160244,1075.612306
1.5950,-0.03216998996,17.01088686,1075.626223
1.6000,-0.05317951527,17.02046645,1075.640467
1.6050,-0.0746529381,17.03039041,1075.655039
1.6100,-0.0965065441,17.04064751,1075.669929
1.6150,-0.118734879,17.05116304,1075.685133
1.6200,-0.1412656112,17.06198518,1075.700642
1.6250,-0.1640544781,17.07312953,1075.716451
1.6300,-0.1871003149,17.08453829,1075.732555
1.6350,-0.2103447065,17.09623127,1075.748946
1.6400,-0.2337585554,17.10822998,1075.765623
1.6450,-0.2572856963,17.12047395,1075.782569
1.6500,-0.2809006296,17.13295618,1075.799791
1.6550,-0.3046312066,17.1456982,1075.817289
1.6600,-0.3284313229,17.15865179,1075.835047
1.6650,-0.3522287144,17.17182164,1075.85306
1.6700,-0.3760536916,17.18520522,1075.871333
1.6750,-0.3998601385,17.19881889,1075.889853
1.6800,-0.4236233054,17.21265245,1075.908615
1.6850,-0.4473311975,17.22671148,1075.927617
1.6900,-0.470924757,17.24100303,1075.946846
1.6950,-0.494419199,17.25556657,1075.96631
1.7000,-0.5177606584,17.27038171,1075.985998
1.7050,-0.540915689,17.28544476,1076.005895
1.7100,-0.5638754164,17.30078089,1076.026
1.7150,-0.5866279486,17.31639282,1076.046306
1.7200,-0.6091358305,17.33228775,1076.066807
1.7250,-0.631387953,17.34846877,1076.087493
1.7300,-0.6533950074,17.36489955,1076.108366
1.7350,-0.6751378658,17.38154331,1076.129414
1.7400,-0.696555235,17.39839689,1076.150623
1.7450,-0.7177069027,17.4154512,1076.172008
1.7500,-0.7385788009,17.43263136,1076.193554
1.7550,-0.7591770162,17.44992871,1076.215255
1.7600,-0.779475456,17.46734174,1076.237112
1.7650,-0.7995216545,17.48480342,1076.259123
1.7700,-0.8193099521,17.50232687,1076.281291
1.7750,-0.8388409156,17.519864,1076.303616
1.7800,-0.858159658,17.5373444,1076.326089
1.7850,-0.8772354815,17.55474251,1076.348707
1.7900,-0.8960912688,17.57206108,1076.371482
1.7950,-0.914751907,17.58926871,1076.394409
1.8000,-0.9331988452,17.60636377,1076.417483
1.8050,-0.9514374849,17.62332336,1076.440714
1.8100,-0.9694622585,17.64012316,1076.464092
1.8150,-0.9873086508,17.65673558,1076.487627
1.8200,-1.004994349,17.67319429,1076.511312
1.8250,-1.022535628,17.68949848,1076.535161
1.8300,-1.039954934,17.70558334,1076.559166
1.8350,-1.057229537,17.72146228,1076.583327
1.8400,-1.07437371,17.73719473,1076.607637
1.8450,-1.091390393,17.75275627,1076.632103
1.8500,-1.108275717,17.76812908,1076.656717
1.8550,-1.125060426,17.78334231,1076.681497
1.8600,-1.141687645,17.79842639,1076.706436
1.8650,-1.15821183,17.8133814,1076.73154
1.8700,-1.174578533,17.82821321,1076.756802
1.8750,-1.190835041,17.84294299,1076.782215
1.8800,-1.206974093,17.85756949,1076.807788
1.8850,-1.223016195,17.87209231,1076.83351
1.8900,-1.238939109,17.88647486,1076.859387
1.8950,-1.254726342,17.90073585,1076.885418
1.9000,-1.270385601,17.91485975,1076.911597
1.9050,-1.285922359,17.92884018,1076.93792
1.9100,-1.301331792,17.94267696,1076.964394
1.9150,-1.316633506,17.95639038,1076.991014
1.9200,-1.331789374,17.96999358,1077.017786
1.9250,-1.346861826,17.98342893,1077.044712
1.9300,-1.361814581,17.99677931,1077.071792
1.9350,-1.376637977,18.01000897,1077.099016
1.9400,-1.391372549,18.02309621,1077.126395
1.9450,-1.406024136,18.03609892,1077.153933
1.9500,-1.42057857,18.04900712,1077.181614
1.9550,-1.435035053,18.06184805,1077.209443
1.9600,-1.449395114,18.07464885,1077.237425
1.9650,-1.463768912,18.0873632,1077.265563
1.9700,-1.478069493,18.10007035,1077.293862
1.9750,-1.492286773,18.11267315,1077.322304
1.9800,-1.506440595,18.12521705,1077.350894
1.9850,-1.520521153,18.13770626,1077.379632
1.9900,-1.534564324,18.15013216,1077.408516
1.9950,-1.548582953,18.16246649,1077.437536
2.0000,-1.562575035,18.1747298,1077.466695
2.0050,-1.576572119,18.18687314,1077.495998
2.0100,-1.5905883,18.19894209,1077.525447
2.0150,-1.604611481,18.21090575,1077.555036
2.0200,-1.618662032,18.22279451,1077.584764
2.0250,-1.632732821,18.23459392,1077.614625
2.0300,-1.646794964,18.24631739,1077.644627
2.0350,-1.660863242,18.25798376,1077.674771
2.0400,-1.674962456,18.26960051,1077.705061
2.0450,-1.689066833,18.28116485,1077.735492
2.0500,-1.703158074,18.2926953,1077.766049
2.0550,-1.717227801,18.30417579,1077.796742
2.0600,-1.731284697,18.31559073,1077.827567
2.0650,-1.745337894,18.32696896,1077.858532
2.0700,-1.759332534,18.33829445,1077.88961
2.0750,-1.773316603,18.34957315,1077.920818
2.0800,-1.787268118,18.3608133,1077.952157
2.0850,-1.801179147,18.37201811,1077.983616
2.0900,-1.815039418,18.38316626,1078.015182
2.0950,-1.828845577,18.3942271,1078.046858
2.1000,-1.842678064,18.40523665,1078.078644
2.1050,-1.856535609,18.41614466,1078.11053
2.1100,-1.870437098,18.42698781,1078.142518
2.1150,-1.884340362,18.43773417,1078.17458
2.1200,-1.898231196,18.44837537,1078.206715
2.1250,-1.912104856,18.45888147,1078.238904
2.1300,-1.926001744,18.46933799,1078.271166
2.1350,-1.939909466,18.47968206,1078.303479
2.1400,-1.953861906,18.48993801,1078.335856
2.1450,-1.967868538,18.50003128,1078.368278
2.1500,-1.981967383,18.510003,1078.400759
2.1550,-1.99612212,18.51985551,1078.433268
2.1600,-2.010389336,18.52955599,1078.465805
2.1650,-2.024760438,18.53910133,1078.498357
2.1700,-2.03923869,18.54844432,1078.530917
2.1750,-2.053866184,18.5576214,1078.563499
2.1800,-2.068602279,18.56660333,1078.59608
2.1850,-2.083435367,18.57541258,1078.628673
2.1900,-2.09840571,18.58405804,1078.661263
2.1950,-2.113516613,18.59251378,1078.69385
2.2000,-2.128743234,18.6007663,1078.726429
2.2050,-2.144072963,18.60877933,1078.758993
2.2100,-2.15949514,18.61657473,1078.791527
2.2150,-2.174967765,18.62413994,1078.824025
2.2200,-2.190520917,18.63151238,1078.856493
2.2250,-2.206117585,18.6387089,1078.888923
2.2300,-2.221784549,18.64567804,1078.921304
2.2350,-2.237532682,18.65249027,1078.95366
2.2400,-2.253346807,18.65909326,1078.985977
2.2450,-2.269243244,18.66548558,1079.018244
2.2500,-2.285202831,18.67168565,1079.050462
2.2550,-2.301181969,18.6776206,1079.082621
2.2600,-2.317171124,18.68335764,1079.114706
2.2650,-2.333109376,18.68886032,1079.14671
2.2700,-2.349065101,18.69413831,1079.178641
2.2750,-2.365068005,18.69918402,1079.210506
2.2800,-2.381089137,18.70398632,1079.242302
2.2850,-2.397169941,18.70854528,1079.274035
2.2900,-2.413290952,18.71286185,1079.305703
2.2950,-2.429434638,18.71690226,1079.337301
2.3000,-2.445623796,18.72071913,1079.36883
2.3050,-2.461830322,18.72432143,1079.400293
2.3100,-2.478018498,18.7277094,1079.431678
2.3150,-2.494222035,18.73089749,1079.46299
2.3200,-2.510359196,18.73387676,1079.494226
2.3250,-2.526445494,18.73664903,1079.525405
2.3300,-2.542505848,18.73919171,1079.556497
2.3350,-2.558510539,18.74154239,1079.587514
2.3400,-2.574427945,18.74369364,1079.618447
2.3450,-2.590231271,18.74564514,1079.649292
2.3500,-2.605956847,18.74742929,1079.680073
2.3550,-2.621605466,18.7490719,1079.710783
2.3600,-2.637174935,18.75057062,1079.741433
2.3650,-2.652577243,18.75199642,1079.77201
2.3700,-2.66787791,18.75334443,1079.802522
2.3750,-2.683035581,18.75464381,1079.832958
2.3800,-2.698060193,18.7558887,1079.863324
2.3850,-2.712955064,18.75714985,1079.893627
2.3900,-2.727703195,18.75840695,1079.923868
2.3950,-2.742285501,18.75973857,1079.954043
2.4000,-2.756724385,18.76111724,1079.984158
2.4050,-2.770995185,18.76258478,1080.014193
2.4100,-2.78513428,18.76413637,1080.044161
2.4150,-2.799143602,18.76577911,1080.074076
2.4200,-2.813054964,18.76754614,1080.103954
2.4250,-2.826902002,18.7694878,1080.133807
2.4300,-2.840643878,18.77155673,1080.16362
2.4350,-2.854332057,18.77376228,1080.193391
2.4400,-2.867957018,18.77609826,1080.223127
2.4450,-2.88152949,18.77859162,1080.252836
2.4500,-2.895073141,18.78124167,1080.282516
2.4550,-2.908603326,18.78403003,1080.312166
2.4600,-2.922092803,18.78693961,1080.341774
2.4650,-2.935572152,18.78996622,1080.371355
2.4700,-2.94906144,18.7931436,1080.400912
2.4750,-2.962485037,18.79645136,1080.430439
2.4800,-2.975904574,18.79990764,1080.459951
2.4850,-2.989345497,18.80350255,1080.48944
2.4900,-3.00274896,18.80720727,1080.518892
2.4950,-3.01612517,18.81105498,1080.548317
2.5000,-3.029486493,18.81505924,1080.577713
2.5050,-3.042863105,18.81921943,1080.607099
2.5100,-3.056269989,18.82353457,1080.636471
2.5150,-3.069741206,18.82799756,1080.665853
2.5200,-3.083274247,18.83255373,1080.695223
2.5250,-3.096860263,18.83723138,1080.724584
2.5300,-3.110485228,18.84202887,1080.753932
2.5350,-3.124146007,18.8469223,1080.783262
2.5400,-3.137839987,18.85196635,1080.812584
2.5450,-3.151547591,18.85716283,1080.841901
2.5500,-3.165303483,18.86250193,1080.871232
2.5550,-3.179110269,18.86804106,1080.900576
2.5600,-3.192983359,18.87372234,1080.929934
2.5650,-3.206925113,18.87951835,1080.959309
2.5700,-3.220932738,18.88540338,1080.988681
2.5750,-3.234997997,18.8914406,1081.018072
2.5800,-3.249139586,18.89757656,1081.047474
2.5850,-3.263307585,18.90382415,1081.076882
2.5900,-3.277514279,18.91014412,1081.106289
2.5950,-3.291742991,18.9165464,1081.135694
2.6000,-3.30600324,18.92298353,1081.165096
2.6050,-3.320254135,18.92944942,1081.194477
2.6100,-3.334519889,18.93588772,1081.22384
2.6150,-3.348704378,18.9423454,1081.253175
2.6200,-3.362848973,18.94882588,1081.282482
2.6250,-3.376922714,18.95534641,1081.31177
2.6300,-3.390907763,18.96196246,1081.341033
2.6350,-3.404781489,18.96857996,1081.370252
2.6400,-3.418554209,18.97522652,1081.399424
2.6450,-3.432254446,18.98188317,1081.428553
2.6500,-3.445863666,18.9885546,1081.457628
2.6550,-3.459370313,18.99523355,1081.486647
2.6600,-3.472807137,19.00191852,1081.515608
2.6650,-3.486213689,19.00858881,1081.544522
2.6700,-3.499552251,19.01520111,1081.573389
2.6750,-3.512856723,19.02178238,1081.602221
2.6800,-3.526074938,19.02834432,1081.630997
2.6850,-3.539255197,19.03486992,1081.659728
2.6900,-3.552360111,19.04136803,1081.688392
2.6950,-3.565432724,19.04780844,1081.716994
2.7000,-3.578419559,19.05418847,1081.745515
2.7050,-3.591383511,19.06052653,1081.773991
2.7100,-3.604299171,19.06684045,1081.802414
2.7150,-3.617196428,19.07313065,1081.830783
2.7200,-3.63003578,19.0793822,1081.859078
2.7250,-3.642805059,19.0855692,1081.88728
2.7300,-3.655476135,19.09173782,1081.915395
2.7350,-3.668034041,19.09786219,1081.943418
2.7400,-3.680478281,19.10394375,1081.971336
2.7450,-3.692818765,19.10999806,1081.99916
2.7500,-3.705005922,19.11603899,1082.026877
2.7550,-3.717035788,19.12207764,1082.054485
2.7600,-3.728939836,19.12815569,1082.082012
2.7650,-3.740679543,19.13423779,1082.109434
2.7700,-3.75225899,19.14031269,1082.136745
2.7750,-3.763731332,19.14637039,1082.16396
2.7800,-3.775063452,19.1524289,1082.191066
2.7850,-3.786279505,19.15844659,1082.218072
2.7900,-3.797442517,19.1644821,1082.245025
2.7950,-3.808537272,19.17050823,1082.271906
2.8000,-3.819562577,19.17651878,1082.298722
2.8050,-3.83047837,19.18251794,1082.325459
2.8100,-3.841309243,19.18847935,1082.352128
2.8150,-3.852029571,19.19442958,1082.378708
2.8200,-3.862619461,19.20038051,1082.405224
2.8250,-3.873111276,19.20632366,1082.431673
2.8300,-3.883473456,19.21228321,1082.458062
2.8350,-3.893717974,19.21822062,1082.484379
2.8400,-3.903804951,19.22412737,1082.510609
2.8450,-3.913757631,19.22997722,1082.536757
2.8500,-3.923570411,19.23579908,1082.562812
2.8550,-3.933262681,19.24156573,1082.588789
2.8600,-3.9428402,19.2472344,1082.614684
2.8650,-3.952252786,19.2528911,1082.6405
2.8700,-3.96148804,19.25849599,1082.666223
2.8750,-3.970536578,19.26406156,1082.691842
2.8800,-3.979399689,19.26959312,1082.717371
2.8850,-3.988107755,19.27504322,1082.742782
2.8900,-3.996613379,19.28043814,1082.768086
2.8950,-4.004943894,19.28575831,1082.793275
2.9000,-4.01310303,19.29101003,1082.818354
2.9050,-4.021115128,19.2962052,1082.843332
2.9100,-4.028997541,19.30140197,1082.868227
2.9150,-4.036809182,19.3065294,1082.893039
2.9200,-4.044567627,19.31153617,1082.917765
2.9250,-4.052250996,19.31643786,1082.942374
2.9300,-4.059864904,19.32119409,1082.966878
2.9350,-4.067475503,19.32589982,1082.991316
2.9400,-4.075061034,19.3305212,1083.015684
2.9450,-4.08258786,19.33509602,1083.039967
2.9500,-4.090039752,19.33961508,1083.06416
2.9550,-4.097461407,19.34409392,1083.08829
2.9600,-4.104795228,19.34856857,1083.11232
2.9650,-4.112037648,19.35303039,1083.136257
2.9700,-4.119157311,19.35755943,1083.16009
2.9750,-4.126109312,19.36208671,1083.183778
2.9800,-4.132966201,19.36664447,1083.207361
2.9850,-4.139654238,19.37122781,1083.230801
2.9900,-4.14625047,19.37587158,1083.254148
2.9950,-4.15273329,19.38056022,1083.277388
3.0000,-4.159071499,19.38530643,1083.300503
3.0050,-4.165270663,19.3900956,1083.323494
3.0100,-4.171302086,19.39490193,1083.346332
3.0150,-4.177181716,19.39976941,1083.36904
3.0200,-4.182934014,19.40466107,1083.391614
3.0250,-4.188552758,19.4096007,1083.41407
3.0300,-4.194069261,19.41453922,1083.436384
3.0350,-4.199495046,19.41953323,1083.458601
3.0400,-4.204832384,19.42454297,1083.480702
3.0450,-4.210074426,19.42961522,1083.502695
3.0500,-4.215242797,19.43471676,1083.524569
3.0550,-4.220368693,19.43986115,1083.546349
3.0600,-4.225426711,19.44502979,1083.568023
3.0650,-4.230445208,19.45025487,1083.589604
3.0700,-4.235422625,19.45552157,1083.611096
3.0750,-4.24038459,19.4608427,1083.6325
3.0800,-4.245334446,19.46620432,1083.653829
3.0850,-4.250244662,19.47162312,1083.675072
3.0900,-4.255053371,19.4770798,1083.696191
3.0950,-4.259764749,19.48261308,1083.717205
3.1000,-4.264371861,19.48821172,1083.738104
3.1050,-4.268873397,19.49385716,1083.758887
3.1100,-4.273251185,19.49954258,1083.779548
3.1150,-4.277506328,19.5052357,1083.800079
3.1200,-4.281690214,19.51093872,1083.82049
3.1250,-4.285763706,19.51665065,1083.840768
3.1300,-4.289756568,19.52235479,1083.860922
3.1350,-4.293678448,19.52803766,1083.880964
3.1400,-4.297516049,19.5337534,1083.900895
3.1450,-4.301257561,19.53949652,1083.920716
3.1500,-4.304891001,19.5452219,1083.940416
3.1550,-4.308384953,19.55095862,1083.959984
3.1600,-4.311723112,19.55671344,1083.979422
3.1650,-4.314951944,19.56243551,1083.998742
3.1700,-4.31811578,19.56816438,1084.017978
3.1750,-4.321198385,19.57383448,1084.0371
3.1800,-4.32420818,19.57945388,1084.056104
3.1850,-4.327170665,19.58504836,1084.075044
3.1900,-4.330127823,19.59061365,1084.093921
3.1950,-4.333092562,19.59617085,1084.112759
3.2000,-4.336016371,19.60170267,1084.131539
3.2050,-4.338928703,19.6072087,1084.150268
3.2100,-4.341762704,19.61268601,1084.16893
3.2150,-4.344597248,19.61815091,1084.187566
3.2200,-4.34743574,19.623612,1084.206174
3.2250,-4.350301517,19.62904422,1084.22477
3.2300,-4.353171914,19.63449356,1084.243351
3.2350,-4.356021094,19.63990695,1084.261891
3.2400,-4.35887225,19.6453028,1084.280404
3.2450,-4.361697663,19.65067939,1084.298879
3.2500,-4.364558549,19.65606507,1084.317364
3.2550,-4.367376248,19.66145323,1084.335794
3.2600,-4.37016611,19.66682088,1084.354193
3.2650,-4.372941169,19.67217421,1084.372544
3.2700,-4.375726902,19.67748822,1084.390865
3.2750,-4.378521242,19.6828258,1084.409164
3.2800,-4.381328577,19.68815059,1084.427437
3.2850,-4.384121153,19.69349786,1084.445675
3.2900,-4.386874884,19.69885013,1084.463858
3.2950,-4.389567192,19.70423642,1084.48198
3.3000,-4.392223946,19.70965581,1084.50007
3.3050,-4.394841764,19.71511937,1084.518111
3.3100,-4.397424912,19.72059728,1084.536106
3.3150,-4.399946165,19.72608949,1084.554037
3.3200,-4.402435177,19.73158648,1084.571913
3.3250,-4.404921093,19.73706668,1084.589735
3.3300,-4.407391112,19.74256014,1084.607525
3.3350,-4.409848356,19.74800261,1084.625246
3.3400,-4.412295243,19.75342784,1084.642917
3.3450,-4.414745138,19.75880114,1084.660524
3.3500,-4.4172182,19.76411468,1084.678075
3.3550,-4.41971598,19.76932247,1084.695558
3.3600,-4.422273353,19.7744474,1084.712986
3.3650,-4.424877504,19.77948633,1084.730359
3.3700,-4.427575159,19.784442,1084.747695
3.3750,-4.430328626,19.78932208,1084.76498
3.3800,-4.43315586,19.79409096,1084.782195
3.3850,-4.436074947,19.7987665,1084.799357
3.3900,-4.439097806,19.80334204,1084.816466
3.3950,-4.44224654,19.80778283,1084.833525
3.4000,-4.445501687,19.81209715,1084.850533
3.4050,-4.44887449,19.81628745,1084.867488
3.4100,-4.452347471,19.82036097,1084.884375
3.4150,-4.455930521,19.82434951,1084.901216
3.4200,-4.459580127,19.82824727,1084.917986
3.4250,-4.463300561,19.83203545,1084.934687
3.4300,-4.46711391,19.83570673,1084.951305
3.4350,-4.470938242,19.83929795,1084.967828
3.4400,-4.474807542,19.84277618,1084.984263
3.4450,-4.478705688,19.8461604,1085.000607
3.4500,-4.482643271,19.84946086,1085.016871
3.4550,-4.486642403,19.85266023,1085.033057
3.4600,-4.490643455,19.85578006,1085.049149
3.4650,-4.494691916,19.85882458,1085.06516
3.4700,-4.49870285,19.86177968,1085.081045
3.4750,-4.502698987,19.86468995,1085.096838
3.4800,-4.506652018,19.86756495,1085.11254
3.4850,-4.510565847,19.87037093,1085.128115
3.4900,-4.514420527,19.87311681,1085.143568
3.4950,-4.518216973,19.87584212,1085.1589
3.5000,-4.521989814,19.8785389,1085.174126
3.5050,-4.525721227,19.88122521,1085.189245
3.5100,-4.529442455,19.88389764,1085.204253
3.5150,-4.533084693,19.88657201,1085.219112
3.5200,-4.536633522,19.88927827,1085.233841
3.5250,-4.540106206,19.8920444,1085.248447
3.5300,-4.543533132,19.89484198,1085.262949
3.5350,-4.546856329,19.89770055,1085.277325
3.5400,-4.550128418,19.90059094,1085.291586
3.5450,-4.553353355,19.90354775,1085.305747
3.5500,-4.556511563,19.90654217,1085.319773
3.5550,-4.559633717,19.90955855,1085.33369
3.5600,-4.562694725,19.91264864,1085.347499
3.5650,-4.565682943,19.91578599,1085.361194
3.5700,-4.568610728,19.91898799,1085.374781
3.5750,-4.571493188,19.92225229,1085.388277
3.5800,-4.574325226,19.92560039,1085.401684
3.5850,-4.577123858,19.92898671,1085.415
3.5900,-4.579890732,19.93241443,1085.428232
3.5950,-4.582638229,19.93584424,1085.441369
3.6000,-4.585369751,19.93930756,1085.454429
3.6050,-4.588079079,19.94278178,1085.467404
3.6100,-4.590763165,19.94625612,1085.480287
3.6150,-4.593449567,19.94971776,1085.493107
3.6200,-4.596133574,19.95316028,1085.505859
3.6250,-4.598819965,19.95653361,1085.518532
3.6300,-4.601531394,19.95979752,1085.531114
3.6350,-4.604295942,19.96296277,1085.543641
3.6400,-4.607112487,19.96599396,1085.556096
3.6450,-4.610010269,19.96886973,1085.568496
3.6500,-4.612973833,19.97157226,1085.58084
3.6550,-4.61602486,19.97413545,1085.593146
3.6600,-4.61914382,19.97648568,1085.605391
3.6650,-4.622364354,19.97860375,1085.617592
3.6700,-4.625632618,19.98046451,1085.629708
3.6750,-4.629008668,19.98205142,1085.641777
3.6800,-4.632494864,19.98338577,1085.653825
3.6850,-4.636065918,19.98442098,1085.665824
3.6900,-4.639764829,19.98515479,1085.677818
3.6950,-4.643585638,19.98559877,1085.689795
3.7000,-4.647551447,19.98579483,1085.701801
3.7050,-4.651630507,19.98572854,1085.713814
3.7100,-4.655811471,19.98541704,1085.725849
3.7150,-4.660096621,19.984872,1085.737916
3.7200,-4.664467954,19.98410244,1085.750006
3.7250,-4.668931593,19.98312479,1085.762131
3.7300,-4.673433952,19.98195,1085.774291
3.7350,-4.678008087,19.98061672,1085.786495
3.7400,-4.682665416,19.97910746,1085.798761
3.7450,-4.687355666,19.97747708,1085.811068
3.7500,-4.692081535,19.97571214,1085.823403
3.7550,-4.696788682,19.97386523,1085.835761
3.7600,-4.701524379,19.97190329,1085.848154
3.7650,-4.706244458,19.96987175,1085.860559
3.7700,-4.710987231,19.9677891,1085.873013
3.7750,-4.715700621,19.96565078,1085.885477
3.7800,-4.720393675,19.96349422,1085.897958
3.7850,-4.725041238,19.96135812,1085.910444
3.7900,-4.729634431,19.95926778,1085.922931
3.7950,-4.734179292,19.9571905,1085.935422
3.8000,-4.738640499,19.95519801,1085.947906
3.8050,-4.743011816,19.95329837,1085.960368
3.8100,-4.747331672,19.95146491,1085.972841
3.8150,-4.751591608,19.94973673,1085.985329
3.8200,-4.75578862,19.94815982,1085.997836
3.8250,-4.759907306,19.94671895,1086.01035
3.8300,-4.76393308,19.94544118,1086.022858
3.8350,-4.76792223,19.94432227,1086.035378
3.8400,-4.771814766,19.94343674,1086.047913
3.8450,-4.775646315,19.94273541,1086.060447
3.8500,-4.779414181,19.94225366,1086.072991
3.8550,-4.783112054,19.94199582,1086.085542
3.8600,-4.786820252,19.94192884,1086.098129
3.8650,-4.790555373,19.94204807,1086.110742
3.8700,-4.794316687,19.94236379,1086.123397
3.8750,-4.798148696,19.94280219,1086.136069
3.8800,-4.802015225,19.9433754,1086.148729
3.8850,-4.805955066,19.94407877,1086.161409
3.8900,-4.80995683,19.9448818,1086.17408
3.8950,-4.814056248,19.94579718,1086.186778
3.9000,-4.81824382,19.94673295,1086.199432
3.9050,-4.822552574,19.94767406,1086.212079
3.9100,-4.827025738,19.94858993,1086.224727
3.9150,-4.831680281,19.94944626,1086.237362
3.9200,-4.836490394,19.95019662,1086.249953
3.9250,-4.84148142,19.95084691,1086.262528
3.9300,-4.846618992,19.95135787,1086.27505
3.9350,-4.851888114,19.95172397,1086.287512
3.9400,-4.857315825,19.95188117,1086.299907
3.9450,-4.862890523,19.95181321,1086.312241
3.9500,-4.868614902,19.9515253,1086.324513
3.9550,-4.87445225,19.95094661,1086.336692
3.9600,-4.880453136,19.95009522,1086.348819
3.9650,-4.886573734,19.94892131,1086.36084
3.9700,-4.892857859,19.94743393,1086.372799
3.9750,-4.899254771,19.94563254,1086.384673
3.9800,-4.905748544,19.94349677,1086.396438
3.9850,-4.912368729,19.94101143,1086.408102
3.9900,-4.919070984,19.93819124,1086.419639
3.9950,-4.925831944,19.93502056,1086.431033
4.0000,-4.932644608,19.93141271,1086.442247
4.0050,-4.939511116,19.92742239,1086.453303
4.0100,-4.946473108,19.9230058,1086.464205
4.0150,-4.953490216,19.91819242,1086.474934
4.0200,-4.960560714,19.91294803,1086.48547
4.0250,-4.967642497,19.907308,1086.495812
4.0300,-4.974744123,19.90131823,1086.505976
4.0350,-4.981839477,19.89496802,1086.515935
4.0400,-4.988884816,19.88827685,1086.525663
4.0450,-4.995896705,19.88122728,1086.535159
4.0500,-5.002825458,19.87388741,1086.544419
4.0550,-5.009738316,19.86623626,1086.553479
4.0600,-5.016576946,19.85832748,1086.562318
4.0650,-5.023321956,19.85020051,1086.570947
4.0700,-5.029943018,19.84188515,1086.579351
4.0750,-5.036471947,19.83341307,1086.587558
4.0800,-5.042892976,19.82480983,1086.595568
4.0850,-5.04916382,19.81614418,1086.6034
4.0900,-5.055312741,19.80748807,1086.611084
4.0950,-5.061272973,19.79887246,1086.61858
4.1000,-5.067102005,19.79032974,1086.625945
4.1050,-5.072809951,19.78192818,1086.633222
4.1100,-5.078317634,19.77372716,1086.64035
4.1150,-5.083694311,19.76575016,1086.647388
4.1200,-5.088909636,19.75801082,1086.654314
4.1250,-5.093962619,19.75056047,1086.661139
4.1300,-5.0988502,19.7434528,1086.667885
4.1350,-5.103563849,19.73670783,1086.674544
4.1400,-5.108118004,19.7303101,1086.681105
4.1450,-5.112500862,19.72434386,1086.687597
4.1500,-5.116712176,19.71877085,1086.693995
4.1550,-5.120775939,19.71361931,1086.700306
4.1600,-5.12462323,19.7089231,1086.706486
4.1650,-5.128256711,19.70468562,1086.712542
4.1700,-5.131686773,19.7008844,1086.718439
4.1750,-5.13488143,19.69759597,1086.724196
4.1800,-5.137835717,19.69479536,1086.729789
4.1850,-5.140567741,19.69247664,1086.735208
4.1900,-5.143077397,19.69063027,1086.740441
4.1950,-5.145310239,19.68926441,1086.745436
4.2000,-5.147301268,19.68837841,1086.750209
4.2050,-5.149026375,19.68793383,1086.75471
4.2100,-5.150441205,19.68795329,1086.758899
4.2150,-5.151574525,19.68838236,1086.762775
4.2200,-5.152422627,19.68922304,1086.766309
4.2250,-5.152972904,19.69046673,1086.76948
4.2300,-5.15327821,19.69207121,1086.772315
4.2350,-5.153341287,19.69400966,1086.774768
4.2400,-5.153136714,19.696288,1086.776837
4.2450,-5.152687462,19.69882231,1086.77848
4.2500,-5.152008791,19.70158132,1086.779703
4.2550,-5.151145493,19.70450759,1086.7805
4.2600,-5.150059922,19.70762107,1086.780852
4.2650,-5.148830595,19.71086973,1086.780808
4.2700,-5.147430242,19.71423267,1086.780346
4.2750,-5.145898749,19.71766328,1086.779466
4.2800,-5.144253041,19.72115857,1086.778189
4.2850,-5.142487307,19.72471897,1086.77653
4.2900,-5.140638596,19.72827046,1086.774482
4.2950,-5.138742504,19.73181763,1086.772089
4.3000,-5.136818405,19.73534628,1086.769347
4.3050,-5.134882537,19.73878043,1086.766259
4.3100,-5.132897013,19.74216965,1086.762816
4.3150,-5.13088773,19.74545438,1086.759027
4.3200,-5.128882743,19.74864163,1086.754923
4.3250,-5.126862222,19.75173175,1086.750479
4.3300,-5.124825949,19.75472705,1086.745699
4.3350,-5.122776512,19.75760847,1086.740599
4.3400,-5.120734379,19.76041799,1086.735201
4.3450,-5.118687271,19.76314119,1086.729506
4.3500,-5.116658802,19.76576565,1086.723523
4.3550,-5.11459967,19.76830808,1086.717228
4.3600,-5.112556069,19.77077337,1086.710657
4.3650,-5.110548694,19.77317915,1086.703834
4.3700,-5.108584885,19.77550592,1086.696759
4.3750,-5.106639819,19.77780335,1086.689441
4.3800,-5.104719404,19.78005014,1086.681887
4.3850,-5.10284627,19.78224842,1086.674104
4.3900,-5.101010755,19.78438257,1086.666097
4.3950,-5.099237294,19.78650123,1086.65791
4.4000,-5.097476092,19.78865589,1086.649522
4.4050,-5.095702813,19.79086788,1086.640941
4.4100,-5.093959351,19.79316681,1086.632216
4.4150,-5.092138254,19.79561019,1086.623303
4.4200,-5.090262335,19.79821346,1086.614231
4.4250,-5.088313198,19.8009806,1086.604986
4.4300,-5.086279766,19.80389802,1086.59556
4.4350,-5.084175167,19.80699422,1086.585987
4.4400,-5.081946335,19.81028991,1086.57624
4.4450,-5.079598607,19.8137641,1086.566307
4.4500,-5.077102323,19.81746503,1086.556198
4.4550,-5.074438118,19.82138632,1086.54592
4.4600,-5.071637424,19.82548834,1086.535459
4.4650,-5.068694793,19.8297959,1086.524824
4.4700,-5.065592579,19.83432306,1086.514024
4.4750,-5.062343172,19.83903254,1086.503053
4.4800,-5.058955837,19.84390091,1086.491909
4.4850,-5.055392856,19.84893076,1086.480569
4.4900,-5.051673364,19.85413364,1086.469063
4.4950,-5.047830946,19.85946665,1086.457392
4.5000,-5.043870822,19.86490127,1086.445569
4.5050,-5.039808143,19.87041393,1086.433583
4.5100,-5.035692772,19.87598002,1086.421473
4.5150,-5.031493983,19.8815607,1086.409207
4.5200,-5.027288292,19.88712692,1086.396834
4.5250,-5.023035922,19.89267405,1086.38432
4.5300,-5.018741809,19.89817301,1086.371661
4.5350,-5.014477594,19.90359322,1086.358905
4.5400,-5.010287628,19.90886401,1086.346056
4.5450,-5.006175168,19.91403171,1086.333131
4.5500,-5.002153255,19.9190268,1086.320112
4.5550,-4.99824296,19.92388341,1086.307033
4.5600,-4.994481887,19.9285455,1086.293897
4.5650,-4.990836494,19.93307243,1086.280706
4.5700,-4.987369739,19.93737442,1086.26744
4.5750,-4.984064411,19.94147668,1086.254118
4.5800,-4.980950399,19.94535213,1086.240738
4.5850,-4.978039451,19.94901254,1086.2273
4.5900,-4.97534182,19.95244131,1086.213803
4.5950,-4.97285287,19.95561047,1086.200229
4.6000,-4.97055338,19.95860106,1086.186594
4.6050,-4.968449385,19.96145466,1086.172918
4.6100,-4.96650911,19.96417081,1086.159179
4.6150,-4.964690894,19.96677795,1086.145361
4.6200,-4.962938685,19.96931016,1086.131435
4.6250,-4.961266547,19.97176842,1086.117405
4.6300,-4.959674203,19.97413299,1086.10326
4.6350,-4.958110238,19.97641926,1086.088953
4.6400,-4.956555425,19.97863374,1086.074472
4.6450,-4.95501116,19.98079149,1086.059831
4.6500,-4.953480639,19.98288328,1086.045029
4.6550,-4.951949343,19.98494229,1086.030062
4.6600,-4.950384591,19.9869723,1086.014905
4.6650,-4.948798373,19.98892522,1085.999541
4.6700,-4.947151904,19.99083391,1085.983951
4.6750,-4.945499232,19.99271408,1085.968174
4.6800,-4.943811184,19.99458855,1085.95219
4.6850,-4.942134599,19.99643176,1085.936015
4.6900,-4.940444121,19.99829523,1085.919651
4.6950,-4.938783585,20.00017927,1085.903115
4.7000,-4.937144229,20.0020649,1085.886403
4.7050,-4.935524163,20.003961,1085.86951
4.7100,-4.933852364,20.00592359,1085.852418
4.7150,-4.932165869,20.00793192,1085.835132
4.7200,-4.930409753,20.01001371,1085.817634
4.7250,-4.928610247,20.01218517,1085.799948
4.7300,-4.926745437,20.01447505,1085.782074
4.7350,-4.92477645,20.01687858,1085.76399
4.7400,-4.922736089,20.01940899,1085.74571
4.7450,-4.920607499,20.02207981,1085.72726
4.7500,-4.918367068,20.02485376,1085.708603
4.7550,-4.916045438,20.02768661,1085.689728
4.7600,-4.913642785,20.03062679,1085.670678
4.7650,-4.91114029,20.03367023,1085.651436
4.7700,-4.908538344,20.03677925,1085.631995
4.7750,-4.905814535,20.03993076,1085.612327
4.7800,-4.90301189,20.04310539,1085.592465
4.7850,-4.900217845,20.04625345,1085.572442
4.7900,-4.897413481,20.04935361,1085.552233
4.7950,-4.894663106,20.05235921,1085.531854
4.8000,-4.891977809,20.05529529,1085.511318
4.8050,-4.88939741,20.05813003,1085.490637
4.8100,-4.886961728,20.06082366,1085.469815
4.8150,-4.884689117,20.06338279,1085.448856
4.8200,-4.882560436,20.06581682,1085.427768
4.8250,-4.880641163,20.06810817,1085.406572
4.8300,-4.878933834,20.07026341,1085.385263
4.8350,-4.87742613,20.07228798,1085.363848
4.8400,-4.876086597,20.07422479,1085.342328
4.8450,-4.874914956,20.07609712,1085.320721
4.8500,-4.873876165,20.07790727,1085.29901
4.8550,-4.872941846,20.07968097,1085.2772
4.8600,-4.872102771,20.08141144,1085.255284
4.8650,-4.871332738,20.08307161,1085.233246
4.8700,-4.8705747,20.0847289,1085.211105
4.8750,-4.86983786,20.0863605,1085.18885
4.8800,-4.869118837,20.08792356,1085.16648
4.8850,-4.868410873,20.08940467,1085.143997
4.8900,-4.867702415,20.09086159,1085.12142
4.8950,-4.866997578,20.09232238,1085.098758
4.9000,-4.866310229,20.093742,1085.076019
4.9050,-4.865588246,20.09514832,1085.053171
4.9100,-4.864861771,20.09650799,1085.030233
4.9150,-4.864188235,20.09781126,1085.00722
4.9200,-4.863548782,20.09908411,1084.984133
4.9250,-4.862978717,20.10026838,1084.960969
4.9300,-4.862447183,20.10141092,1084.937731
4.9350,-4.86202632,20.10248039,1084.914443
4.9400,-4.861674298,20.10349536,1084.891099
4.9450,-4.861382677,20.1044736,1084.867687
4.9500,-4.861121044,20.10542969,1084.844196
4.9550,-4.860891618,20.10635108,1084.820617
4.9600,-4.860686103,20.10723226,1084.796965
4.9650,-4.860448362,20.10815224,1084.773226
4.9700,-4.860176828,20.10908557,1084.749411
4.9750,-4.859826385,20.11003336,1084.725488
4.9800,-4.859389879,20.11100831,1084.701454
4.9850,-4.858817418,20.1120607,1084.677316
4.9900,-4.858118144,20.11311567,1084.653052
4.9950,-4.857233597,20.11420799,1084.62865
5.0000,-4.856204039,20.11530456,1084.604126
5.0050,-4.85502686,20.11635557,1084.579453
5.0100,-4.853741249,20.11734484,1084.554657
5.0150,-4.85233836,20.11827872,1084.529745
5.0200,-4.850856882,20.11911191,1084.504706
5.0250,-4.849255818,20.11987316,1084.479538
5.0300,-4.847548465,20.12055724,1084.454232
5.0350,-4.845717642,20.12114071,1084.428769
5.0400,-4.84377953,20.12162805,1084.40317
5.0450,-4.841709084,20.12201942,1084.377411
5.0500,-4.83951588,20.12236706,1084.351518
5.0550,-4.837137073,20.12272107,1084.325478
5.0600,-4.834534188,20.12308068,1084.299265
5.0650,-4.831748362,20.12341734,1084.272884
5.0700,-4.828786128,20.12376138,1084.246347
5.0750,-4.825686274,20.12413273,1084.219687
5.0800,-4.822419016,20.12449505,1084.19286
5.0850,-4.818951858,20.12483531,1084.165842
5.0900,-4.815309844,20.12515779,1084.13864
5.0950,-4.811500779,20.12543046,1084.111255
5.1000,-4.807523016,20.12562333,1084.083668
5.1050,-4.803371961,20.12574182,1084.055894
5.1100,-4.799039133,20.12579597,1084.027917
5.1150,-4.79449524,20.12583327,1083.999745
5.1200,-4.789745641,20.12583603,1083.971353
5.1250,-4.784806992,20.12577857,1083.942746
5.1300,-4.779695357,20.12565743,1083.913935
5.1350,-4.774389036,20.12549437,1083.884909
5.1400,-4.768925095,20.12525063,1083.855653
5.1450,-4.763322709,20.12493436,1083.826187
5.1500,-4.757659859,20.12452985,1083.796529
5.1550,-4.751920634,20.12404458,1083.766668
5.1600,-4.746117653,20.12351434,1083.736611
5.1650,-4.740304336,20.12291598,1083.706369
5.1700,-4.734435113,20.12230146,1083.675922
5.1750,-4.72850128,20.12162678,1083.645266
5.1800,-4.722442543,20.12095749,1083.614397
5.1850,-4.716240759,20.12032245,1083.583326
5.1900,-4.709880286,20.11971689,1083.552032
5.1950,-4.703360153,20.11915025,1083.520528
5.2000,-4.69662118,20.11865731,1083.488795
5.2050,-4.6897038,20.11818276,1083.456847
5.2100,-4.68259824,20.11778644,1083.424684
5.2150,-4.675286449,20.11744391,1083.392295
5.2200,-4.667762574,20.11714696,1083.359668
5.2250,-4.660034285,20.11689573,1083.326812
5.2300,-4.652072735,20.11669615,1083.293705
5.2350,-4.643871498,20.11653103,1083.260344
5.2400,-4.635455955,20.1163359,1083.226704
5.2450,-4.626836201,20.11610276,1083.192782
5.2500,-4.618014797,20.11581954,1083.158578
5.2550,-4.609013909,20.11547934,1083.124099
5.2600,-4.599848829,20.11506959,1083.089335
5.2650,-4.59052646,20.11458919,1083.054285
5.2700,-4.581101535,20.11404896,1083.018971
5.2750,-4.571564825,20.11342808,1082.983393
5.2800,-4.561928934,20.11272932,1082.94756
5.2850,-4.552173138,20.11193008,1082.91146
5.2900,-4.542310505,20.1110649,1082.875111
5.2950,-4.532327806,20.11016068,1082.83852
5.3000,-4.522221336,20.10920669,1082.801682
5.3050,-4.512008258,20.10821183,1082.764601
5.3100,-4.50172503,20.10711457,1082.727258
5.3150,-4.491371109,20.10590506,1082.689653
5.3200,-4.480943384,20.10458379,1082.651788
5.3250,-4.470482873,20.10311704,1082.613672
5.3300,-4.459961288,20.10150032,1082.575313
5.3350,-4.449383821,20.0997396,1082.536723
5.3400,-4.438707478,20.09781368,1082.497879
5.3450,-4.427966621,20.0956944,1082.458786
5.3500,-4.417148486,20.09333424,1082.419443
5.3550,-4.40629717,20.09075867,1082.379857
5.3600,-4.395439548,20.0879255,1082.340048
5.3650,-4.384555202,20.08480161,1082.300014
5.3700,-4.373615504,20.08139596,1082.259747
5.3750,-4.362668116,20.07768232,1082.219246
5.3800,-4.351695467,20.07372083,1082.178541
5.3850,-4.340704273,20.06948111,1082.137623
5.3900,-4.329691343,20.06494324,1082.096513
5.3950,-4.318582434,20.0601402,1082.055212
5.4000,-4.307364802,20.05508197,1082.013727
5.4050,-4.295940012,20.049796,1081.972029
5.4100,-4.284284203,20.04430549,1081.930143
5.4150,-4.272411594,20.03853207,1081.888055
5.4200,-4.260330923,20.03252929,1081.845803
5.4250,-4.248040646,20.02628949,1081.803395
5.4300,-4.235514111,20.01983959,1081.760841
5.4350,-4.222803405,20.01313718,1081.71815
5.4400,-4.209912341,20.00622154,1081.675352
5.4450,-4.19684734,19.99902566,1081.632432
5.4500,-4.183559832,19.99159882,1081.589398
5.4550,-4.170084502,19.98388952,1081.546256
5.4600,-4.156388053,19.97585209,1081.503011
5.4650,-4.142465487,19.9675338,1081.459679
5.4700,-4.128392692,19.95887556,1081.416293
5.4750,-4.114166551,19.94990878,1081.372871
5.4800,-4.099784402,19.94066016,1081.329432
5.4850,-4.085252971,19.93114174,1081.285993
5.4900,-4.070566509,19.92140135,1081.242587
5.4950,-4.055707712,19.91149542,1081.199236
5.5000,-4.040707271,19.90142559,1081.155955
5.5050,-4.025591956,19.89127983,1081.112776
5.5100,-4.010403328,19.8810434,1081.069715
5.5150,-3.995129507,19.87072482,1081.026786
5.5200,-3.979831665,19.86033198,1080.984009
5.5250,-3.964515311,19.8499304,1080.941391
5.5300,-3.949210779,19.83943578,1080.898919
5.5350,-3.933900946,19.82895398,1080.856615
5.5400,-3.918618983,19.81851138,1080.814489
5.5450,-3.903391404,19.80811366,1080.772539
5.5500,-3.888281497,19.79780374,1080.730777
5.5550,-3.873245051,19.78761278,1080.689195
5.5600,-3.858285673,19.77755264,1080.647779
5.5650,-3.84340728,19.76766823,1080.606541
5.5700,-3.828607146,19.75798946,1080.565454
5.5750,-3.813922931,19.74853746,1080.524528
5.5800,-3.799373978,19.73934336,1080.483757
5.5850,-3.784956979,19.73041976,1080.443129
5.5900,-3.770630709,19.7217815,1080.402638
5.5950,-3.756392839,19.71343362,1080.362272
5.6000,-3.742163675,19.70540764,1080.32199
5.6050,-3.72792152,19.69777566,1080.281819
5.6100,-3.713591697,19.69058597,1080.241738
5.6150,-3.699133083,19.68385634,1080.201744
5.6200,-3.684500318,19.67758632,1080.161828
5.6250,-3.669651031,19.67177124,1080.121968
5.6300,-3.654641384,19.66637545,1080.082161
5.6350,-3.639494043,19.66139868,1080.042409
5.6400,-3.624210324,19.65682181,1080.002723
5.6450,-3.608779494,19.65263936,1079.963094
5.6500,-3.593224522,19.64882476,1079.923511
5.6550,-3.577550903,19.64533059,1079.883986
5.6600,-3.561751252,19.64215662,1079.844493
5.6650,-3.545841233,19.63933828,1079.805036
5.6700,-3.529848115,19.63675647,1079.765605
5.6750,-3.513654275,19.63441528,1079.72618
5.6800,-3.497310016,19.63223178,1079.686762
5.6850,-3.480811238,19.63021232,1079.647353
5.6900,-3.464169411,19.62831476,1079.607948
5.6950,-3.447397675,19.62650371,1079.568558
5.7000,-3.430555252,19.62470337,1079.529186
5.7050,-3.413755428,19.6228807,1079.489863
5.7100,-3.397031559,19.62099765,1079.450582
5.7150,-3.380390922,19.61906173,1079.411373
5.7200,-3.363819498,19.61706387,1079.372234
5.7250,-3.347295788,19.61497124,1079.333173
5.7300,-3.330829737,19.61275941,1079.294193
5.7350,-3.314368643,19.61043223,1079.255307
5.7400,-3.297905872,19.6079555,1079.216512
5.7450,-3.281440405,19.60534037,1079.177813
5.7500,-3.264934496,19.60260817,1079.139221
5.7550,-3.24841666,19.59975345,1079.100759
5.7600,-3.231861979,19.59682482,1079.062444
5.7650,-3.215245541,19.59382786,1079.024267
5.7700,-3.198576754,19.59080011,1078.986255
5.7750,-3.181846841,19.58773636,1078.948402
5.7800,-3.165085155,19.58461416,1078.910704
5.7850,-3.148296627,19.58145108,1078.87316
5.7900,-3.131489834,19.57821877,1078.835784
5.7950,-3.114638127,19.57488402,1078.798553
5.8000,-3.097745798,19.57144347,1078.761489
5.8050,-3.080758304,19.56789485,1078.724576
5.8100,-3.063632426,19.5642441,1078.687817
5.8150,-3.046363969,19.56052102,1078.651207
5.8200,-3.028912723,19.55676433,1078.614765
5.8250,-3.011237957,19.55299153,1078.578492
5.8300,-2.993313684,19.54931608,1078.542432
5.8350,-2.975119068,19.54572424,1078.506576
5.8400,-2.956646126,19.54225368,1078.470938
5.8450,-2.937817046,19.53893103,1078.435519
5.8500,-2.918602907,19.53579412,1078.400336
5.8550,-2.899003205,19.53285246,1078.365386
5.8600,-2.878984964,19.53018983,1078.3307
5.8650,-2.858578715,19.52770927,1078.296265
5.8700,-2.837783802,19.52540205,1078.262092
5.8750,-2.816635499,19.52326764,1078.228185
5.8800,-2.795126486,19.52130707,1078.194547
5.8850,-2.773301936,19.51950617,1078.161175
5.8900,-2.751195208,19.51783553,1078.128067
5.8950,-2.728798757,19.51626874,1078.095216
5.9000,-2.706193597,19.51480524,1078.062656
5.9050,-2.683342864,19.51335561,1078.030339
5.9100,-2.660318067,19.51192562,1077.998304
5.9150,-2.637160046,19.51048129,1077.966542
5.9200,-2.613885201,19.50899552,1077.935052
5.9250,-2.5905591,19.50749382,1077.903863
5.9300,-2.567145315,19.50598815,1077.872965
5.9350,-2.543627993,19.50453546,1077.842368
5.9400,-2.520058429,19.50316443,1077.812082
5.9450,-2.496459808,19.50186541,1077.782109
5.9500,-2.472830922,19.50067288,1077.752456
5.9550,-2.449175221,19.49959667,1077.723126
5.9600,-2.425517646,19.49863368,1077.694123
5.9650,-2.401847684,19.49774973,1077.665453
5.9700,-2.378175108,19.49699707,1077.63711
5.9750,-2.354593545,19.49632688,1077.609111
5.9800,-2.331101511,19.49577431,1077.581458
5.9850,-2.307736377,19.49534613,1077.554162
5.9900,-2.284546522,19.495068,1077.527233
5.9950,-2.261563006,19.4949189,1077.500655
6.0000,-2.238791535,19.49491715,1077.474438
6.0050,-2.216235526,19.49508073,1077.448587
6.0100,-2.193940202,19.49543734,1077.423107
6.0150,-2.171975012,19.49596674,1077.39799
6.0200,-2.150329018,19.49665199,1077.373226
6.0250,-2.129057181,19.49752013,1077.348821
6.0300,-2.108217538,19.49854513,1077.324773
6.0350,-2.087823051,19.49974633,1077.30107
6.0400,-2.067864318,19.50111932,1077.277709
6.0450,-2.04833121,19.50266126,1077.254683
6.0500,-2.029257646,19.50439422,1077.232005
6.0550,-2.010598844,19.50630954,1077.209655
6.0600,-1.992342587,19.50839287,1077.187629
6.0650,-1.974499206,19.51065655,1077.165948
6.0700,-1.957005215,19.51312367,1077.144602
6.0750,-1.939842127,19.51584838,1077.123602
6.0800,-1.922961026,19.51885537,1077.102955
6.0850,-1.906298403,19.52212358,1077.082646
6.0900,-1.889799114,19.52570246,1077.062676
6.0950,-1.873441895,19.52958902,1077.04305
6.1000,-1.857141002,19.53379153,1077.023745
6.1050,-1.84086769,19.53827524,1077.004754
6.1100,-1.824536538,19.54304343,1076.986069
6.1150,-1.80811401,19.54810022,1076.967685
6.1200,-1.791554225,19.55336515,1076.949576
6.1250,-1.774804311,19.55882093,1076.931735
6.1300,-1.757871568,19.56437443,1076.914142
6.1350,-1.740715089,19.56998747,1076.896775
6.1400,-1.723300165,19.57562294,1076.879626
6.1450,-1.705670602,19.58124363,1076.862692
6.1500,-1.687775808,19.58679648,1076.84594
6.1550,-1.669619843,19.59224012,1076.829365
6.1600,-1.651233912,19.59754028,1076.812951
6.1650,-1.632559738,19.60271518,1076.796691
6.1700,-1.613601163,19.60776417,1076.780581
6.1750,-1.59431162,19.61262181,1076.764595
6.1800,-1.574660456,19.617305,1076.748727
6.1850,-1.554691546,19.62176363,1076.732981
6.1900,-1.534387896,19.62599985,1076.717347
6.1950,-1.513775365,19.62999816,1076.701824
6.2000,-1.492871085,19.6337017,1076.686398
6.2050,-1.471731771,19.63712213,1076.671088
6.2100,-1.450338375,19.64023684,1076.655881
6.2150,-1.428754506,19.64303003,1076.640785
6.2200,-1.406976747,19.64552387,1076.625801
6.2250,-1.384987366,19.64769777,1076.610921
6.2300,-1.362779609,19.64958699,1076.59615
6.2350,-1.340445789,19.65112618,1076.581486
6.2400,-1.317963735,19.65232724,1076.566922
6.2450,-1.295324471,19.65318641,1076.552459
6.2500,-1.272588315,19.65366476,1076.538095
6.2550,-1.249757254,19.65379109,1076.523828
6.2600,-1.226853158,19.65354773,1076.509666
6.2650,-1.203922824,19.65295085,1076.495607
6.2700,-1.180980502,19.6520329,1076.481667
6.2750,-1.15805881,19.65083162,1076.467853
6.2800,-1.135189967,19.64935128,1076.454171
6.2850,-1.112318313,19.64764664,1076.440618
6.2900,-1.089430388,19.64571535,1076.42718
6.2950,-1.066546777,19.64364502,1076.413884
6.3000,-1.043638209,19.64148561,1076.400726
6.3050,-1.020715658,19.63921917,1076.387701
6.3100,-0.9977523343,19.63687518,1076.374808
6.3150,-0.9746847969,19.63449057,1076.362042
6.3200,-0.9515647411,19.63209126,1076.349413
6.3250,-0.9283929848,19.62963411,1076.336909
6.3300,-0.9051088331,19.62719145,1076.32453
6.3350,-0.8817550322,19.6247027,1076.312269
6.3400,-0.8583480932,19.62221485,1076.300135
6.3450,-0.8349289984,19.61972869,1076.288134
6.3500,-0.8114564778,19.61721073,1076.276246
6.3550,-0.7878828179,19.61470472,1076.264469
6.3600,-0.7642417937,19.61223058,1076.252808
6.3650,-0.7404788969,19.60980856,1076.241253
6.3700,-0.7165889085,19.60741791,1076.229799
6.3750,-0.6925301829,19.60507917,1076.218439
6.3800,-0.6682965333,19.60279938,1076.207167
6.3850,-0.6438905775,19.60061613,1076.195996
6.3900,-0.619305446,19.59851963,1076.184922
6.3950,-0.5945507045,19.59653989,1076.17395
6.4000,-0.5696173405,19.59469958,1076.16309
6.4050,-0.5445199134,19.59299808,1076.152343
6.4100,-0.5193237324,19.59146859,1076.141725
6.4150,-0.4940266267,19.590131,1076.131242
6.4200,-0.4686207561,19.58901275,1076.120901
6.4250,-0.443133782,19.58810509,1076.110702
6.4300,-0.4175141158,19.58744072,1076.10064
6.4350,-0.3917518746,19.5870092,1076.090716
6.4400,-0.3658505619,19.58686762,1076.080943
6.4450,-0.3397374894,19.58700451,1076.071306
6.4500,-0.3134366614,19.58742493,1076.061816
6.4550,-0.2869218198,19.58815339,1076.052475
6.4600,-0.2601534452,19.58916839,1076.043276
6.4650,-0.2331851006,19.59041729,1076.034212
6.4700,-0.2060237493,19.59190664,1076.025293
6.4750,-0.1786674286,19.59361579,1076.016513
6.4800,-0.1512211318,19.59545157,1076.007868
6.4850,-0.1236201629,19.59745961,1075.999357
6.4900,-0.09586290515,19.59960899,1075.990977
6.4950,-0.06797775837,19.6018503,1075.982722
6.5000,-0.03994184403,19.60421529,1075.974596
6.5050,-0.0117464876,19.6066907,1075.966599
6.5100,0.0166058804,19.6092912,1075.958734
6.5150,0.04516826211,19.61201047,1075.950994
6.5200,0.07389913603,19.61486239,1075.943392
6.5250,0.1027789421,19.61780526,1075.935919
6.5300,0.1317448949,19.62079644,1075.92858
6.5350,0.1608379576,19.62387117,1075.921381
6.5400,0.1900333471,19.62698347,1075.914315
6.5450,0.2193091201,19.63013853,1075.907385
6.5500,0.2486879775,19.63338108,1075.900603
6.5550,0.278126139,19.63667029,1075.893963
6.5600,0.3076225525,19.64001513,1075.887465
6.5650,0.3371630001,19.64343585,1075.88112
6.5700,0.3667564679,19.64687058,1075.874906
6.5750,0.3964460505,19.65026849,1075.868802
6.5800,0.4262977931,19.65363095,1075.862796
6.5850,0.4563196696,19.65690102,1075.856872
6.5900,0.4866431183,19.66000093,1075.85099
6.5950,0.5173444661,19.66289325,1075.845124
6.6000,0.5483599386,19.66554692,1075.839278
6.6050,0.5796847112,19.6679586,1075.833445
6.6100,0.6112646383,19.67008816,1075.827622
6.6150,0.6430362226,19.67194981,1075.821819
6.6200,0.675016114,19.67354569,1075.816031
6.6250,0.7072443847,19.67495507,1075.810272
6.6300,0.7397251238,19.67613721,1075.804526
6.6350,0.7725025163,19.67716629,1075.798803
6.6400,0.8055803674,19.67804155,1075.793102
6.6450,0.8389919309,19.67880707,1075.787429
6.6500,0.8727535175,19.67950888,1075.781791
6.6550,0.9068343937,19.68014524,1075.776193
6.6600,0.9412810748,19.6807273,1075.770629
6.6650,0.9760237871,19.68126166,1075.765109
6.6700,1.011095918,19.68181073,1075.759645
6.6750,1.046452879,19.68236352,1075.754238
6.6800,1.082020681,19.68294131,1075.748904
6.6850,1.117762873,19.68358203,1075.743655
6.6900,1.153642173,19.68427208,1075.73849
6.6950,1.189622297,19.68501696,1075.733417
6.7000,1.225671203,19.68580189,1075.728431
6.7050,1.26173964,19.68659861,1075.723532
6.7100,1.29781223,19.68736192,1075.718711
6.7150,1.333861937,19.68805903,1075.71396
6.7200,1.369816926,19.68863383,1075.709274
6.7250,1.405672364,19.6890945,1075.704658
6.7300,1.44135526,19.68939223,1075.700104
6.7350,1.476772582,19.68953429,1075.695625
6.7400,1.511861579,19.68946847,1075.691215
6.7450,1.546509156,19.68920291,1075.686885
6.7500,1.580637533,19.68874193,1075.682643
6.7550,1.614154496,19.68808452,1075.678494
6.7600,1.647007975,19.68722091,1075.674438
6.7650,1.679194991,19.68622786,1075.670492
6.7700,1.710748113,19.68507941,1075.666644
6.7750,1.74165337,19.68383997,1075.662911
6.7800,1.772019352,19.68259695,1075.659306
6.7850,1.801842169,19.68133885,1075.655822
6.7900,1.831115138,19.68008883,1075.652465
6.7950,1.859853222,19.67891568,1075.649249
6.8000,1.888098512,19.67781751,1075.646171
6.8050,1.915869985,19.67683063,1075.643234
6.8100,1.943188322,19.67595658,1075.640437
6.8150,1.970136804,19.67522784,1075.63778
6.8200,1.996670259,19.67461733,1075.635259
6.8250,2.022891664,19.6742054,1075.632884
6.8300,2.04884691,19.67398103,1075.630647
6.8350,2.074589805,19.67393911,1075.628542
6.8400,2.10013362,19.67408508,1075.626565
6.8450,2.125532495,19.67443252,1075.624718
6.8500,2.150837716,19.6749464,1075.622986
6.8550,2.176107908,19.67562564,1075.621364
6.8600,2.201325192,19.67645511,1075.619852
6.8650,2.226598979,19.67736904,1075.618419
6.8700,2.251955925,19.67839201,1075.617072
6.8750,2.277407467,19.67953094,1075.61581
6.8800,2.302947906,19.68077329,1075.61463
6.8850,2.328543597,19.6821437,1075.613537
6.8900,2.35412574,19.68369463,1075.612553
6.8950,2.379651924,19.68535122,1075.611655
6.9000,2.405125656,19.68716638,1075.610855
6.9050,2.43062618,19.6891332,1075.610148
6.9100,2.456195288,19.69127384,1075.609536
6.9150,2.481928325,19.69359954,1075.609016
6.9200,2.507809286,19.69605985,1075.608577
6.9250,2.533844454,19.6986516,1075.608216
6.9300,2.559991347,19.70136487,1075.607932
6.9350,2.586276196,19.70421844,1075.607729
6.9400,2.612705217,19.70718105,1075.607599
6.9450,2.639281128,19.71020695,1075.607529
6.9500,2.665935978,19.71325726,1075.60751
6.9550,2.692680003,19.71634947,1075.607546
6.9600,2.719464214,19.71948656,1075.607642
6.9650,2.746299838,19.72263495,1075.607787
6.9700,2.773124885,19.72577999,1075.607979
6.9750,2.799892182,19.72894554,1075.608226
6.9800,2.826636771,19.73211994,1075.608524
6.9850,2.853304381,19.73524888,1075.608856
6.9900,2.879856178,19.73832444,1075.609222
6.9950,2.906241629,19.74134198,1075.60962
7.0000,2.932409724,19.74426991,1075.61004
7.0050,2.958352506,19.74714921,1075.610493
7.0100,2.98402521,19.74991218,1075.610958
7.0150,3.009432023,19.75256513,1075.611435
7.0200,3.034532912,19.75517466,1075.611942
7.0250,3.059302266,19.75769965,1075.612464
7.0300,3.083721602,19.7601804,1075.613011
7.0350,3.107783886,19.76263308,1075.613586
7.0400,3.13144928,19.76505706,1075.614186
7.0450,3.15469002,19.76744735,1075.614808
7.0500,3.177522188,19.76981079,1075.61545
7.0550,3.19994961,19.77213823,1075.616107
7.0600,3.221901116,19.77443228,1075.616778
7.0650,3.243388042,19.7766264,1075.617444
7.0700,3.264390249,19.77869713,1075.618094
7.0750,3.284857776,19.78064914,1075.618729
7.0800,3.304790655,19.782414,1075.619325
7.0850,3.324152871,19.78397464,1075.619876
7.0900,3.342918494,19.78527239,1075.620362
7.0950,3.361139568,19.78630452,1075.620782
7.1000,3.378790833,19.78707399,1075.621134
7.1050,3.395864576,19.7875261,1075.621401
7.1100,3.41241277,19.78766176,1075.621579
7.1150,3.428332503,19.78745671,1075.621662
7.1200,3.44372892,19.78691947,1075.621648
7.1250,3.458522477,19.78601269,1075.621525
7.1300,3.472746343,19.78473779,1075.621294
7.1350,3.48636739,19.78311814,1075.620958
7.1400,3.499440624,19.78116275,1075.620522
7.1450,3.511933953,19.7788337,1075.619971
7.1500,3.52382053,19.77616484,1075.619314
7.1550,3.53515316,19.77317151,1075.618555
7.1600,3.545960039,19.76986437,1075.617694
7.1650,3.556255483,19.7662714,1075.616742
7.1700,3.566045409,19.76238577,1075.615696
7.1750,3.575369484,19.75820732,1075.614557
7.1800,3.584218804,19.75377477,1075.613335
7.1850,3.592605453,19.7490538,1075.61202
7.1900,3.600555952,19.74407168,1075.610619
7.1950,3.608066891,19.73888787,1075.609151
7.2000,3.615220369,19.73346791,1075.607605
7.2050,3.621973134,19.72785542,1075.605997
7.2100,3.628317823,19.72200817,1075.60431
7.2150,3.634243417,19.71590017,1075.602539
7.2200,3.639762717,19.70955821,1075.600691
7.2250,3.64486948,19.70293357,1075.598752
7.2300,3.649590312,19.69609245,1075.596745
7.2350,3.653935688,19.68897408,1075.594651
7.2400,3.657907885,19.68164294,1075.59249
7.2450,3.661504286,19.67410219,1075.590263
7.2500,3.664765569,19.666346,1075.587969
7.2550,3.667697838,19.6584063,1075.585618
7.2600,3.670328122,19.65027866,1075.583209
7.2650,3.672676848,19.64199175,1075.580751
7.2700,3.674723078,19.63357394,1075.578252
7.2750,3.676483771,19.62500454,1075.575704
7.2800,3.677923556,19.6162939,1075.573114
7.2850,3.679094584,19.6074591,1075.570485
7.2900,3.679981521,19.59854626,1075.567832
7.2950,3.680665612,19.58954551,1075.565154
7.3000,3.681142557,19.58051806,1075.562467
7.3050,3.681402182,19.57144206,1075.559767
7.3100,3.681476923,19.56237968,1075.557071
7.3150,3.681349362,19.55334241,1075.554381
7.3200,3.681010895,19.54429545,1075.551689
7.3250,3.680476326,19.53525779,1075.549001
7.3300,3.679854204,19.52624494,1075.546323
7.3350,3.679150002,19.51728359,1075.543661
7.3400,3.678377879,19.50836775,1075.541016
7.3450,3.677561137,19.49952561,1075.538396
7.3500,3.676690762,19.49075432,1075.5358
7.3550,3.67573392,19.48203541,1075.533225
7.3600,3.674717815,19.47337588,1075.530672
7.3650,3.673617026,19.46481801,1075.528151
7.3700,3.672372102,19.45638097,1075.525666
7.3750,3.671052967,19.44801827,1075.523207
7.3800,3.669552288,19.43975492,1075.520777
7.3850,3.667873365,19.43157734,1075.518375
7.3900,3.666013892,19.42353331,1075.516011
7.3950,3.663902384,19.41554664,1075.513664
7.4000,3.661547948,19.40760127,1075.511331
7.4050,3.658970886,19.39975189,1075.509026
7.4100,3.656116754,19.39199678,1075.506746
7.4150,3.6530448,19.38435157,1075.504498
7.4200,3.649711568,19.37685128,1075.502291
7.4250,3.646144066,19.36944756,1075.500111
7.4300,3.642319519,19.36218136,1075.49797
7.4350,3.638255459,19.35503492,1075.495863
7.4400,3.633977274,19.34799968,1075.493787
7.4450,3.629482162,19.34112335,1075.491756
7.4500,3.624805716,19.33437771,1075.489765
7.4550,3.619910998,19.32775438,1075.48781
7.4600,3.614808381,19.32124763,1075.485889
7.4650,3.609469842,19.31487695,1075.484009
7.4700,3.603930335,19.30864193,1075.482168
7.4750,3.598107808,19.30259232,1075.480379
7.4800,3.591980101,19.29665087,1075.478621
7.4850,3.585521417,19.29087754,1075.476909
7.4900,3.578639262,19.28522955,1075.475232
7.4950,3.571335605,19.27972591,1075.473595
7.5000,3.563526192,19.27435582,1075.471994
7.5050,3.555209794,19.2690729,1075.470417
7.5100,3.546340452,19.26388286,1075.468867
7.5150,3.536792703,19.25876711,1075.467338
7.5200,3.526538877,19.25370234,1075.465825
7.5250,3.515549013,19.24873424,1075.464339
7.5300,3.503744785,19.24379914,1075.462865
7.5350,3.491115512,19.23892528,1075.461412
7.5400,3.477644169,19.23404532,1075.459965
7.5450,3.463330662,19.22919779,1075.458534
7.5500,3.448158837,19.22440348,1075.457128
7.5550,3.432135943,19.21962314,1075.45574
7.5600,3.415254786,19.21486876,1075.454375
7.5650,3.397543145,19.21010864,1075.453028
7.5700,3.379071278,19.2053304,1075.451701
7.5750,3.359871475,19.2005094,1075.450391
7.5800,3.3400114,19.19562789,1075.449093
7.5850,3.319497461,19.19068028,1075.447815
7.5900,3.298392444,19.18561609,1075.446545
7.5950,3.276739805,19.18041599,1075.44528
7.6000,3.254573228,19.17503625,1075.444015
7.6050,3.231948166,19.16946092,1075.442747
7.6100,3.208937428,19.16367461,1075.441476
7.6150,3.185628593,19.15766604,1075.440201
7.6200,3.162133294,19.15138668,1075.438911
7.6250,3.138496986,19.14489412,1075.437624
7.6300,3.114677129,19.13812773,1075.436327
7.6350,3.090707978,19.1310533,1075.435014
7.6400,3.066621989,19.12369781,1075.433695
7.6450,3.042443361,19.11606313,1075.43237
7.6500,3.018200652,19.1081032,1075.43103
7.6550,2.993909805,19.09984972,1075.429686
7.6600,2.969602965,19.09130755,1075.428341
7.6650,2.945251837,19.08247653,1075.426998
7.6700,2.920870538,19.0733767,1075.425664
7.6750,2.896463407,19.0640321,1075.424348
7.6800,2.872005999,19.05448394,1075.42306
7.6850,2.84757321,19.04477091,1075.421809
7.6900,2.823176009,19.03493375,1075.420605
7.6950,2.798828486,19.02503236,1075.419465
7.7000,2.774556067,19.01514331,1075.418404
7.7050,2.75031698,19.00526833,1075.417426
7.7100,2.726126703,18.99543871,1075.41654
7.7150,2.701986772,18.9856819,1075.415749
7.7200,2.6779167,18.97600379,1075.415057
7.7250,2.653915564,18.96647082,1075.414479
7.7300,2.630018099,18.95709186,1075.414014
7.7350,2.606257501,18.94785799,1075.413662
7.7400,2.582628895,18.93879145,1075.413425
7.7450,2.559199429,18.92991506,1075.41331
7.7500,2.535999634,18.92120581,1075.413309
7.7550,2.513037461,18.91267763,1075.413426
7.7600,2.490389528,18.90430399,1075.413652
7.7650,2.468117019,18.89609509,1075.413988
7.7700,2.446160083,18.88807727,1075.414442
7.7750,2.424596595,18.88022203,1075.415008
7.7800,2.403455465,18.87258953,1075.415696
7.7850,2.382692386,18.86511234,1075.416494
7.7900,2.362287118,18.85781862,1075.417409
7.7950,2.342182185,18.850688,1075.418443
7.8000,2.322315813,18.84370782,1075.419594
7.8050,2.302650654,18.83689914,1075.420873
7.8100,2.283182938,18.83025705,1075.422281
7.8150,2.263900976,18.82383454,1075.423828
7.8200,2.24475515,18.81764134,1075.425524
7.8250,2.225695181,18.81164708,1075.427364
7.8300,2.206789492,18.80585989,1075.42935
7.8350,2.18792793,18.8002697,1075.431486
7.8400,2.169120278,18.79490466,1075.433782
7.8450,2.150383727,18.7897297,1075.436232
7.8500,2.131692328,18.78476567,1075.438843
7.8550,2.113036504,18.77999456,1075.441617
7.8600,2.09442847,18.77539271,1075.444553
7.8650,2.075858389,18.77095203,1075.447652
7.8700,2.057334323,18.76663473,1075.450913
7.8750,2.038913166,18.76244614,1075.454342
7.8800,2.020557642,18.75834972,1075.457938
7.8850,2.002318047,18.75433097,1075.4617
7.8900,1.984230006,18.75037285,1075.465629
7.8950,1.96630557,18.74647116,1075.469731
7.9000,1.948600414,18.74259206,1075.474001
7.9050,1.931150142,18.73876488,1075.478449
7.9100,1.913964781,18.73497201,1075.483076
7.9150,1.897023555,18.7311903,1075.48788
7.9200,1.880325621,18.72746873,1075.492876
7.9250,1.863901166,18.72377524,1075.49806
7.9300,1.847714765,18.72015086,1075.503442
7.9350,1.831781616,18.71661033,1075.509027
7.9400,1.816065542,18.71318502,1075.514826
7.9450,1.800590524,18.70988596,1075.520837
7.9500,1.785309894,18.70678563,1075.527084
7.9550,1.77024372,18.7038624,1075.533556
7.9600,1.755337704,18.70119078,1075.540275
7.9650,1.740598576,18.69875387,1075.547233
7.9700,1.726031893,18.69658053,1075.554435
7.9750,1.711572858,18.69472656,1075.561891
7.9800,1.697282265,18.69315637,1075.569599
7.9850,1.683099329,18.69190212,1075.577564
7.9900,1.668985616,18.69094811,1075.585792
7.9950,1.654960896,18.69033335,1075.594284
8.0000,1.640981248,18.69005792,1075.603047
8.0050,1.627071665,18.69013891,1075.612082
8.0100,1.613232831,18.69054889,1075.621383
8.0150,1.599429453,18.69133463,1075.630963
8.0200,1.58567734,18.69248944,1075.640825
8.0250,1.571981787,18.69401864,1075.650965
8.0300,1.558334798,18.69592776,1075.66139
8.0350,1.54475291,18.6982506,1075.672103
8.0400,1.531243591,18.70096057,1075.683098
8.0450,1.517788564,18.70408254,1075.694384
8.0500,1.504381119,18.70762073,1075.705955
8.0550,1.491053302,18.71157091,1075.717804
8.0600,1.477763818,18.71596966,1075.729946
8.0650,1.464478738,18.72079866,1075.74237
8.0700,1.451231504,18.72608102,1075.755074
8.0750,1.437974828,18.73179177,1075.768055
8.0800,1.424633161,18.73788923,1075.78131
8.0850,1.411254858,18.74438858,1075.794832
8.0900,1.397816764,18.75129869,1075.808623
8.0950,1.384298391,18.75859867,1075.82267
8.1000,1.370708086,18.7662395,1075.836969
8.1050,1.357003857,18.77419809,1075.851513
8.1100,1.343161832,18.7824602,1075.866298
8.1150,1.329136688,18.79096226,1075.881316
8.1200,1.314957999,18.79970067,1075.896564
8.1250,1.300647508,18.80866975,1075.912038
8.1300,1.286130703,18.81780812,1075.927731
8.1350,1.271481155,18.82715997,1075.943645
8.1400,1.256679622,18.83667299,1075.959766
8.1450,1.241702842,18.84637114,1075.976103
8.1500,1.226602815,18.85618169,1075.992636
8.1550,1.211356429,18.86610303,1076.009367
8.1600,1.195976122,18.87613392,1076.026294
8.1650,1.180427423,18.88623641,1076.043412
8.1700,1.164726068,18.89641973,1076.060718
8.1750,1.148825792,18.90661603,1076.078197
8.1800,1.132784381,18.91683417,1076.095849
8.1850,1.11657915,18.92707774,1076.113669
8.1900,1.100212402,18.9373247,1076.131657
8.1950,1.083644091,18.94752493,1076.149799
8.2000,1.066847745,18.95772376,1076.1681
8.2050,1.049841285,18.96786927,1076.186557
8.2100,1.032587137,18.97796126,1076.205164
8.2150,1.015097838,18.98800958,1076.223923
8.2200,0.9974055672,18.99800212,1076.24283
8.2250,0.9794717088,19.00790703,1076.26188
8.2300,0.9612762623,19.01769713,1076.281074
8.2350,0.9428196016,19.02738327,1076.300413
8.2400,0.9241375039,19.03693404,1076.31989
8.2450,0.905162862,19.04631772,1076.339504
8.2500,0.8859200843,19.05555802,1076.359259
8.2550,0.8663903351,19.06468557,1076.379164
8.2600,0.8465970889,19.0736424,1076.399207
8.2650,0.8265310995,19.08254392,1076.419411
8.2700,0.8061999916,19.09138844,1076.439779
8.2750,0.7856301349,19.10011958,1076.460311
8.2800,0.7648124177,19.10882812,1076.481011
8.2850,0.7437641663,19.1174826,1076.501874
8.2900,0.7225524605,19.12617611,1076.522912
8.2950,0.7011475549,19.13491116,1076.544131
8.3000,0.679613273,19.14366413,1076.565524
8.3050,0.6579818869,19.15248068,1076.587094
8.3100,0.6362107708,19.16138893,1076.608848
8.3150,0.6144021461,19.17038314,1076.630774
8.3200,0.5925371091,19.17950253,1076.652878
8.3250,0.5707025276,19.18876191,1076.675161
8.3300,0.5488926135,19.19816847,1076.697618
8.3350,0.5271394678,19.20771852,1076.720241
8.3400,0.5054700569,19.21743038,1076.743033
8.3450,0.483944961,19.22729982,1076.76598
8.3500,0.4625689208,19.23734812,1076.789086
8.3550,0.4413959323,19.24759118,1076.812351
8.3600,0.4204524131,19.25797733,1076.835758
8.3650,0.3997547362,19.26854992,1076.859314
8.3700,0.3793303486,19.27925615,1076.883001
8.3750,0.3592025306,19.29010609,1076.906817
8.3800,0.3394139706,19.30112491,1076.930764
8.3850,0.3199745059,19.31230531,1076.954845
8.3900,0.3008727969,19.32362918,1076.979057
8.3950,0.2820871071,19.33512335,1077.003407
8.4000,0.2636337627,19.34681115,1077.027897
8.4050,0.2454865691,19.35867465,1077.052527
8.4100,0.2276536669,19.37075709,1077.077301
8.4150,0.2101638331,19.38303761,1077.10222
8.4200,0.1929701964,19.39552149,1077.127281
8.4250,0.1760613304,19.40820443,1077.152481
8.4300,0.1594163232,19.42110735,1077.177829
8.4350,0.1429642708,19.43417,1077.20332
8.4400,0.1267109643,19.44741054,1077.228962
8.4450,0.1105958681,19.46080326,1077.254744
8.4500,0.09459401317,19.4743164,1077.280673
8.4550,0.07870310245,19.48794245,1077.306739
8.4600,0.06286040142,19.50167034,1077.332949
8.4650,0.04704476009,19.51547926,1077.359298
8.4700,0.03118893415,19.52931838,1077.385776
8.4750,0.01530572925,19.54318667,1077.412386
8.4800,-0.0006691102956,19.55712506,1077.439131
8.4850,-0.01669464,19.57103203,1077.466
8.4900,-0.03284555481,19.58496588,1077.493004
8.4950,-0.04908375012,19.59892604,1077.52014
8.5000,-0.0653799749,19.61278919,1077.547377
8.5050,-0.08178337057,19.62658599,1077.574728
8.5100,-0.09826970109,19.64028675,1077.602194
8.5150,-0.1148531208,19.65387629,1077.629756
8.5200,-0.1316437893,19.66730287,1077.657424
8.5250,-0.1486352913,19.68056286,1077.685187
8.5300,-0.1657970076,19.69367703,1077.713049
8.5350,-0.1831662194,19.70661808,1077.741014
8.5400,-0.2007542974,19.71935889,1077.769066
8.5450,-0.2185319617,19.73192845,1077.797214
8.5500,-0.2364689028,19.74427957,1077.825454
8.5550,-0.2545872552,19.75642298,1077.853772
8.5600,-0.272873961,19.76838129,1077.882191
8.5650,-0.2913064344,19.78010488,1077.910684
8.5700,-0.3098807488,19.79159397,1077.939253
8.5750,-0.3285695055,19.802886,1077.967896
8.5800,-0.3473572992,19.8139671,1077.996605
8.5850,-0.3661984211,19.82487973,1078.0254
8.5900,-0.3851193872,19.83558309,1078.054269
8.5950,-0.4041236817,19.84610014,1078.083214
8.6000,-0.4232151198,19.85643192,1078.112227
8.6050,-0.4423917267,19.86659944,1078.141325
8.6100,-0.4615985273,19.87661093,1078.170496
8.6150,-0.4808287416,19.88643981,1078.199734
8.6200,-0.5000476611,19.89613019,1078.229045
8.6250,-0.519223227,19.90569581,1078.258432
8.6300,-0.5383207478,19.91514162,1078.287884
8.6350,-0.5573094591,19.92450315,1078.317416
8.6400,-0.5762096195,19.93379649,1078.347028
8.6450,-0.5950162245,19.94302264,1078.376714
8.6500,-0.6136964908,19.9521429,1078.406477
8.6550,-0.6322882874,19.96116418,1078.436298
8.6600,-0.6507383523,19.97015514,1078.466186
8.6650,-0.6691028513,19.97908098,1078.496143
8.6700,-0.6873719751,19.98791936,1078.526162
8.6750,-0.705563195,19.99669546,1078.556239
8.6800,-0.7236677454,20.00539433,1078.586367
8.6850,-0.7417479526,20.0140526,1078.616551
8.6900,-0.7597720962,20.02266702,1078.646796
8.6950,-0.7777691466,20.03120339,1078.67709
8.7000,-0.7957416429,20.03968482,1078.707431
8.7050,-0.8136991029,20.0481044,1078.737813
8.7100,-0.8316761703,20.05642526,1078.768243
8.7150,-0.8496963386,20.06468278,1078.798714
8.7200,-0.8677916262,20.07281947,1078.829225
8.7250,-0.8859895382,20.08081948,1078.859774
8.7300,-0.9043220096,20.08869776,1078.890362
8.7350,-0.9227830293,20.09646919,1078.920989
8.7400,-0.9414451592,20.10408797,1078.951649
8.7450,-0.9602722204,20.1115466,1078.982337
8.7500,-0.9793224977,20.11884655,1079.013057
8.7550,-0.9986275899,20.12597055,1079.043814
8.7600,-1.018140408,20.13290778,1079.074588
8.7650,-1.0378333,20.13968664,1079.105389
8.7700,-1.057666828,20.14628405,1079.13621
8.7750,-1.077665227,20.15271803,1079.167053
8.7800,-1.097802905,20.15893066,1079.1979
8.7850,-1.118134986,20.16494835,1079.228754
8.7900,-1.138644756,20.17073207,1079.25959
8.7950,-1.159353388,20.17627269,1079.290417
8.8000,-1.180279636,20.18162526,1079.321251
8.8050,-1.201383743,20.18680012,1079.352071
8.8100,-1.222665892,20.19180962,1079.382875
8.8150,-1.244100651,20.19662937,1079.413654
8.8200,-1.26557218,20.20132377,1079.444412
8.8250,-1.287087272,20.20587188,1079.47514
8.8300,-1.308644806,20.21028212,1079.505837
8.8350,-1.330201758,20.21456416,1079.536493
8.8400,-1.351715969,20.21878602,1079.567129
8.8450,-1.373161189,20.222951,1079.597743
8.8500,-1.394536097,20.22708563,1079.628328
8.8550,-1.415765643,20.23119207,1079.658885
8.8600,-1.436837164,20.23528503,1079.689397
8.8650,-1.457749631,20.23936242,1079.719875
8.8700,-1.478455927,20.24344279,1079.750321
8.8750,-1.498974276,20.24749999,1079.780715
8.8800,-1.51931832,20.25153769,1079.811075
8.8850,-1.539498527,20.25554722,1079.841386
8.8900,-1.559500788,20.25954969,1079.871666
8.8950,-1.579257716,20.26352656,1079.901884
8.9000,-1.598705282,20.26755022,1079.932057
8.9050,-1.617860174,20.2715593,1079.962163
8.9100,-1.636722823,20.27559053,1079.992217
8.9150,-1.655286453,20.27966673,1080.022232
8.9200,-1.673554136,20.28379076,1080.052202
8.9250,-1.691574066,20.28794637,1080.082114
8.9300,-1.709307347,20.29213126,1080.111981
8.9350,-1.726801773,20.29634409,1080.141799
8.9400,-1.744023545,20.30056904,1080.171552
8.9450,-1.760957666,20.30478956,1080.201237
8.9500,-1.777625502,20.30903664,1080.230851
8.9550,-1.794014014,20.31325973,1080.260387
8.9600,-1.810101849,20.31747421,1080.289854
8.9650,-1.825907055,20.32168606,1080.319239
8.9700,-1.841446322,20.32590813,1080.348554
8.9750,-1.856724262,20.33012544,1080.377802
8.9800,-1.871764613,20.33430447,1080.406983
8.9850,-1.886561901,20.33842643,1080.436087
8.9900,-1.901160546,20.34253138,1080.465126
8.9950,-1.915523674,20.34659907,1080.494089
9.0000,-1.929689857,20.35064714,1080.522998
9.0050,-1.943653275,20.35469453,1080.551854
9.0100,-1.957450988,20.35871342,1080.580655
9.0150,-1.971066837,20.36272249,1080.609409
9.0200,-1.984549636,20.36673588,1080.638121
9.0250,-1.997953235,20.3707477,1080.666802
9.0300,-2.011304681,20.37473722,1080.695449
9.0350,-2.024676548,20.3786861,1080.724072
9.0400,-2.038060983,20.38259379,1080.752693
9.0450,-2.051507782,20.38643369,1080.781304
9.0500,-2.065025012,20.3902637,1080.809925
9.0550,-2.078589245,20.39406992,1080.838552
9.0600,-2.092267791,20.39786419,1080.867211
9.0650,-2.106063462,20.40164666,1080.895908
9.0700,-2.120010391,20.40546877,1080.92466
9.0750,-2.134116529,20.40928959,1080.953466
9.0800,-2.148346293,20.4131434,1080.982338
9.0850,-2.162741611,20.41705824,1081.011295
9.0900,-2.177225801,20.42099924,1081.040322
9.0950,-2.191812411,20.42498766,1081.069423
9.1000,-2.206497887,20.42904572,1081.098599
9.1050,-2.221255366,20.43314151,1081.127858
9.1100,-2.236096845,20.43727104,1081.157197
9.1150,-2.251038409,20.44140645,1081.186622
9.1200,-2.26614157,20.44555275,1081.216137
9.1250,-2.281370194,20.4497168,1081.245749
9.1300,-2.296709808,20.45389618,1081.275454
9.1350,-2.31217295,20.45803401,1081.305232
9.1400,-2.327776625,20.46213213,1081.335086
9.1450,-2.343541306,20.46613351,1081.364995
9.1500,-2.359487784,20.47002431,1081.394956
9.1550,-2.375653801,20.4738155,1081.424966
9.1600,-2.392030832,20.47747844,1081.455034
9.1650,-2.408622098,20.48103048,1081.485154
9.1700,-2.425425269,20.48446789,1081.515312
9.1750,-2.44240696,20.48780515,1081.545521
9.1800,-2.459569826,20.49105375,1081.575771
9.1850,-2.476898418,20.49425639,1081.606065
9.1900,-2.494358806,20.49741984,1081.636399
9.1950,-2.511959925,20.5005757,1081.666779
9.2000,-2.529706179,20.50372315,1081.697203
9.2050,-2.547536106,20.50692318,1081.727683
9.2100,-2.56540676,20.51018488,1081.758194
9.2150,-2.583336767,20.5135005,1081.788735
9.2200,-2.601271091,20.51686753,1081.819285
9.2250,-2.619173966,20.52031421,1081.849846
9.2300,-2.637090508,20.5238326,1081.880409
9.2350,-2.654965718,20.52741599,1081.910968
9.2400,-2.67279512,20.53106545,1081.941511
9.2450,-2.690569831,20.53477117,1081.972034
9.2500,-2.708316601,20.53851895,1082.002515
9.2550,-2.72601641,20.5423422,1082.032974
9.2600,-2.743724076,20.5461965,1082.06339
9.2650,-2.761368952,20.55008807,1082.093756
9.2700,-2.77891647,20.55403211,1082.124057
9.2750,-2.796353123,20.55801554,1082.154289
9.2800,-2.81370178,20.56208716,1082.184461
9.2850,-2.830927764,20.56619367,1082.214547
9.2900,-2.848016706,20.5703296,1082.244542
9.2950,-2.864985742,20.57450571,1082.274442
9.3000,-2.881828899,20.57870793,1082.304243
9.3050,-2.898576533,20.58291469,1082.333946
9.3100,-2.915220094,20.58714942,1082.363548
9.3150,-2.93177677,20.59139701,1082.393067
9.3200,-2.948233705,20.59566994,1082.422496
9.3250,-2.964533531,20.59997016,1082.451831
9.3300,-2.980647032,20.60430198,1082.481079
9.3350,-2.996516909,20.6086354,1082.510212
9.3400,-3.012154457,20.61297004,1082.539223
9.3450,-3.027511224,20.61731097,1082.568114
9.3500,-3.042624174,20.62161095,1082.596887
9.3550,-3.057524545,20.62584777,1082.625541
9.3600,-3.072197259,20.62997281,1082.654066
9.3650,-3.086655586,20.63395561,1082.682446
9.3700,-3.100925612,20.63772145,1082.710664
9.3750,-3.114989903,20.64127681,1082.73872
9.3800,-3.128903208,20.64457979,1082.766609
9.3850,-3.142649744,20.64758696,1082.794325
9.3900,-3.156286372,20.6502803,1082.821879
9.3950,-3.169821782,20.6526571,1082.849275
9.4000,-3.183287545,20.65468,1082.87651
9.4050,-3.196709064,20.65632446,1082.903572
9.4100,-3.210111044,20.65760054,1082.930484
9.4150,-3.223468552,20.65857121,1082.957259
9.4200,-3.236775697,20.65918075,1082.983886
9.4250,-3.250046337,20.65947141,1083.01037
9.4300,-3.263287289,20.65944829,1083.036722
9.4350,-3.276520486,20.65912653,1083.062968
9.4400,-3.289767878,20.6584866,1083.089086
9.4450,-3.303032052,20.65759424,1083.115119
9.4500,-3.316335275,20.65644727,1083.141071
9.4550,-3.329656381,20.65503158,1083.166957
9.4600,-3.343040546,20.65340556,1083.192782
9.4650,-3.356501635,20.65157678,1083.218574
9.4700,-3.370055688,20.6495652,1083.244351
9.4750,-3.38375786,20.64743169,1083.270145
9.4800,-3.397553219,20.64518699,1083.295952
9.4850,-3.411449134,20.64282275,1083.321785
9.4900,-3.425431706,20.64035399,1083.347634
9.4950,-3.439505536,20.63782005,1083.373519
9.5000,-3.453673417,20.63520924,1083.399446
9.5050,-3.467943532,20.63254719,1083.425411
9.5100,-3.482305024,20.6298311,1083.451442
9.5150,-3.496749467,20.62711209,1083.477548
9.5200,-3.511280758,20.62436103,1083.50372
9.5250,-3.525919433,20.62161519,1083.52998
9.5300,-3.540643001,20.61889202,1083.55633
9.5350,-3.555470334,20.61618377,1083.582763
9.5400,-3.570391177,20.61350746,1083.609296
9.5450,-3.58545681,20.61087194,1083.635925
9.5500,-3.600598325,20.60829245,1083.662645
9.5550,-3.615829302,20.60572685,1083.689438
9.5600,-3.631164078,20.60317464,1083.716302
9.5650,-3.646584887,20.60060212,1083.743226
9.5700,-3.662158834,20.59799742,1083.770223
9.5750,-3.677860413,20.59536123,1083.79728
9.5800,-3.693647821,20.59268456,1083.824372
9.5850,-3.709573929,20.59001183,1083.85154
9.5900,-3.725631851,20.5873418,1083.878766
9.5950,-3.741803,20.58469299,1083.906072
9.6000,-3.758067916,20.58206803,1083.933436
9.6050,-3.77441745,20.57949506,1083.960876
9.6100,-3.790829503,20.57698666,1083.988389
9.6150,-3.807263768,20.57454936,1084.015953
9.6200,-3.82367278,20.57220703,1084.043561
9.6250,-3.84009517,20.56994218,1084.071231
9.6300,-3.856479742,20.56775858,1084.098924
9.6350,-3.872823456,20.56565642,1084.126655
9.6400,-3.889130887,20.56367565,1084.154434
9.6450,-3.905387887,20.56180982,1084.182258
9.6500,-3.921510704,20.56003965,1084.210084
9.6550,-3.937513971,20.55840692,1084.237931
9.6600,-3.953315219,20.55690101,1084.265759
9.6650,-3.968925166,20.55554365,1084.293584
9.6700,-3.98428303,20.55439042,1084.32141
9.6750,-3.999369164,20.55345247,1084.349227
9.6800,-4.014174236,20.55269091,1084.377025
9.6850,-4.028670276,20.55216109,1084.404804
9.6900,-4.042829798,20.55186524,1084.432547
9.6950,-4.056630186,20.55178774,1084.460232
9.7000,-4.070047585,20.55197822,1084.487861
9.7050,-4.083062526,20.55243182,1084.515442
9.7100,-4.095685186,20.55313445,1084.542941
9.7150,-4.107943638,20.55403791,1084.570349
9.7200,-4.119820494,20.55515825,1084.597662
9.7250,-4.131365091,20.5564837,1084.624888
9.7300,-4.142547689,20.55796249,1084.651986
9.7350,-4.153380542,20.55962159,1084.678954
9.7400,-4.163896658,20.56145123,1084.705801
9.7450,-4.174081621,20.56338703,1084.732467
9.7500,-4.183926644,20.56540911,1084.758938
9.7550,-4.19351356,20.56750472,1084.785229
9.7600,-4.202786903,20.56961206,1084.811297
9.7650,-4.211795049,20.57166125,1084.837099
9.7700,-4.220567632,20.57362887,1084.86263
9.7750,-4.229089498,20.57545026,1084.887847
9.7800,-4.237404341,20.57709183,1084.912736
9.7850,-4.245539406,20.57852114,1084.937288
9.7900,-4.253536216,20.57973381,1084.961509
9.7950,-4.261400139,20.58068393,1084.985387
9.8000,-4.269146602,20.58140605,1085.008942
9.8050,-4.276787911,20.58186295,1085.03216
9.8100,-4.284348938,20.58202957,1085.055023
9.8150,-4.291824223,20.58190252,1085.077532
9.8200,-4.299223477,20.58152473,1085.099711
9.8250,-4.306602668,20.58084873,1085.121569
9.8300,-4.313923298,20.57990532,1085.143113
9.8350,-4.321186462,20.5787175,1085.16434
9.8400,-4.328444354,20.57729289,1085.185292
9.8450,-4.335649622,20.57563876,1085.205961
9.8500,-4.342836533,20.57373218,1085.226366
9.8550,-4.350015141,20.5716071,1085.246512
9.8600,-4.357122083,20.56932578,1085.266416
9.8650,-4.364211231,20.56687033,1085.286102
9.8700,-4.371256281,20.5642397,1085.305558
9.8750,-4.37827067,20.56146247,1085.324819
9.8800,-4.385254351,20.55854849,1085.343888
9.8850,-4.392179252,20.55550713,1085.362767
9.8900,-4.399055763,20.55227776,1085.381442
9.8950,-4.405813806,20.54891332,1085.399912
9.9000,-4.412464511,20.54539676,1085.418177
9.9050,-4.418950449,20.54171281,1085.436203
9.9100,-4.425258825,20.53788828,1085.454008
9.9150,-4.431406686,20.53388617,1085.471582
9.9200,-4.437368882,20.52968245,1085.48891
9.9250,-4.443097846,20.52532425,1085.505984
9.9300,-4.448589066,20.52080284,1085.522822
9.9350,-4.453790208,20.51614411,1085.539387
9.9400,-4.458632281,20.51128599,1085.55563
9.9450,-4.463123028,20.50623893,1085.571553
9.9500,-4.467293648,20.50098774,1085.587165
9.9550,-4.471106921,20.49552316,1085.602442
9.9600,-4.474651013,20.48985266,1085.617423
9.9650,-4.47794168,20.48394897,1085.632112
9.9700,-4.481028141,20.47776263,1085.646503
9.9750,-4.484001052,20.4712906,1085.660648
9.9800,-4.486876791,20.46459176,1085.674574
9.9850,-4.489695657,20.45757938,1085.688263
9.9900,-4.492483619,20.45031336,1085.70176
9.9950,-4.495260466,20.44279462,1085.715073
10.0000,-4.498048108,20.43501335,1085.728223
10.0050,-4.500920871,20.42699143,1085.741239
10.0100,-4.503858213,20.41879639,1085.75416
10.0150,-4.506950738,20.4104137,1085.767024
10.0200,-4.510204757,20.40190019,1085.779857
10.0250,-4.513644655,20.39325232,1085.79267
10.0300,-4.517292625,20.38455019,1085.805511
10.0350,-4.52117873,20.37579889,1085.818395
10.0400,-4.525302831,20.36699519,1085.83132
10.0450,-4.529695909,20.3581585,1085.844316
10.0500,-4.534387419,20.34933917,1085.857409
10.0550,-4.539331165,20.34054659,1085.870571
10.0600,-4.544612816,20.33181074,1085.883846
10.0650,-4.550197372,20.32315468,1085.897242
10.0700,-4.556048767,20.31459924,1085.910734
10.0750,-4.562172591,20.30618228,1085.92434
10.0800,-4.568517908,20.29791288,1085.938053
10.0850,-4.575060369,20.28982031,1085.951854
10.0900,-4.581762435,20.2819205,1085.965732
10.0950,-4.588612786,20.27421786,1085.979672
10.1000,-4.595628073,20.26668762,1085.993674
10.1050,-4.602774112,20.25937866,1086.007748
10.1100,-4.610051936,20.25233833,1086.021923
10.1150,-4.617443229,20.24558212,1086.036194
10.1200,-4.624938917,20.23914981,1086.050587
10.1250,-4.632434524,20.23308732,1086.065068
10.1300,-4.639983349,20.22738633,1086.079657
10.1350,-4.647588124,20.2220451,1086.094378
10.1400,-4.655179273,20.21709776,1086.109196
10.1450,-4.66278215,20.21256191,1086.124148
10.1500,-4.670386847,20.20850598,1086.139264
10.1550,-4.677976958,20.20492747,1086.154544
10.1600,-4.685586233,20.20178545,1086.16999
10.1650,-4.693196805,20.19910895,1086.185595
10.1700,-4.700766532,20.19690828,1086.201342
10.1750,-4.708320974,20.19513301,1086.217214
10.1800,-4.715881676,20.1937538,1086.233228
10.1850,-4.723464391,20.19272927,1086.249354
10.1900,-4.731048222,20.19202476,1086.265573
10.1950,-4.738726542,20.19158615,1086.281891
10.2000,-4.746501732,20.19135822,1086.298302
10.2050,-4.754346944,20.1913729,1086.314787
10.2100,-4.762263177,20.19152228,1086.331295
10.2150,-4.77025449,20.19179677,1086.347821
10.2200,-4.778380051,20.19214282,1086.364362
10.2250,-4.78663049,20.19248791,1086.380881
10.2300,-4.794987004,20.19279911,1086.397347
10.2350,-4.803492802,20.19299324,1086.41376
10.2400,-4.812204919,20.19306443,1086.43014
10.2450,-4.821122356,20.1929671,1086.446467
10.2500,-4.830222447,20.19267436,1086.462721
10.2550,-4.839529578,20.19214154,1086.478904
10.2600,-4.849045671,20.19133623,1086.494991
10.2650,-4.858696988,20.19024762,1086.510932
10.2700,-4.86853465,20.18884447,1086.526761
10.2750,-4.878505824,20.18710963,1086.542427
10.2800,-4.88860392,20.18498611,1086.55789
10.2850,-4.898838318,20.18250766,1086.573179
10.2900,-4.909207432,20.17962307,1086.588269
10.2950,-4.919710991,20.17629934,1086.60314
10.3000,-4.93035488,20.17250361,1086.617762
10.3050,-4.941136295,20.16822736,1086.63214
10.3100,-4.952052437,20.16341666,1086.646218
10.3150,-4.963012836,20.15809801,1086.659951
10.3200,-4.974061543,20.15220105,1086.673326
10.3250,-4.985194615,20.14573068,1086.686343
10.3300,-4.996427863,20.13866832,1086.698985
10.3350,-5.007709526,20.13103034,1086.711224
10.3400,-5.019017669,20.12279572,1086.72302
10.3450,-5.030339461,20.11404611,1086.734397
10.3500,-5.041637157,20.10475055,1086.745305
10.3550,-5.05290001,20.09494562,1086.755739
10.3600,-5.064076555,20.08463143,1086.765651
10.3650,-5.075173527,20.07383791,1086.775046
10.3700,-5.08619228,20.06260911,1086.783947
10.3750,-5.09713762,20.05092338,1086.792317
10.3800,-5.107996272,20.03881664,1086.800153
10.3850,-5.118771508,20.02630855,1086.807461
10.3900,-5.129433819,20.01345686,1086.814244
10.3950,-5.139927325,20.00039791,1086.820526
10.4000,-5.150269413,19.98715373,1086.826313
10.4050,-5.160425136,19.9737786,1086.831607
10.4100,-5.170360116,19.96036159,1086.836414
10.4150,-5.180042702,19.94700393,1086.840761
10.4200,-5.189422072,19.93374676,1086.844613
10.4250,-5.198507205,19.92061685,1086.847975
10.4300,-5.207233402,19.90770913,1086.850834
10.4350,-5.215587876,19.89507295,1086.85319
10.4400,-5.223563509,19.88274517,1086.855039
10.4450,-5.231189349,19.87074379,1086.856397
10.4500,-5.238401276,19.85912364,1086.857219
10.4550,-5.245216186,19.84791521,1086.857511
10.4600,-5.251640703,19.83712865,1086.857269
10.4650,-5.257658037,19.8267841,1086.856466
10.4700,-5.263301378,19.81692801,1086.855149
10.4750,-5.268565963,19.80758211,1086.8533
10.4800,-5.27345449,19.79873951,1086.850889
10.4850,-5.277942268,19.79044595,1086.847914
10.4900,-5.282078106,19.78274859,1086.844417
10.4950,-5.285855731,19.77561617,1086.840365
10.5000,-5.28928083,19.76907635,1086.835761
10.5050,-5.292403364,19.7630498,1086.830606
10.5100,-5.295283658,19.75757924,1086.82493
10.5150,-5.297882372,19.75267278,1086.818722
10.5200,-5.300190913,19.74829557,1086.81196
10.5250,-5.302230421,19.74440048,1086.804625
10.5300,-5.304068339,19.74096558,1086.796753
10.5350,-5.305699453,19.7380012,1086.788338
10.5400,-5.307070891,19.7354672,1086.779337
10.5450,-5.308213489,19.73336088,1086.769783
10.5500,-5.309159067,19.73165021,1086.759654
10.5550,-5.309913621,19.73031737,1086.74897
10.5600,-5.310520339,19.72926825,1086.737728
10.5650,-5.311019794,19.72848568,1086.725941
10.5700,-5.311417937,19.72795805,1086.713603
10.5750,-5.31170672,19.72766791,1086.700702
10.5800,-5.311957243,19.72750449,1086.687252
10.5850,-5.312210473,19.72743819,1086.673252
10.5900,-5.312506515,19.72741122,1086.658721
10.5950,-5.312870288,19.72743941,1086.643681
10.6000,-5.313317216,19.72748082,1086.628141
10.6050,-5.313826395,19.7275019,1086.612076
10.6100,-5.314418787,19.72747738,1086.595518
10.6150,-5.315198176,19.72736315,1086.578525
10.6200,-5.316107814,19.72723092,1086.561096
10.6250,-5.317098599,19.72704916,1086.543193
10.6300,-5.318179789,19.72683211,1086.524844
10.6350,-5.319378014,19.72657162,1086.506066
10.6400,-5.320679077,19.7263106,1086.486886
10.6450,-5.322074751,19.72597665,1086.467271
10.6500,-5.323530929,19.72562443,1086.447247
10.6550,-5.325043908,19.72524594,1086.426831
10.6600,-5.326617171,19.72483743,1086.406037
10.6650,-5.328197044,19.72440881,1086.384828
10.6700,-5.329799733,19.72392858,1086.36322
10.6750,-5.331391732,19.72341581,1086.341223
10.6800,-5.333025845,19.72290831,1086.318883
10.6850,-5.334634078,19.72245375,1086.296197
10.6900,-5.336238994,19.7220336,1086.273169
10.6950,-5.337843231,19.72161591,1086.24981
10.7000,-5.339383356,19.72126408,1086.226108
10.7050,-5.340900692,19.7209658,1086.202086
10.7100,-5.342420589,19.72067377,1086.177752
10.7150,-5.343907668,19.72038409,1086.153095
10.7200,-5.345392553,19.72010809,1086.128144
10.7250,-5.346904691,19.7198783,1086.102934
10.7300,-5.348457241,19.71966741,1086.077473
10.7350,-5.350079196,19.7195188,1086.051806
10.7400,-5.35177585,19.71941498,1086.025943
10.7450,-5.353459567,19.71942692,1085.999863
10.7500,-5.355178164,19.71955228,1085.973599
10.7550,-5.356918022,19.71980215,1085.947165
10.7600,-5.358641222,19.72021861,1085.920558
10.7650,-5.360347721,19.72078976,1085.893798
10.7700,-5.362042348,19.72147817,1085.866875
10.7750,-5.363681742,19.72230577,1085.839786
10.7800,-5.365271371,19.7232705,1085.812546
10.7850,-5.366831574,19.72437599,1085.785193
10.7900,-5.368335407,19.72561458,1085.757697
10.7950,-5.369804088,19.72693154,1085.730071
10.8000,-5.371229501,19.7283384,1085.702316
10.8050,-5.372630824,19.72980585,1085.674445
10.8100,-5.374022407,19.73129177,1085.646472
10.8150,-5.375461386,19.73273848,1085.618391
10.8200,-5.377009819,19.73411373,1085.590234
10.8250,-5.37869764,19.73542157,1085.562025
10.8300,-5.380565526,19.73660724,1085.533768
10.8350,-5.38265815,19.73767101,1085.505497
10.8400,-5.385039248,19.7386009,1085.477249
10.8450,-5.38770538,19.73935713,1085.449019
10.8500,-5.390630381,19.73997097,1085.42083
10.8550,-5.393826988,19.74037642,1085.39266
10.8600,-5.3972443,19.74068296,1085.364528
10.8650,-5.400924071,19.74084772,1085.336451
10.8700,-5.404857297,19.74084076,1085.30842
10.8750,-5.409091948,19.74064868,1085.28047
10.8800,-5.413595298,19.74032989,1085.252625
10.8850,-5.418336462,19.7399035,1085.224879
10.8900,-5.423284322,19.73938304,1085.197227
10.8950,-5.428411971,19.73873006,1085.169658
10.9000,-5.433739548,19.73796041,1085.142193
10.9050,-5.439309102,19.73706825,1085.114846
10.9100,-5.445113303,19.73604516,1085.087618
10.9150,-5.451085207,19.73491255,1085.060491
10.9200,-5.457264365,19.73360732,1085.033469
10.9250,-5.463673733,19.73211128,1085.006545
10.9300,-5.470294601,19.73042357,1084.979725
10.9350,-5.477120383,19.72853185,1084.953011
10.9400,-5.484159288,19.72641029,1084.926415
10.9450,-5.491415049,19.7240875,1084.899948
10.9500,-5.498930718,19.72154947,1084.873616
10.9550,-5.506663068,19.71886086,1084.847424
10.9600,-5.51459929,19.71606289,1084.821383
10.9650,-5.522730094,19.71319045,1084.795507
10.9700,-5.530998779,19.71023064,1084.769747
10.9750,-5.539406799,19.70727267,1084.744157
10.9800,-5.547867862,19.7043123,1084.718684
10.9850,-5.556415529,19.70137558,1084.69335
10.9900,-5.565027855,19.6984591,1084.668147
10.9950,-5.573654493,19.69555675,1084.643043
11.0000,-5.58232109,19.69265616,1084.618049
11.0050,-5.591005846,19.68976405,1084.593158
11.0100,-5.599644096,19.68691188,1084.568343
11.0150,-5.608283886,19.68408453,1084.54361
11.0200,-5.616917103,19.68124798,1084.518951
11.0250,-5.62547353,19.67845466,1084.494355
11.0300,-5.633931914,19.67572368,1084.469789
11.0350,-5.642227468,19.67303316,1084.445221
11.0400,-5.650356031,19.67043393,1084.420654
11.0450,-5.658337417,19.66787903,1084.396068
11.0500,-5.666165595,19.66533402,1084.371442
11.0550,-5.673810185,19.66284449,1084.34678
11.0600,-5.681267604,19.66040518,1084.322058
11.0650,-5.688515381,19.65801939,1084.297237
11.0700,-5.695542499,19.65569877,1084.272305
11.0750,-5.702335701,19.65341142,1084.247232
11.0800,-5.708926654,19.65114303,1084.222037
11.0850,-5.715313391,19.64885536,1084.196679
11.0900,-5.721492862,19.64655729,1084.17118
11.0950,-5.727466537,19.64424464,1084.145541
11.1000,-5.733254809,19.6419104,1084.119744
11.1050,-5.738860739,19.63955406,1084.093781
11.1100,-5.744291378,19.63715328,1084.067648
11.1150,-5.749556679,19.63472697,1084.041363
11.1200,-5.754633449,19.63225697,1084.014899
11.1250,-5.759529909,19.62980769,1083.988271
11.1300,-5.764209564,19.62739634,1083.961458
11.1350,-5.768638005,19.62504349,1083.934443
11.1400,-5.772846936,19.62271061,1083.90722
11.1450,-5.776833217,19.62042538,1083.879793
11.1500,-5.780640776,19.61815547,1083.852166
11.1550,-5.784239325,19.61598342,1083.824336
11.1600,-5.78771541,19.613871,1083.796331
11.1650,-5.791057335,19.61179424,1083.76814
11.1700,-5.794226632,19.60982111,1083.739764
11.1750,-5.797235115,19.60792872,1083.71121
11.1800,-5.800059771,19.6060983,1083.682436
11.1850,-5.802690068,19.60433054,1083.653458
11.1900,-5.80511193,19.60258731,1083.624239
11.1950,-5.807373157,19.60089738,1083.594829
11.2000,-5.80945956,19.59922582,1083.565221
11.2050,-5.811324521,19.59755062,1083.53539
11.2100,-5.812962008,19.59586197,1083.505324
11.2150,-5.814369089,19.59413913,1083.475017
11.2200,-5.815565852,19.59235847,1083.444493
11.2250,-5.816556236,19.59057451,1083.413788
11.2300,-5.817372043,19.58868226,1083.382872
11.2350,-5.818051984,19.58664887,1083.351766
11.2400,-5.818590748,19.58450687,1083.320473
11.2450,-5.818995563,19.5822303,1083.288995
11.2500,-5.819287589,19.57980451,1083.257346
11.2550,-5.819476588,19.57718377,1083.225496
11.2600,-5.819578209,19.57432622,1083.193437
11.2650,-5.819588681,19.57124177,1083.161168
11.2700,-5.819533234,19.56795498,1083.128722
11.2750,-5.819342474,19.56441218,1083.096036
11.2800,-5.819086457,19.56065493,1083.063153
11.2850,-5.818714024,19.55662446,1083.030037
11.2900,-5.818214594,19.55239562,1082.996707
11.2950,-5.817621109,19.54794792,1082.963164
11.3000,-5.816893279,19.54335251,1082.929395
11.3050,-5.816013116,19.53859012,1082.895393
11.3100,-5.814982358,19.53371116,1082.861155
11.3150,-5.813763405,19.52871987,1082.826667
11.3200,-5.812311955,19.52362543,1082.791904
11.3250,-5.81066797,19.51842899,1082.756869
11.3300,-5.808817433,19.51309184,1082.721564
11.3350,-5.806716804,19.50761818,1082.685957
11.3400,-5.804379593,19.50197912,1082.650039
11.3450,-5.801809132,19.496151,1082.613811
11.3500,-5.798961135,19.4901588,1082.577251
11.3550,-5.795831582,19.48394489,1082.54034
11.3600,-5.792441278,19.47753152,1082.50309
11.3650,-5.788815486,19.47089288,1082.465504
11.3700,-5.784914421,19.4640618,1082.427567
11.3750,-5.780817125,19.45705556,1082.389319
11.3800,-5.776471741,19.449935,1082.350731
11.3850,-5.771906974,19.44265613,1082.311813
11.3900,-5.767096754,19.43522996,1082.272545
11.3950,-5.762106868,19.42764027,1082.23295
11.4000,-5.756928306,19.4199153,1082.193057
11.4050,-5.751541337,19.41209762,1082.152866
11.4100,-5.745921266,19.40419321,1082.112376
11.4150,-5.740058114,19.39619901,1082.071591
11.4200,-5.733949255,19.38816118,1082.030531
11.4250,-5.727579378,19.38008098,1081.989182
11.4300,-5.720981558,19.37198666,1081.947581
11.4350,-5.714211032,19.36384191,1081.905762
11.4400,-5.707218314,19.35570873,1081.863715
11.4450,-5.700033457,19.3475969,1081.821443
11.4500,-5.692648422,19.33951397,1081.778956
11.4550,-5.685128156,19.33143329,1081.736287
11.4600,-5.677403743,19.32334539,1081.693428
11.4650,-5.669492469,19.31527846,1081.650402
11.4700,-5.661397425,19.30718396,1081.60721
11.4750,-5.653120785,19.29909966,1081.563861
11.4800,-5.644662079,19.29105304,1081.520388
11.4850,-5.635998017,19.28308371,1081.47679
11.4900,-5.62713663,19.27522234,1081.433089
11.4950,-5.618043524,19.26741543,1081.389274
11.5000,-5.608661117,19.2596795,1081.345337
11.5050,-5.598975871,19.25205346,1081.301298
11.5100,-5.589035492,19.24450974,1081.257196
11.5150,-5.578857782,19.23700269,1081.213033
11.5200,-5.568437288,19.22953715,1081.168809
11.5250,-5.557818014,19.22204437,1081.124552
11.5300,-5.54702325,19.21451348,1081.080293
11.5350,-5.536007944,19.20693706,1081.036019
11.5400,-5.52478148,19.19927257,1080.99175
11.5450,-5.513346366,19.19152129,1080.947491
11.5500,-5.501683584,19.18368047,1080.90325
11.5550,-5.489826092,19.17572489,1080.859069
11.5600,-5.477689418,19.16769627,1080.814935
11.5650,-5.465289484,19.15958239,1080.770862
11.5700,-5.452589169,19.15137905,1080.726831
11.5750,-5.439643625,19.14312405,1080.682874
11.5800,-5.426408519,19.13479157,1080.638979
11.5850,-5.412908628,19.12642246,1080.595169
11.5900,-5.39918954,19.11795767,1080.55145
11.5950,-5.385236274,19.10942572,1080.507834
11.6000,-5.371070056,19.10076027,1080.46433
11.6050,-5.356687884,19.09201827,1080.420943
11.6100,-5.342088655,19.08308299,1080.377686
11.6150,-5.327297446,19.07396014,1080.334565
11.6200,-5.312378746,19.06466529,1080.291614
11.6250,-5.297347804,19.05517336,1080.24883
11.6300,-5.282171674,19.04554054,1080.206211
11.6350,-5.266877284,19.03579236,1080.163778
11.6400,-5.251431569,19.02593905,1080.121523
11.6450,-5.235849936,19.01601586,1080.079456
11.6500,-5.220148775,19.00604334,1080.037599
11.6550,-5.204368897,18.99603507,1079.99595
11.6600,-5.188538182,18.98594275,1079.95451
11.6650,-5.172672573,18.97582613,1079.913301
11.6700,-5.156804669,18.96566812,1079.872326
11.6750,-5.140925452,18.95548507,1079.831575
11.6800,-5.125078289,18.94528983,1079.791076
11.6850,-5.109232214,18.93512462,1079.750813
11.6900,-5.093397537,18.92499641,1079.710797
11.6950,-5.077514654,18.91499873,1079.671019
11.7000,-5.061577463,18.90510022,1079.631457
11.7050,-5.045610275,18.89532158,1079.592122
11.7100,-5.029594321,18.88573945,1079.553014
11.7150,-5.01355018,18.87636775,1079.514136
11.7200,-4.997431988,18.86726768,1079.475477
11.7250,-4.981287425,18.85839354,1079.437061
11.7300,-4.965052643,18.84978965,1079.398872
11.7350,-4.948681187,18.84145156,1079.360884
11.7400,-4.932224362,18.83335903,1079.323121
11.7450,-4.915657412,18.82549218,1079.285593
11.7500,-4.898981258,18.81787404,1079.248298
11.7550,-4.882150597,18.81045053,1079.211214
11.7600,-4.865167632,18.80321186,1079.174347
11.7650,-4.84799977,18.79617678,1079.137699
11.7700,-4.830670681,18.7893499,1079.101277
11.7750,-4.813135646,18.78271246,1079.065078
11.7800,-4.795386366,18.77625862,1079.029093
11.7850,-4.777443878,18.7699188,1078.993333
11.7900,-4.759276254,18.76369217,1078.957793
11.7950,-4.740873134,18.75758781,1078.922467
11.8000,-4.72227082,18.75161359,1078.887378
11.8050,-4.703482618,18.74571281,1078.852533
11.8100,-4.684464094,18.73993217,1078.81793
11.8150,-4.665154517,18.73425188,1078.783557
11.8200,-4.645565435,18.72865494,1078.749425
11.8250,-4.625654875,18.72314286,1078.715516
11.8300,-4.605410865,18.71777659,1078.681857
11.8350,-4.584818288,18.71255331,1078.648438
11.8400,-4.563900672,18.70750006,1078.615271
11.8450,-4.542646518,18.70260724,1078.58235
11.8500,-4.52110147,18.69784933,1078.549697
11.8550,-4.499241627,18.69320693,1078.517288
11.8600,-4.47717089,18.68866774,1078.485155
11.8650,-4.454908319,18.68419812,1078.453298
11.8700,-4.432504989,18.67976137,1078.421723
11.8750,-4.409965181,18.67533252,1078.390427
11.8800,-4.387352344,18.67085319,1078.359422
11.8850,-4.364705051,18.6663155,1078.328728
11.8900,-4.342007989,18.66169794,1078.298328
11.8950,-4.319320524,18.65700689,1078.268241
11.9000,-4.296666738,18.65220144,1078.238463
11.9050,-4.274119992,18.64725785,1078.209013
11.9100,-4.251733519,18.642258,1078.179899
11.9150,-4.229504156,18.63719024,1078.151119
11.9200,-4.207439155,18.63205216,1078.122661
11.9250,-4.185550822,18.62684675,1078.094528
11.9300,-4.16390665,18.62156286,1078.066728
11.9350,-4.142522611,18.61616844,1078.03924
11.9400,-4.121516155,18.61068158,1078.012096
11.9450,-4.100855851,18.605079,1077.98527
11.9500,-4.080587042,18.59935946,1077.958761
11.9550,-4.060677702,18.59349826,1077.932559
11.9600,-4.041124812,18.58751793,1077.906669
11.9650,-4.021928767,18.58143656,1077.881088
11.9700,-4.003092522,18.57524386,1077.855813
11.9750,-3.984580183,18.56900917,1077.830845
11.9800,-3.966343542,18.56270155,1077.806155
11.9850,-3.948354328,18.55639556,1077.781748
11.9900,-3.930588567,18.55011014,1077.757605
11.9950,-3.912998217,18.54385494,1077.733704
12.0000,-3.895563377,18.53768241,1077.710044
12.0050,-3.87829285,18.53156131,1077.68662
12.0100,-3.861182598,18.52548619,1077.663423
12.0150,-3.844196185,18.51942344,1077.640428
12.0200,-3.827347545,18.51331026,1077.617628
12.0250,-3.810645878,18.50713503,1077.595027
12.0300,-3.794156795,18.50082195,1077.572627
12.0350,-3.777884203,18.49437243,1077.550439
12.0400,-3.761816665,18.4877966,1077.528458
12.0450,-3.745966371,18.48105685,1077.506676
12.0500,-3.730344165,18.47411822,1077.485096
12.0550,-3.714959303,18.46706041,1077.463734
12.0600,-3.699753075,18.45988942,1077.442563
12.0650,-3.684734187,18.45255239,1077.421577
12.0700,-3.669878775,18.44510638,1077.400778
12.0750,-3.655170074,18.43752745,1077.380149
12.0800,-3.640594483,18.42980523,1077.359695
12.0850,-3.626081823,18.42198477,1077.339388
12.0900,-3.611701473,18.41405619,1077.319254
12.0950,-3.597408056,18.40604136,1077.299277
12.1000,-3.583165349,18.39796379,1077.279444
12.1050,-3.568912016,18.3898304,1077.259734
12.1100,-3.554589905,18.3816648,1077.240123
12.1150,-3.540246455,18.37353206,1077.220632
12.1200,-3.525817676,18.36548182,1077.201248
12.1250,-3.511323364,18.35754015,1077.181982
12.1300,-3.496701359,18.3496901,1077.162802
12.1350,-3.481990566,18.34197841,1077.143734
12.1400,-3.467180402,18.33438457,1077.124758
12.1450,-3.452278403,18.32692484,1077.105885
12.1500,-3.437263749,18.3196333,1077.087109
12.1550,-3.422169457,18.31247584,1077.068431
12.1600,-3.40695291,18.30543189,1077.049842
12.1650,-3.391625081,18.29854276,1077.031355
12.1700,-3.376208523,18.29177411,1077.012976
12.1750,-3.360740135,18.28511822,1076.994721
12.1800,-3.345181654,18.27859423,1076.976587
12.1850,-3.329541158,18.27216936,1076.958567
12.1900,-3.313803233,18.26587162,1076.94067
12.1950,-3.297983169,18.25963478,1076.922893
12.2000,-3.282083308,18.25350262,1076.905242
12.2050,-3.266102481,18.24743276,1076.887712
12.2100,-3.250020431,18.24139708,1076.87029
12.2150,-3.233860536,18.23540326,1076.852986
12.2200,-3.217647072,18.22942236,1076.835805
12.2250,-3.201335113,18.22346741,1076.818727
12.2300,-3.184942821,18.21755336,1076.801761
12.2350,-3.168460977,18.21164997,1076.784899
12.2400,-3.151804758,18.20578592,1076.768124
12.2450,-3.13500636,18.19997239,1076.751444
12.2500,-3.11804359,18.19418781,1076.734857
12.2550,-3.10093086,18.18848516,1076.71837
12.2600,-3.083603947,18.18282953,1076.701953
12.2650,-3.066090887,18.17721469,1076.685622
12.2700,-3.048405589,18.17160879,1076.669373
12.2750,-3.030496561,18.1659554,1076.653186
12.2800,-3.012348279,18.16025387,1076.637064
12.2850,-2.993956173,18.15446706,1076.621006
12.2900,-2.97528449,18.14858444,1076.605004
12.2950,-2.956260715,18.14259456,1076.589037
12.3000,-2.936879672,18.13644049,1076.573101
12.3050,-2.917050285,18.13014352,1076.557172
12.3100,-2.89670958,18.12366277,1076.541229
12.3150,-2.875774051,18.11701537,1076.525254
12.3200,-2.85426479,18.11024189,1076.509267
12.3250,-2.83209075,18.10327655,1076.493226
12.3300,-2.80918048,18.09615521,1076.477119
12.3350,-2.785523726,18.08883137,1076.460934
12.3400,-2.761128808,18.08126039,1076.444667
12.3450,-2.735984092,18.07344531,1076.428314
12.3500,-2.710122194,18.06535996,1076.411884
12.3550,-2.683531762,18.05693969,1076.395363
12.3600,-2.656282264,18.04817108,1076.378774
12.3650,-2.628433883,18.03906689,1076.362137
12.3700,-2.599964028,18.02954375,1076.345429
12.3750,-2.570957275,18.01962635,1076.328686
12.3800,-2.541405503,18.00930595,1076.311898
12.3850,-2.511380869,17.99854699,1076.295089
12.3900,-2.480845168,17.98735759,1076.278247
12.3950,-2.449841132,17.97569374,1076.261384
12.4000,-2.418371211,17.96356354,1076.244502
12.4050,-2.386500425,17.95098734,1076.227624
12.4100,-2.354231288,17.93794616,1076.210751
12.4150,-2.321542993,17.92441229,1076.193876
12.4200,-2.288477699,17.91035523,1076.177007
12.4250,-2.254989147,17.89577553,1076.160129
12.4300,-2.221089214,17.88072177,1076.143254
12.4350,-2.186786614,17.86516295,1076.126377
12.4400,-2.152058977,17.84914007,1076.109501
12.4450,-2.116952983,17.83263915,1076.092639
12.4500,-2.081434837,17.81562578,1076.075773
12.4550,-2.04556196,17.79821139,1076.058938
12.4600,-2.009395434,17.78039072,1076.042145
12.4650,-1.972993488,17.76217048,1076.025416
12.4700,-1.936457495,17.7436012,1076.00878
12.4750,-1.8998184,17.72474769,1075.992257
12.4800,-1.86316592,17.70556646,1075.975864
12.4850,-1.826504608,17.68607761,1075.959597
12.4900,-1.789906058,17.66628049,1075.943475
12.4950,-1.753408591,17.64626559,1075.927519
12.5000,-1.71707472,17.62599959,1075.911734
12.5050,-1.680911571,17.60554098,1075.89613
12.5100,-1.64498561,17.58492634,1075.880724
12.5150,-1.609394158,17.56420129,1075.865548
12.5200,-1.574125119,17.54337691,1075.850593
12.5250,-1.539250633,17.52250546,1075.835884
12.5300,-1.504800685,17.50157162,1075.821422
12.5350,-1.470814801,17.48064551,1075.807226
12.5400,-1.437360605,17.45970949,1075.793305
12.5450,-1.404400652,17.43880043,1075.779648
12.5500,-1.372000028,17.41791487,1075.766265
12.5550,-1.340139796,17.3970553,1075.753149
12.5600,-1.308894582,17.37625646,1075.740315
12.5650,-1.278208051,17.35550702,1075.72774
12.5700,-1.248069959,17.3348695,1075.715429
12.5750,-1.2184961,17.31431343,1075.703376
12.5800,-1.189508594,17.29389924,1075.691587
12.5850,-1.16106058,17.27362766,1075.680044
12.5900,-1.133186186,17.25351904,1075.668757
12.5950,-1.105942868,17.23356712,1075.657731
12.6000,-1.079222567,17.21382608,1075.646948
12.6050,-1.053035524,17.1942687,1075.636401
12.6100,-1.027323262,17.17489627,1075.626073
12.6150,-1.002088812,17.15573049,1075.615959
12.6200,-0.9772709061,17.13672513,1075.606037
12.6250,-0.9528474647,17.11790144,1075.596306
12.6300,-0.9287711647,17.0992584,1075.586748
12.6350,-0.9050103417,17.08079113,1075.577355
12.6400,-0.8815064318,17.0624657,1075.568108
12.6450,-0.858252239,17.04428806,1075.559008
12.6500,-0.8351993809,17.02624624,1075.550039
12.6550,-0.8122935533,17.00835073,1075.541191
12.6600,-0.7895790521,16.99052107,1075.532464
12.6650,-0.766971739,16.97277264,1075.523842
12.6700,-0.7444937842,16.95503422,1075.515325
12.6750,-0.7220476378,16.93732813,1075.50689
12.6800,-0.6996769045,16.91961727,1075.498546
12.6850,-0.6773790275,16.90185821,1075.490291
12.6900,-0.655236257,16.88405298,1075.48214
12.6950,-0.63320783,16.86620146,1075.474085
12.7000,-0.611289782,16.84822145,1075.46612
12.7050,-0.5894446123,16.83013862,1075.45824
12.7100,-0.5676708599,16.81193712,1075.45044
12.7150,-0.5459313578,16.79366264,1075.442714
12.7200,-0.5241930026,16.77532034,1075.435057
12.7250,-0.5025005171,16.75695264,1075.427482
12.7300,-0.4808506657,16.73853548,1075.419984
12.7350,-0.4592396019,16.72013343,1075.41257
12.7400,-0.4376760793,16.70173925,1075.405237
12.7450,-0.4161282795,16.68339365,1075.397986
12.7500,-0.3946016473,16.6651359,1075.390817
12.7550,-0.3730820653,16.64693286,1075.383724
12.7600,-0.3515321094,16.62886238,1075.376703
12.7650,-0.3299359859,16.61091673,1075.369747
12.7700,-0.3081964713,16.59315842,1075.362844
12.7750,-0.2862491203,16.57557312,1075.355975
12.7800,-0.2641055783,16.55828174,1075.349151
12.7850,-0.241771925,16.54135192,1075.342379
12.7900,-0.2192560442,16.52482002,1075.335664
12.7950,-0.1964848299,16.50866599,1075.328983
12.8000,-0.1734164201,16.49299104,1075.322339
12.8050,-0.1499864036,16.47782006,1075.315716
12.8100,-0.1261859896,16.46321409,1075.309116
12.8150,-0.1019682766,16.44917259,1075.302529
12.8200,-0.07735107755,16.43574381,1075.29596
12.8250,-0.05233777618,16.42293305,1075.289409
12.8300,-0.0269392696,16.41077311,1075.282885
12.8350,-0.001143893843,16.3992366,1075.27638
12.8400,0.02504248324,16.38832326,1075.269898
12.8450,0.05152093548,16.37802818,1075.263459
12.8500,0.07831626419,16.36835386,1075.257059
12.8550,0.1053276607,16.35931042,1075.250717
12.8600,0.1324880015,16.35084652,1075.244445
12.8650,0.1596854897,16.34296342,1075.238263
12.8700,0.1868443015,16.33560857,1075.232181
12.8750,0.2138503645,16.32881318,1075.226224
12.8800,0.2406606954,16.32245827,1075.220392
12.8850,0.2671896601,16.31652883,1075.214699
12.8900,0.293403229,16.31097795,1075.209146
12.8950,0.3192439665,16.30577388,1075.203742
12.9000,0.3445883393,16.30086591,1075.198501
12.9050,0.3693791843,16.29622,1075.193433
12.9100,0.3935152611,16.29185803,1075.188555
12.9150,0.4169605039,16.28770378,1075.183865
12.9200,0.4397218513,16.28377036,1075.17936
12.9250,0.4617810973,16.28006858,1075.175038
12.9300,0.483089503,16.27656105,1075.170902
12.9350,0.5036830854,16.27324723,1075.166944
12.9400,0.5235345852,16.27016249,1075.163167
12.9450,0.5426943424,16.26729704,1075.159556
12.9500,0.5611498376,16.26465715,1075.156114
12.9550,0.5789023826,16.26219572,1075.152832
12.9600,0.5960098055,16.26000256,1075.149701
12.9650,0.6124896471,16.25805081,1075.146717
12.9700,0.6283111579,16.25642791,1075.143886
12.9750,0.6434285352,16.2550505,1075.141208
12.9800,0.657852837,16.25397333,1075.138681
12.9850,0.6715774297,16.25321394,1075.136307
12.9900,0.6847221334,16.25271314,1075.134061
12.9950,0.6972824018,16.25251481,1075.131942
13.0000,0.7092133766,16.2526301,1075.12996
13.0050,0.720511385,16.25304948,1075.128109
13.0100,0.7311896992,16.25370896,1075.126387
13.0150,0.7412272439,16.2546142,1075.124794
13.0200,0.7506486275,16.25575508,1075.123324
13.0250,0.7595126875,16.25707777,1075.121964
13.0300,0.7678426839,16.25857623,1075.120711
13.0350,0.7757179166,16.26019665,1075.119547
13.0400,0.7831478282,16.26192062,1075.118469
13.0450,0.7901767215,16.26374412,1075.117466
13.0500,0.7968074833,16.26562504,1075.116537
13.0550,0.8031016779,16.26757939,1075.115673
13.0600,0.8090246095,16.26957799,1075.114876
13.0650,0.8146175516,16.27165239,1075.114139
13.0700,0.8198651205,16.27377854,1075.113465
13.0750,0.8246983854,16.27596215,1075.112861
13.0800,0.8291886935,16.27816087,1075.112313
13.0850,0.8332514747,16.28039171,1075.111835
13.0900,0.8368717274,16.28261272,1075.111424
13.0950,0.8399816511,16.28486638,1075.111097
13.1000,0.8424794031,16.28713548,1075.110865
13.1050,0.8442629735,16.28941599,1075.110743
13.1100,0.8452716116,16.29168308,1075.110737
13.1150,0.8454701247,16.29393439,1075.110856
13.1200,0.844809942,16.29618138,1075.111106
13.1250,0.8432434792,16.29838374,1075.111491
13.1300,0.8407246365,16.30052409,1075.11202
13.1350,0.8372241318,16.30268066,1075.1127
13.1400,0.8327595659,16.30482095,1075.113527
13.1450,0.827337544,16.30693529,1075.114501
13.1500,0.82091045,16.30899349,1075.115629
13.1550,0.8135235849,16.31090501,1075.116902
13.1600,0.8051902202,16.31269365,1075.118322
13.1650,0.7959104982,16.31427192,1075.119885
13.1700,0.7856946676,16.31559796,1075.12159
13.1750,0.7745453973,16.3165716,1075.123434
13.1800,0.7624127468,16.31719022,1075.125426
13.1850,0.7493203667,16.31742162,1075.127562
13.1900,0.735247765,16.31717043,1075.129845
13.1950,0.7201915447,16.31641136,1075.132277
13.2000,0.7041725826,16.31511275,1075.134857
13.2050,0.6871926745,16.3132807,1075.137588
13.2100,0.6693216481,16.31089091,1075.140459
13.2150,0.6505927258,16.30798906,1075.143475
13.2200,0.6309972885,16.304551,1075.14664
13.2250,0.6106228124,16.30066795,1075.149949
13.2300,0.5895516834,16.29635158,1075.153393
13.2350,0.5678200244,16.29166854,1075.156974
13.2400,0.5455424733,16.28663566,1075.160674
13.2450,0.5227773103,16.28133157,1075.164492
13.2500,0.4996291362,16.27581534,1075.168416
13.2550,0.4761384262,16.27014862,1075.172445
13.2600,0.4524075929,16.26436802,1075.176567
13.2650,0.428487174,16.25857004,1075.180778
13.2700,0.4044939431,16.25278321,1075.185062
13.2750,0.3805059056,16.24709209,1075.18941
13.2800,0.35664164,16.24155228,1075.193805
13.2850,0.3330529833,16.23620379,1075.19822
13.2900,0.309774434,16.23110071,1075.202654
13.2950,0.2868421179,16.22629787,1075.207102
13.3000,0.2643438732,16.22181594,1075.211546
13.3050,0.2423636766,16.21766262,1075.215973
13.3100,0.2209029584,16.21389672,1075.220383
13.3150,0.1999890038,16.21047362,1075.224769
13.3200,0.179650623,16.20740322,1075.229128
13.3250,0.1599090232,16.2047109,1075.233455
13.3300,0.1407276626,16.20238105,1075.237758
13.3350,0.1220817226,16.20047542,1075.242047
13.3400,0.1039823177,16.19898072,1075.246318
13.3450,0.08638901062,16.19788277,1075.250581
13.3500,0.0692445396,16.197251,1075.254848
13.3550,0.05253124492,16.19705858,1075.259123
13.3600,0.03626225101,16.19729214,1075.263405
13.3650,0.02037922591,16.19797142,1075.267708
13.3700,0.004799092225,16.19909657,1075.272051
13.3750,-0.01045942538,16.20066064,1075.276434
13.3800,-0.02545501168,16.20267237,1075.280873
13.3850,-0.04022992035,16.20510994,1075.285376
13.3900,-0.05483903617,16.20802449,1075.289959
13.3950,-0.06934908253,16.21137509,1075.294633
13.4000,-0.08377711084,16.21517555,1075.299408
13.4050,-0.09819192348,16.21940913,1075.304301
13.4100,-0.1126086695,16.22408332,1075.309322
13.4150,-0.1270668866,16.22917412,1075.314479
13.4200,-0.1416230786,16.23468606,1075.319792
13.4250,-0.1562923286,16.24060124,1075.325266
13.4300,-0.1710607569,16.2469246,1075.3309
13.4350,-0.1859899475,16.25359973,1075.336713
13.4400,-0.2010856094,16.2606319,1075.342713
13.4450,-0.2163446769,16.26802554,1075.348902
13.4500,-0.2317897323,16.27574075,1075.355287
13.4550,-0.2474236594,16.28380662,1075.361872
13.4600,-0.2632125985,16.2921581,1075.368651
13.4650,-0.279186253,16.30083779,1075.375639
13.4700,-0.2952788543,16.30982618,1075.382822
13.4750,-0.3115018191,16.31912827,1075.390205
13.4800,-0.3277898504,16.32875952,1075.397784
13.4850,-0.3441768489,16.33866433,1075.405567
13.4900,-0.3606473594,16.34891,1075.413558
13.4950,-0.3771432922,16.35946298,1075.421747
13.5000,-0.3936860907,16.37035498,1075.430144
13.5050,-0.4101943113,16.38153688,1075.438739
13.5100,-0.4267271255,16.39302433,1075.447549
13.5150,-0.4433077761,16.40482153,1075.456581
13.5200,-0.4598850495,16.41690744,1075.465827
13.5250,-0.476508382,16.42924335,1075.475303
13.5300,-0.4932201532,16.44182486,1075.485019
13.5350,-0.510005241,16.45466474,1075.494975
13.5400,-0.5268685522,16.46777381,1075.50518
13.5450,-0.543827636,16.48110089,1075.515636
13.5500,-0.5609063541,16.49464705,1075.526352
13.5550,-0.5780378259,16.50846558,1075.537323
13.5600,-0.5952434108,16.52255391,1075.548556
13.5650,-0.6125254984,16.53689209,1075.560053
13.5700,-0.6298930182,16.55146708,1075.571821
13.5750,-0.6473082589,16.56631552,1075.583852
13.5800,-0.6647992541,16.58137461,1075.596154
13.5850,-0.6823790153,16.59666066,1075.608732
13.5900,-0.7000507374,16.61220164,1075.621585
13.5950,-0.7177914364,16.62791903,1075.6347
13.6000,-0.7356192768,16.64383367,1075.648091
13.6050,-0.7535524531,16.65992426,1075.661753
13.6100,-0.7715974037,16.67619538,1075.67569
13.6150,-0.7897442532,16.69265076,1075.689895
13.6200,-0.8080310431,16.70925752,1075.704378
13.6250,-0.8264858781,16.72601694,1075.719142
13.6300,-0.8451047995,16.7429313,1075.734184
13.6350,-0.8639139875,16.75992097,1075.749501
