type,name,time_units,begin_time,frequency,count,units
signal_3d,"Noraxon MyoMotion-Trajectories-Lateral humeral epicondyle RT","s",0.0000,200,5172,"mm"

time,x,y,z
0.0000,209.8999515,-24.66858481,1235.803101
0.0050,209.8170848,-24.63067343,1235.81797
0.0100,209.7341966,-24.5928164,1235.832857
0.0150,209.6512868,-24.55501374,1235.847762
0.0200,209.5626768,-24.51535694,1235.863416
0.0250,209.4690558,-24.47433915,1235.879639
0.0300,209.3712008,-24.43251779,1235.896226
0.0350,209.2699464,-24.39049587,1235.912964
0.0400,209.1661548,-24.34889927,1235.929633
0.0450,209.0606838,-24.30835254,1235.946021
0.0500,208.9543593,-24.2694561,1235.961924
0.0550,208.847958,-24.23276315,1235.977158
0.0600,208.7421995,-24.19875989,1235.991564
0.0650,208.6377387,-24.16785253,1236.005006
0.0700,208.5351593,-24.14036195,1236.017375
0.0750,208.434973,-24.11652574,1236.028592
0.0800,208.3376249,-24.09650045,1236.038598
0.0850,208.2435007,-24.08035604,1236.047364
0.0900,208.152935,-24.06806926,1236.054881
0.0950,208.066217,-24.05952612,1236.061163
0.1000,207.9835886,-24.054533,1236.066247
0.1050,207.9052414,-24.05283512,1236.070183
0.1100,207.8313207,-24.05414143,1236.073037
0.1150,207.7619343,-24.05814818,1236.074882
0.1200,207.6971619,-24.06455516,1236.075792
0.1250,207.6370604,-24.07307567,1236.075844
0.1300,207.5816674,-24.08344408,1236.075115
0.1350,207.5309995,-24.09542118,1236.073681
0.1400,207.4850477,-24.10879417,1236.071618
0.1450,207.4437697,-24.1233708,1236.069006
0.1500,207.4070824,-24.13897117,1236.065922
0.1550,207.3042285,-24.14194195,1236.068737
0.1600,207.2071569,-24.14687192,1236.070819
0.1650,207.1161275,-24.15259459,1236.072307
0.1700,207.0302534,-24.15928601,1236.073325
0.1750,206.9498633,-24.16621524,1236.073881
0.1800,206.8742178,-24.17371079,1236.074064
0.1850,206.8035546,-24.18102361,1236.074022
0.1900,206.7379824,-24.18930226,1236.073624
0.1950,206.6771734,-24.19683355,1236.072993
0.2000,206.6205078,-24.20450663,1236.072214
0.2050,206.5677849,-24.21171249,1236.071351
0.2100,206.5186313,-24.21822013,1236.070516
0.2150,206.4732493,-24.2239,1236.069718
0.2200,206.4310399,-24.22777927,1236.0691
0.2250,206.3911584,-24.22971273,1236.068716
0.2300,206.3540369,-24.23068399,1236.068431
0.2350,206.3188996,-24.23116754,1236.068345
0.2400,206.2849234,-24.22913224,1236.068613
0.2450,206.2535768,-24.22555401,1236.069116
0.2500,206.2235959,-24.21999093,1236.069963
0.2550,206.1948093,-24.2119809,1236.071193
0.2600,206.1674498,-24.20099145,1236.072878
0.2650,206.1409103,-24.18812229,1236.074846
0.2700,206.1155163,-24.17291686,1236.077082
0.2750,206.0906322,-24.15602103,1236.079575
0.2800,206.0651112,-24.1370731,1236.082429
0.2850,206.0398871,-24.11669771,1236.085448
0.2900,206.0148833,-24.09552204,1236.088601
0.2950,205.9895276,-24.07316371,1236.092063
0.3000,205.9643581,-24.04928659,1236.095701
0.3050,205.9388308,-24.02544511,1236.09951
0.3100,205.912775,-24.00136941,1236.103481
0.3150,205.8870919,-23.97702905,1236.107453
0.3200,205.8624552,-23.95156119,1236.111455
0.3250,205.8379349,-23.9256163,1236.115538
0.3300,205.8148158,-23.89883671,1236.119552
0.3350,205.7927577,-23.87240394,1236.123489
0.3400,205.7719396,-23.84550322,1236.127384
0.3450,205.7524388,-23.81917864,1236.131049
0.3500,205.7344012,-23.79213559,1236.134588
0.3550,205.7190655,-23.76592346,1236.137678
0.3600,205.7039441,-23.74081313,1236.140663
0.3650,205.6910249,-23.71671156,1236.143331
0.3700,205.6794057,-23.69374152,1236.145699
0.3750,205.6688933,-23.6708933,1236.147929
0.3800,205.6600453,-23.64862971,1236.149859
0.3850,205.6513829,-23.6279627,1236.151684
0.3900,205.6443199,-23.60830381,1236.153181
0.3950,205.6376883,-23.58859226,1236.154628
0.4000,205.6320085,-23.5687893,1236.155937
0.4050,205.6265716,-23.54974831,1236.157139
0.4100,205.621339,-23.53097862,1236.15827
0.4150,205.6166465,-23.51234005,1236.159303
0.4200,205.6118723,-23.49477479,1236.160275
0.4250,205.6064923,-23.47678795,1236.161306
0.4300,205.6009001,-23.45973711,1236.162229
0.4350,205.5946701,-23.44312865,1236.163217
0.4400,205.5875961,-23.4273389,1236.164278
0.4450,205.5799012,-23.41236993,1236.165395
0.4500,205.5720792,-23.39768084,1236.166554
0.4550,205.5647229,-23.38363965,1236.167547
0.4600,205.5573262,-23.36924966,1236.168644
0.4650,205.5503511,-23.35535352,1236.169656
0.4700,205.5446527,-23.34103612,1236.170539
0.4750,205.5395732,-23.32770955,1236.171308
0.4800,205.5352366,-23.31436336,1236.171954
0.4850,205.532267,-23.30150659,1236.172373
0.4900,205.5289635,-23.28867724,1236.172809
0.4950,205.5264426,-23.27634961,1236.173051
0.5000,205.5246346,-23.26498811,1236.173118
0.5050,205.5228157,-23.25355471,1236.173181
0.5100,205.520986,-23.24206408,1236.173289
0.5150,205.5190433,-23.23092315,1236.173365
0.5200,205.5168802,-23.22054984,1236.173423
0.5250,205.5153993,-23.21040338,1236.173473
0.5300,205.514121,-23.19999827,1236.173559
0.5350,205.5123618,-23.18925695,1236.173696
0.5400,205.5107607,-23.17875944,1236.173871
0.5450,205.5087452,-23.16851364,1236.174047
0.5500,205.5067713,-23.15847158,1236.174247
0.5550,205.5043206,-23.14820597,1236.17454
0.5600,205.5005743,-23.13886337,1236.174981
0.5650,205.4969322,-23.12835262,1236.17559
0.5700,205.4920794,-23.11976562,1236.17633
0.5750,205.4870571,-23.11157992,1236.177069
0.5800,205.4825164,-23.10427671,1236.177807
0.5850,205.478621,-23.0973966,1236.1786
0.5900,205.4749236,-23.09044068,1236.179552
0.5950,205.4722147,-23.08485616,1236.180323
0.6000,205.4703886,-23.07960225,1236.181122
0.6050,205.4702863,-23.07518974,1236.181713
0.6100,205.4713286,-23.07163325,1236.182255
0.6150,205.4736791,-23.06799877,1236.182774
0.6200,205.4773107,-23.06527261,1236.183176
0.6250,205.4830277,-23.06361573,1236.18341
0.6300,205.4897561,-23.06356186,1236.183449
0.6350,205.4974692,-23.0646772,1236.183378
0.6400,205.506739,-23.06703126,1236.18311
0.6450,205.5166184,-23.07079375,1236.182809
0.6500,205.5275267,-23.07599161,1236.182372
0.6550,205.5393991,-23.08220924,1236.181829
0.6600,205.5526795,-23.08944713,1236.181085
0.6650,205.5663003,-23.09835891,1236.180196
0.6700,205.5807448,-23.10899919,1236.179116
0.6750,205.5964262,-23.12090929,1236.177806
0.6800,205.6133036,-23.13516669,1236.176248
0.6850,205.6307004,-23.15131548,1236.17449
0.6900,205.6495399,-23.1688954,1236.172498
0.6950,205.6688447,-23.18898668,1236.170218
0.7000,205.6890603,-23.21109178,1236.167748
0.7050,205.710181,-23.23477709,1236.165121
0.7100,205.7325702,-23.2609503,1236.162174
0.7150,205.7553459,-23.28927479,1236.159116
0.7200,205.7784465,-23.3192035,1236.1559
0.7250,205.802928,-23.35216091,1236.152335
0.7300,205.8276477,-23.38661161,1236.148752
0.7350,205.8541832,-23.42246449,1236.144807
0.7400,205.8810639,-23.460281,1236.140736
0.7450,205.9096488,-23.49935364,1236.136388
0.7500,205.9384049,-23.53969538,1236.132042
0.7550,205.967317,-23.58122386,1236.12769
0.7600,205.9963753,-23.62382926,1236.123262
0.7650,206.0255817,-23.66744358,1236.118842
0.7700,206.0539926,-23.71344354,1236.114352
0.7750,206.0826009,-23.75974514,1236.109878
0.7800,206.1114302,-23.80671671,1236.105429
0.7850,206.1396023,-23.8552632,1236.100948
0.7900,206.1681897,-23.90430901,1236.096385
0.7950,206.1972573,-23.95377462,1236.091808
0.8000,206.2259246,-24.00315988,1236.087303
0.8050,206.2552699,-24.05283564,1236.08266
0.8100,206.2843754,-24.10278512,1236.077957
0.8150,206.3141591,-24.15283147,1236.073135
0.8200,206.3437265,-24.20300747,1236.068289
0.8250,206.3725606,-24.25273716,1236.0635
0.8300,206.4004505,-24.30240443,1236.058788
0.8350,206.4283445,-24.35195047,1236.054074
0.8400,206.4562138,-24.40226386,1236.049179
0.8450,206.4837134,-24.45180102,1236.044393
0.8500,206.5102959,-24.50010532,1236.039801
0.8550,206.5358262,-24.54865021,1236.035292
0.8600,206.5610203,-24.59583519,1236.030878
0.8650,206.5848162,-24.64418498,1236.026491
0.8700,206.60794,-24.69069154,1236.022285
0.8750,206.6293137,-24.7368882,1236.01826
0.8800,206.6498759,-24.78284539,1236.014283
0.8850,206.6688729,-24.82805739,1236.010407
0.8900,206.6858796,-24.8731451,1236.006623
0.8950,206.7003742,-24.91730945,1236.003083
0.9000,206.7134718,-24.96204554,1235.999421
0.9050,206.7246625,-25.0060273,1235.995899
0.9100,206.7333601,-25.04877217,1235.992499
0.9150,206.7388723,-25.09200584,1235.989217
0.9200,206.7423727,-25.13526235,1235.985893
0.9250,206.7432579,-25.17853651,1235.982546
0.9300,206.7429108,-25.22198213,1235.978919
0.9350,206.7410221,-25.26473637,1235.975174
0.9400,206.7370933,-25.3078391,1235.971171
0.9450,206.7323028,-25.35032179,1235.966892
0.9500,206.7258352,-25.39330868,1235.962315
0.9550,206.7176882,-25.43636989,1235.957537
0.9600,206.7080724,-25.47953442,1235.95252
0.9650,206.6970086,-25.5222838,1235.947353
0.9700,206.6854894,-25.56358005,1235.942046
0.9750,206.6717149,-25.60595426,1235.93666
0.9800,206.6564333,-25.6477378,1235.931236
0.9850,206.6397648,-25.68937381,1235.925795
0.9900,206.6206406,-25.73078187,1235.920541
0.9950,206.5993391,-25.77178884,1235.915513
1.0000,206.5762808,-25.81271777,1235.910509
1.0050,206.5511274,-25.85340644,1235.905631
1.0100,206.5237757,-25.89324787,1235.900927
1.0150,206.4949446,-25.9330108,1235.896184
1.0200,206.4643611,-25.97204452,1235.891424
1.0250,206.4307379,-26.01069725,1235.886758
1.0300,206.3953458,-26.04927498,1235.881951
1.0350,206.3567279,-26.08811186,1235.877221
1.0400,206.3152103,-26.12661746,1235.87255
1.0450,206.2699546,-26.16513178,1235.867997
1.0500,206.2213586,-26.20361474,1235.863536
1.0550,206.1692657,-26.24198644,1235.859125
1.0600,206.1130538,-26.28028944,1235.854973
1.0650,206.0543618,-26.31853803,1235.85073
1.0700,205.993755,-26.35580153,1235.846402
1.0750,205.9308478,-26.39368756,1235.841863
1.0800,205.8653624,-26.43100918,1235.837169
1.0850,205.7985081,-26.46796835,1235.832078
1.0900,205.7297268,-26.50497662,1235.826653
1.0950,205.659834,-26.54239503,1235.820553
1.1000,205.5891966,-26.58066424,1235.813714
1.1050,205.5172199,-26.62077111,1235.806114
1.1100,205.4452578,-26.66213663,1235.797469
1.1150,205.3722207,-26.7053476,1235.787941
1.1200,205.2994496,-26.74975548,1235.777381
1.1250,205.2266541,-26.79627027,1235.76576
1.1300,205.155293,-26.84573915,1235.752715
1.1350,205.0853035,-26.89854924,1235.738223
1.1400,205.016784,-26.95393756,1235.722299
1.1450,204.9491054,-27.01320538,1235.704889
1.1500,204.8839152,-27.07690905,1235.685665
1.1550,204.8212102,-27.14453257,1235.664689
1.1600,204.7603916,-27.2160219,1235.642035
1.1650,204.7014009,-27.29074386,1235.617786
1.1700,204.6445957,-27.36890255,1235.5919
1.1750,204.5906152,-27.45050752,1235.564408
1.1800,204.5381093,-27.53404791,1235.535606
1.1850,204.4866413,-27.61987448,1235.505819
1.1900,204.4377946,-27.70721726,1235.474767
1.1950,204.3901085,-27.79537064,1235.442941
1.2000,204.3430469,-27.88251622,1235.410613
1.2050,204.2962243,-27.96939606,1235.377775
1.2100,204.2501951,-28.05528985,1235.344581
1.2150,204.2058161,-28.13832664,1235.311045
1.2200,204.1611559,-28.21895407,1235.277408
1.2250,204.1162872,-28.29615496,1235.243844
1.2300,204.0706279,-28.36887772,1235.21051
1.2350,204.0241427,-28.43775132,1235.177376
1.2400,203.9766604,-28.50248872,1235.144551
1.2450,203.9283084,-28.56334229,1235.111874
1.2500,203.8793873,-28.62073425,1235.07928
1.2550,203.8303145,-28.67365868,1235.046825
1.2600,203.7812036,-28.72324453,1235.014357
1.2650,203.7332584,-28.76920779,1234.981706
1.2700,203.6852284,-28.81333488,1234.948828
1.2750,203.6390962,-28.85501636,1234.915415
1.2800,203.5943304,-28.894668,1234.881463
1.2850,203.5515604,-28.93275687,1234.846722
1.2900,203.5122823,-28.97010713,1234.81084
1.2950,203.4772032,-29.0062392,1234.773698
1.3000,203.446434,-29.04207985,1234.73515
1.3050,203.4211834,-29.07855723,1234.694908
1.3100,203.4007291,-29.11617713,1234.652964
1.3150,203.3864407,-29.15327584,1234.609191
1.3200,203.3779991,-29.19230265,1234.563482
1.3250,203.376482,-29.23262527,1234.515604
1.3300,203.3818859,-29.27416331,1234.465564
1.3350,203.3947275,-29.31776533,1234.413117
1.3400,203.4158773,-29.36317657,1234.358108
1.3450,203.4453441,-29.41034192,1234.300361
1.3500,203.4830108,-29.45955147,1234.239846
1.3550,203.5302249,-29.51156877,1234.17625
1.3600,203.5872991,-29.566164,1234.109359
1.3650,203.6528908,-29.62262419,1234.039422
1.3700,203.7277145,-29.68217313,1233.966239
1.3750,203.8111036,-29.74461598,1233.88985
1.3800,203.9035323,-29.81104252,1233.810114
1.3850,204.0045579,-29.88112776,1233.727167
1.3900,204.114589,-29.95546831,1233.640855
1.3950,204.2328309,-30.03410227,1233.551458
1.4000,204.3590583,-30.11703738,1233.458949
1.4050,204.4930818,-30.20330075,1233.363428
1.4100,204.6341568,-30.29448269,1233.265027
1.4150,204.7828384,-30.3904279,1233.163588
1.4200,204.9378265,-30.49110695,1233.059218
1.4250,205.0986474,-30.59684598,1232.952002
1.4300,205.2642638,-30.70596846,1232.84228
1.4350,205.4337731,-30.81779945,1232.730254
1.4400,205.6056822,-30.9321015,1232.616165
1.4450,205.7804091,-31.04850861,1232.499978
1.4500,205.9568606,-31.16624772,1232.381998
1.4550,206.1344636,-31.28448501,1232.262366
1.4600,206.3118655,-31.40393435,1232.141229
1.4650,206.4892116,-31.52357066,1232.018745
1.4700,206.6639533,-31.64353985,1231.895266
1.4750,206.8360319,-31.7619192,1231.770999
1.4800,207.0052758,-31.87873606,1231.645994
1.4850,207.1702558,-31.99372448,1231.520392
1.4900,207.3289148,-32.10651736,1231.39467
1.4950,207.4820905,-32.21619183,1231.268684
1.5000,207.6284177,-32.32411806,1231.142523
1.5050,207.7676096,-32.42745432,1231.016509
1.5100,207.8993414,-32.52708149,1230.8905
1.5150,208.0220181,-32.62245316,1230.764797
1.5200,208.1355934,-32.71241786,1230.639474
1.5250,208.2400383,-32.79785642,1230.514413
1.5300,208.333861,-32.87824742,1230.390007
1.5350,208.4167346,-32.95257447,1230.26628
1.5400,208.4886814,-33.02232128,1230.143131
1.5450,208.5489658,-33.08609405,1230.020852
1.5500,208.5973715,-33.14287286,1229.899543
1.5550,208.6327874,-33.19481352,1229.779263
1.5600,208.6550771,-33.24095146,1229.660048
1.5650,208.6642959,-33.28141049,1229.541872
1.5700,208.6595225,-33.3148573,1229.424941
1.5750,208.6419434,-33.34237198,1229.309086
1.5800,208.6119369,-33.3636433,1229.194262
1.5850,208.5710623,-33.37871951,1229.080366
1.5900,208.5183494,-33.38697939,1228.967573
1.5950,208.454826,-33.38912612,1228.855632
1.6000,208.3803718,-33.38440442,1228.74478
1.6050,208.2950295,-33.37109048,1228.63505
1.6100,208.2007375,-33.34925864,1228.526272
1.6150,208.0976592,-33.32052425,1228.418326
1.6200,207.987266,-33.28337522,1228.311272
1.6250,207.8705222,-33.23725637,1228.205106
1.6300,207.7475043,-33.18311672,1228.099745
1.6350,207.6195045,-33.12036076,1227.995134
1.6400,207.4870302,-33.04834166,1227.891327
1.6450,207.3512899,-32.96829164,1227.788184
1.6500,207.2133126,-32.88041236,1227.685449
1.6550,207.0718227,-32.78419325,1227.58345
1.6600,206.9278929,-32.68027605,1227.482068
1.6650,206.7831217,-32.56891596,1227.381144
1.6700,206.6369675,-32.44987783,1227.28068
1.6750,206.4902464,-32.32233706,1227.180754
1.6800,206.3434644,-32.18650725,1227.081343
1.6850,206.1968852,-32.04213934,1226.982411
1.6900,206.0517837,-31.88887244,1226.883893
1.6950,205.9080198,-31.72542512,1226.785805
1.7000,205.7667372,-31.55241728,1226.688036
1.7050,205.6286221,-31.36952993,1226.590534
1.7100,205.4938211,-31.17584878,1226.493443
1.7150,205.3625884,-30.97115436,1226.396696
1.7200,205.2358412,-30.75506174,1226.300259
1.7250,205.1134924,-30.52754167,1226.204203
1.7300,204.9953722,-30.28936907,1226.108532
1.7350,204.8820313,-30.04103329,1226.013104
1.7400,204.7748567,-29.78261758,1225.917787
1.7450,204.6722306,-29.51450156,1225.822868
1.7500,204.5746078,-29.23817658,1225.728116
1.7550,204.4816456,-28.95382149,1225.633627
1.7600,204.3939109,-28.66160777,1225.539425
1.7650,204.3102642,-28.36307151,1225.445451
1.7700,204.2307012,-28.05816585,1225.35174
1.7750,204.1551116,-27.74826687,1225.258283
1.7800,204.08224,-27.43498428,1225.165069
1.7850,204.0128888,-27.11902232,1225.071963
1.7900,203.9464671,-26.80071481,1224.978949
1.7950,203.8821534,-26.48076944,1224.886142
1.8000,203.8204712,-26.15911205,1224.793426
1.8050,203.7614563,-25.83650234,1224.700666
1.8100,203.7049305,-25.51370479,1224.607888
1.8150,203.650208,-25.19130782,1224.51503
1.8200,203.596613,-24.86836961,1224.422275
1.8250,203.5436907,-24.54534016,1224.32961
1.8300,203.4909402,-24.22359029,1224.236891
1.8350,203.438885,-23.9028574,1224.144077
1.8400,203.3869251,-23.5814451,1224.051451
1.8450,203.3350802,-23.26008361,1223.95889
1.8500,203.283395,-22.93903786,1223.866349
1.8550,203.2313155,-22.61751288,1223.773889
1.8600,203.1802433,-22.29460071,1223.681435
1.8650,203.1287468,-21.97013939,1223.589224
1.8700,203.0780139,-21.64430579,1223.49712
1.8750,203.0268442,-21.31579465,1223.40549
1.8800,202.9754617,-20.98482742,1223.314212
1.8850,202.9231932,-20.6511768,1223.223458
1.8900,202.8707281,-20.31592478,1223.132971
1.8950,202.818293,-19.97872507,1223.042846
1.9000,202.7656596,-19.63977912,1222.953127
1.9050,202.7125076,-19.29930923,1222.863931
1.9100,202.6588485,-18.95747662,1222.775356
1.9150,202.6040596,-18.61372873,1222.687528
1.9200,202.549199,-18.26775353,1222.600333
1.9250,202.4925428,-17.92115663,1222.513817
1.9300,202.4349521,-17.57173078,1222.42817
1.9350,202.3764941,-17.22049366,1222.343348
1.9400,202.3161814,-16.86808311,1222.259298
1.9450,202.2537292,-16.51306266,1222.176304
1.9500,202.1893996,-16.15552769,1222.094336
1.9550,202.123325,-15.79455558,1222.013443
1.9600,202.0552345,-15.42983916,1221.933773
1.9650,201.9823066,-15.06225928,1221.85556
1.9700,201.9066068,-14.69014354,1221.778914
1.9750,201.828588,-14.31554372,1221.703403
1.9800,201.7475065,-13.93755332,1221.629329
1.9850,201.6635788,-13.55606043,1221.55674
1.9900,201.5758415,-13.1711794,1221.48575
1.9950,201.4836877,-12.7839415,1221.416422
2.0000,201.3871659,-12.39381588,1221.348792
2.0050,201.2853572,-12.00234546,1221.282811
2.0100,201.1780523,-11.60796901,1221.218578
2.0150,201.0653994,-11.21164464,1221.156109
2.0200,200.9465742,-10.81301233,1221.095655
2.0250,200.8219996,-10.41193426,1221.037087
2.0300,200.6923889,-10.00829834,1220.980293
2.0350,200.5572937,-9.601583172,1220.925461
2.0400,200.4159458,-9.191794117,1220.872736
2.0450,200.2691139,-8.778781823,1220.821965
2.0500,200.1169702,-8.362420258,1220.773358
2.0550,199.9598279,-7.943051064,1220.726788
2.0600,199.7974076,-7.521106412,1220.682273
2.0650,199.6293626,-7.096023752,1220.64
2.0700,199.4570603,-6.668140704,1220.599834
2.0750,199.2792036,-6.237530786,1220.561858
2.0800,199.0963134,-5.804039701,1220.526106
2.0850,198.908527,-5.367632795,1220.49261
2.0900,198.7160708,-4.928854486,1220.461318
2.0950,198.5189682,-4.488744949,1220.43203
2.1000,198.3151301,-4.046156412,1220.405223
2.1050,198.1043994,-3.602900225,1220.3806
2.1100,197.886412,-3.157641388,1220.358452
2.1150,197.6620978,-2.711558194,1220.338564
2.1200,197.4318302,-2.264899511,1220.320904
2.1250,197.1957487,-1.818379319,1220.305398
2.1300,196.9527945,-1.369819192,1220.292526
2.1350,196.7032488,-0.9209827257,1220.282042
2.1400,196.4460774,-0.4716024022,1220.274271
2.1450,196.1811357,-0.02346173426,1220.268883
2.1500,195.9073516,0.4242729283,1220.26621
2.1550,195.625635,0.8715046779,1220.266236
2.1600,195.3343669,1.316943046,1220.269042
2.1650,195.0338521,1.760545355,1220.274558
2.1700,194.7241112,2.201198149,1220.282569
2.1750,194.4040259,2.639708692,1220.293398
2.1800,194.0746251,3.075082122,1220.306893
2.1850,193.7362412,3.507855035,1220.323147
2.1900,193.3878986,3.9382908,1220.342484
2.1950,193.0296252,4.36584839,1220.364804
2.2000,192.6620919,4.790037455,1220.389885
2.2050,192.2856446,5.209776901,1220.417502
2.2100,191.9006217,5.625501041,1220.447611
2.2150,191.5081697,6.036830144,1220.480015
2.2200,191.1075316,6.444617999,1220.514934
2.2250,190.6998423,6.849492824,1220.552278
2.2300,190.2843732,7.249834749,1220.591942
2.2350,189.8609683,7.647720201,1220.634278
2.2400,189.4300361,8.041601344,1220.678966
2.2450,188.9912404,8.431391316,1220.726045
2.2500,188.545164,8.817599842,1220.775598
2.2550,188.0929636,9.198269551,1220.8271
2.2600,187.6351111,9.575295431,1220.880877
2.2650,187.1732362,9.947686599,1220.936476
2.2700,186.7055218,10.31541455,1220.994144
2.2750,186.2312153,10.67822539,1221.053976
2.2800,185.7511252,11.03581955,1221.115652
2.2850,185.2642479,11.3882618,1221.179259
2.2900,184.7710566,11.73532544,1221.244703
2.2950,184.2721031,12.07629426,1221.311653
2.3000,183.766848,12.41234356,1221.380489
2.3050,183.2561333,12.74392587,1221.451194
2.3100,182.7407855,13.07041893,1221.523632
2.3150,182.2201654,13.39270268,1221.598025
2.3200,181.6964243,13.71057291,1221.673943
2.3250,181.1691127,14.02409248,1221.751477
2.3300,180.637798,14.3326645,1221.83053
2.3350,180.1032127,14.63712135,1221.911148
2.3400,179.5662592,14.93732608,1221.993102
2.3450,179.0276897,15.23324771,1222.07628
2.3500,178.4866828,15.52627143,1222.160945
2.3550,177.9432506,15.81678815,1222.247239
2.3600,177.3974834,16.10494097,1222.335119
2.3650,176.8517953,16.3924995,1222.424592
2.3700,176.3046897,16.67981086,1222.51596
2.3750,175.7573624,16.96754339,1222.609236
2.3800,175.2095809,17.25564916,1222.704413
2.3850,174.6614292,17.54615427,1222.801918
2.3900,174.1133889,17.83865578,1222.90163
2.3950,173.5661488,18.13516021,1223.003912
2.4000,173.0191525,18.43510477,1223.108707
2.4050,172.4733059,18.73947015,1223.216215
2.4100,171.9275875,19.04799752,1223.32654
2.4150,171.3819209,19.36095501,1223.439735
2.4200,170.8354516,19.67909462,1223.556134
2.4250,170.2874586,20.00399816,1223.676178
2.4300,169.7388982,20.33391927,1223.799385
2.4350,169.1886234,20.66920278,1223.926009
2.4400,168.6369008,21.00991488,1224.055943
2.4450,168.0834027,21.35645877,1224.189444
2.4500,167.527557,21.70852242,1224.326604
2.4550,166.969057,22.0658097,1224.467383
2.4600,166.4086335,22.42761214,1224.611554
2.4650,165.8454775,22.79392809,1224.759265
2.4700,165.2791102,23.16536151,1224.910865
2.4750,164.7114115,23.54130566,1225.065788
2.4800,164.1408469,23.92226642,1225.224497
2.4850,163.5668464,24.30783346,1225.386973
2.4900,162.9908699,24.696966,1225.55268
2.4950,162.4126912,25.09046348,1225.721885
2.5000,161.8321165,25.48864344,1225.894749
2.5050,161.2482602,25.89144988,1226.071457
2.5100,160.6607845,26.29859788,1226.252103
2.5150,160.068679,26.71006471,1226.436935
2.5200,159.4721037,27.12419943,1226.625558
2.5250,158.8713605,27.54156694,1226.818139
2.5300,158.2668781,27.96219847,1227.014607
2.5350,157.6586893,28.38509087,1227.214768
2.5400,157.0470157,28.81179556,1227.419024
2.5450,156.4323344,29.24235107,1227.627317
2.5500,155.8136399,29.67664298,1227.839785
2.5550,155.191,30.1157274,1228.056768
2.5600,154.5638299,30.55795137,1228.277923
2.5650,153.9320882,31.00272335,1228.503193
2.5700,153.2960651,31.44950489,1228.732308
2.5750,152.6559296,31.89976532,1228.965754
2.5800,152.0112767,32.35233451,1229.203351
2.5850,151.3634204,32.80734859,1229.444939
2.5900,150.7121665,33.26412267,1229.690373
2.5950,150.0579524,33.72265192,1229.939643
2.6000,149.4004916,34.1819082,1230.192527
2.6050,148.7409274,34.641496,1230.448648
2.6100,148.0785749,35.10030914,1230.707761
2.6150,147.4158777,35.55921835,1230.969584
2.6200,146.7519988,36.01836781,1231.234418
2.6250,146.0876259,36.47816748,1231.502286
2.6300,145.4235855,36.94002693,1231.773499
2.6350,144.7603748,37.40180377,1232.047262
2.6400,144.097996,37.86424987,1232.323785
2.6450,143.43558,38.32656415,1232.603065
2.6500,142.7737472,38.78859895,1232.88494
2.6550,142.1128,39.25030688,1233.169301
2.6600,141.4520132,39.71134334,1233.456239
2.6650,140.7903611,40.17158348,1233.74595
2.6700,140.1284577,40.62961923,1234.037868
2.6750,139.4655385,41.08639176,1234.332417
2.6800,138.8031827,41.54212311,1234.629193
2.6850,138.1399656,41.99604741,1234.928357
2.6900,137.4771667,42.44847198,1235.22957
2.6950,136.813635,42.8986717,1235.532867
2.7000,136.1508113,43.3463028,1235.837789
2.7050,135.4869216,43.79214968,1236.144982
2.7100,134.8227693,44.23680712,1236.454405
2.7150,134.1577861,44.68023317,1236.766162
2.7200,133.4930939,45.12203861,1237.079821
2.7250,132.8290247,45.56090916,1237.394898
2.7300,132.1665102,45.99865266,1237.711603
2.7350,131.5057823,46.43447869,1238.029619
2.7400,130.8470934,46.86811687,1238.348814
2.7450,130.1902105,47.30017507,1238.669435
2.7500,129.536602,47.73126066,1238.99123
2.7550,128.8864827,48.16169105,1239.314224
2.7600,128.2390015,48.59263862,1239.639049
2.7650,127.5951914,49.02298939,1239.965077
2.7700,126.955042,49.45246528,1240.292167
2.7750,126.3171265,49.88085086,1240.620636
2.7800,125.6824658,50.30850619,1240.950212
2.7850,125.0501586,50.7343476,1241.280837
2.7900,124.418492,51.16010326,1241.613597
2.7950,123.7879201,51.5847085,1241.948067
2.8000,123.1583588,52.00822884,1242.284228
2.8050,122.5309381,52.43073314,1242.621758
2.8100,121.9048748,52.85179615,1242.960687
2.8150,121.2811912,53.27189323,1243.300836
2.8200,120.6600298,53.69170817,1243.64242
2.8250,120.0407526,54.11087891,1243.985534
2.8300,119.4240466,54.5302638,1244.330145
2.8350,118.8096195,54.94863928,1244.675957
2.8400,118.1985073,55.36561164,1245.022538
2.8450,117.5899287,55.78060196,1245.369833
2.8500,116.9844077,56.19405,1245.717854
2.8550,116.3811066,56.6055568,1246.066688
2.8600,115.779725,57.01392692,1246.416036
2.8650,115.1818612,57.42158197,1246.766213
2.8700,114.5877295,57.82731931,1247.116752
2.8750,113.9978229,58.23145369,1247.467537
2.8800,113.4119095,58.63419684,1247.818735
2.8850,112.8296142,59.03423129,1248.169936
2.8900,112.251813,59.43225726,1248.521064
2.8950,111.6779016,59.82749152,1248.872021
2.9000,111.1078695,60.2205133,1249.22291
2.9050,110.5411079,60.61157689,1249.574027
2.9100,109.9773133,61.00168758,1249.925945
2.9150,109.4147969,61.38907576,1250.278527
2.9200,108.8528484,61.77250769,1250.631445
2.9250,108.2926298,62.15211119,1250.984289
2.9300,107.7333391,62.52674848,1251.336823
2.9350,107.1736583,62.8986877,1251.69041
2.9400,106.6138786,63.26724044,1252.04467
2.9450,106.0553084,63.63352494,1252.399522
2.9500,105.4983215,63.99717785,1252.754769
2.9550,104.9416578,64.35868327,1253.111026
2.9600,104.3874841,64.71901779,1253.467815
2.9650,103.8356604,65.07772085,1253.825064
2.9700,103.2876286,65.43660626,1254.182937
2.9750,102.7445432,65.79399057,1254.540274
2.9800,102.2045127,66.15065621,1254.898115
2.9850,101.6696409,66.50619663,1255.255518
2.9900,101.1378185,66.86173641,1255.6137
2.9950,100.6095872,67.21665351,1255.972213
3.0000,100.0860054,67.57127099,1256.330744
3.0050,99.56684466,67.92516415,1256.689154
3.0100,99.05301681,68.27759305,1257.046735
3.0150,98.54415147,68.62980065,1257.404125
3.0200,98.03950265,68.98055825,1257.761022
3.0250,97.5391939,69.33100714,1258.117841
3.0300,97.04264253,69.67936308,1258.474039
3.0350,96.54931291,70.02737874,1258.8306
3.0400,96.05916899,70.37399009,1259.186992
3.0450,95.57256923,70.72031415,1259.54349
3.0500,95.08899943,71.06533624,1259.899783
3.0550,94.60748369,71.40941923,1260.256392
3.0600,94.12867056,71.75221864,1260.6129
3.0650,93.65195111,72.09432444,1260.969746
3.0700,93.1773588,72.43583274,1261.326937
3.0750,92.70446698,72.77669883,1261.684682
3.0800,92.23291728,73.11692006,1262.043115
3.0850,91.76359563,73.45666613,1262.401977
3.0900,91.29835611,73.79574982,1262.76039
3.0950,90.83710747,74.13525528,1263.118833
3.1000,90.38006963,74.47451068,1263.477018
3.1050,89.92717977,74.81340057,1263.834834
3.1100,89.47889102,75.15181643,1264.192081
3.1150,89.03507986,75.48901993,1264.54843
3.1200,88.59457391,75.82465126,1264.90421
3.1250,88.15829486,76.15882881,1265.258981
3.1300,87.72544874,76.49108538,1265.612929
3.1350,87.29550542,76.82136527,1265.966186
3.1400,86.86923642,77.15106262,1266.318978
3.1450,86.44677869,77.48010253,1266.671251
3.1500,86.02813424,77.80738048,1267.022478
3.1550,85.61437806,78.1334396,1267.372489
3.1600,85.20587409,78.45881249,1267.721283
3.1650,84.80093439,78.78196112,1268.068871
3.1700,84.39852744,79.10416033,1268.4162
3.1750,83.99885269,79.42370653,1268.762309
3.1800,83.60190788,79.74059447,1269.107198
3.1850,83.20632769,80.05568781,1269.451877
3.1900,82.81136932,80.3689134,1269.796595
3.1950,82.41660881,80.68106496,1270.141934
3.2000,82.02299483,80.99151909,1270.487186
3.2050,81.62990717,81.30024235,1270.832618
3.2100,81.23883668,81.60754983,1271.177663
3.2150,80.84770818,81.91383155,1271.523403
3.2200,80.45663792,82.21919878,1271.86987
3.2250,80.0646387,82.52318739,1272.217285
3.2300,79.67272924,82.82715188,1272.56586
3.2350,79.2813807,83.12965072,1272.914709
3.2400,78.89002575,83.43096299,1273.264262
3.2450,78.49939322,83.73112389,1273.614185
3.2500,78.10770144,84.03092454,1273.965669
3.2550,77.71762059,84.32997977,1274.317289
3.2600,77.32813166,84.62784461,1274.669338
3.2650,76.93949409,84.92470185,1275.021695
3.2700,76.55070183,85.22018092,1275.374675
3.2750,76.16221546,85.51537931,1275.72864
3.2800,75.77371504,85.80952663,1276.083356
3.2850,75.38632308,86.10387243,1276.4388
3.2900,75.00063525,86.39762561,1276.794381
3.2950,74.61754743,86.69177052,1277.150104
3.3000,74.23595392,86.98631063,1277.506509
3.3050,73.85648614,87.28153958,1277.863374
3.3100,73.47855917,87.57645487,1278.220548
3.3150,73.10301195,87.87104749,1278.577595
3.3200,72.72919537,88.16531305,1278.934773
3.3250,72.3562953,88.45843885,1279.292086
3.3300,71.98435797,88.75129245,1279.649961
3.3350,71.61338338,89.04208666,1280.007451
3.3400,71.24329863,89.33148573,1280.364966
3.3450,70.87383285,89.61870597,1280.722192
3.3500,70.50435419,89.90331114,1281.079236
3.3550,70.13451322,90.18403244,1281.435676
3.3600,69.76380175,90.46147941,1281.791961
3.3650,69.39236951,90.73551802,1282.148028
3.3700,69.01908965,91.00601131,1282.504326
3.3750,68.64491653,91.27307517,1282.860471
3.3800,68.26960071,91.53554023,1283.215973
3.3850,67.89272198,91.79413479,1283.571347
3.3900,67.51391854,92.04822988,1283.926468
3.3950,67.13243365,92.29721302,1284.281394
3.4000,66.74875117,92.54152352,1284.636089
3.4050,66.36275727,92.78089902,1284.990514
3.4100,65.97511635,93.01548838,1285.344339
3.4150,65.5856325,93.24613098,1285.698166
3.4200,65.19552399,93.47302771,1286.05138
3.4250,64.80444496,93.69562922,1286.403957
3.4300,64.41238059,93.91352368,1286.755623
3.4350,64.02124507,94.12787852,1287.106043
3.4400,63.63001231,94.33805247,1287.455338
3.4450,63.2391434,94.54422496,1287.803388
3.4500,62.84841873,94.74699504,1288.150559
3.4550,62.45727145,94.94593266,1288.496852
3.4600,62.06715629,95.14159606,1288.84179
3.4650,61.67723029,95.33395133,1289.185831
3.4700,61.28956771,95.52280167,1289.527707
3.4750,60.90364187,95.70930494,1289.868379
3.4800,60.51999431,95.89405793,1290.207789
3.4850,60.13898949,96.07600719,1290.545113
3.4900,59.7608832,96.25549048,1290.880413
3.4950,59.38609484,96.43333752,1291.213767
3.5000,59.01379122,96.60954904,1291.545649
3.5050,58.64452595,96.78466435,1291.876027
3.5100,58.27792136,96.95862384,1292.204929
3.5150,57.91606842,97.13186747,1292.531442
3.5200,57.55910496,97.30525135,1292.855978
3.5250,57.20697103,97.47931929,1293.178768
3.5300,56.85855652,97.65375315,1293.500283
3.5350,56.51556487,97.8294088,1293.820007
3.5400,56.17667949,98.00542897,1294.138182
3.5450,55.84203993,98.18299086,1294.455337
3.5500,55.51233216,98.36106752,1294.770494
3.5550,55.1863599,98.53971543,1295.084308
3.5600,54.86521134,98.72020605,1295.396852
3.5650,54.54874562,98.90179515,1295.707848
3.5700,54.23697267,99.08506592,1296.017531
3.5750,53.92926264,99.27001772,1296.326288
3.5800,53.62601945,99.45731809,1296.634271
3.5850,53.32637067,99.64542152,1296.941185
3.5900,53.03021142,99.83465711,1297.247246
3.5950,52.73698578,100.0237094,1297.552047
3.6000,52.44682607,100.2136053,1297.856093
3.6050,52.15956372,100.4035869,1298.159084
3.6100,51.87531766,100.5935039,1298.460862
3.6150,51.59283949,100.7829783,1298.761986
3.6200,51.31218464,100.9716038,1299.06229
3.6250,51.03275718,101.1580602,1299.361316
3.6300,50.75391359,101.3410895,1299.658716
3.6350,50.47452904,101.5207614,1299.955228
3.6400,50.19451233,101.6963501,1300.250458
3.6450,49.91273377,101.8669971,1300.544687
3.6500,49.62917667,102.0324109,1300.837825
3.6550,49.34365669,102.1933959,1301.130387
3.6600,49.05571623,102.3477863,1301.421511
3.6650,48.76428832,102.4952556,1301.711602
3.6700,48.47065487,102.6352604,1301.999596
3.6750,48.17286872,102.7672604,1302.28633
3.6800,47.87050085,102.8917464,1302.572442
3.6850,47.56390481,103.0076699,1302.857144
3.6900,47.25150188,103.1152257,1303.14153
3.6950,46.93371263,103.2144194,1303.425327
3.7000,46.60979147,103.3063928,1303.709748
3.7050,46.28051741,103.3910054,1303.994242
3.7100,45.94595885,103.4690091,1304.279234
3.7150,45.60598179,103.540555,1304.564933
3.7200,45.26106283,103.6058042,1304.851141
3.7250,44.91117293,103.6654981,1305.138261
3.7300,44.55704901,103.7199793,1305.426176
3.7350,44.1987554,103.770399,1305.715361
3.7400,43.83539847,103.816189,1306.006178
3.7450,43.46895731,103.8589704,1306.298285
3.7500,43.09950264,103.8982378,1306.591289
3.7550,42.72858935,103.9356258,1306.885215
3.7600,42.35492789,103.9703096,1307.180359
3.7650,41.98013316,104.0033133,1307.4762
3.7700,41.60325795,104.0351217,1307.773692
3.7750,41.2257019,104.0658004,1308.071927
3.7800,40.84779042,104.0959603,1308.371077
3.7850,40.47056869,104.1266079,1308.670947
3.7900,40.09469496,104.1586037,1308.971521
3.7950,39.71960227,104.1912203,1309.272842
3.8000,39.347063,104.2263553,1309.574793
3.8050,38.97750689,104.2640293,1309.876972
3.8100,38.60943249,104.303652,1310.180161
3.8150,38.24347489,104.3465409,1310.484625
3.8200,37.88029676,104.3937616,1310.790553
3.8250,37.52037681,104.4454681,1311.097753
3.8300,37.16441327,104.5020107,1311.40586
3.8350,36.81136329,104.5630612,1311.715337
3.8400,36.46310775,104.6311067,1312.02643
3.8450,36.1188274,104.7044801,1312.338658
3.8500,35.77892487,104.784441,1312.652435
3.8550,35.44359437,104.8708364,1312.967569
3.8600,35.11082107,104.9628896,1313.284876
3.8650,34.78054539,105.0601609,1313.604071
3.8700,34.45258137,105.1628471,1313.925457
3.8750,34.12588422,105.268912,1314.248391
3.8800,33.80163889,105.3782896,1314.572005
3.8850,33.47866009,105.4909589,1314.897156
3.8900,33.15722502,105.6058177,1315.222948
3.8950,32.83635347,105.7232496,1315.550317
3.9000,32.51611954,105.8399859,1315.877188
3.9050,32.19518257,105.9558651,1316.204426
3.9100,31.87222099,106.0696221,1316.53216
3.9150,31.54693421,106.1802161,1316.859922
3.9200,31.2194801,106.2862064,1317.186788
3.9250,30.8890382,106.3876959,1317.513439
3.9300,30.55619113,106.4836696,1317.838851
3.9350,30.22114811,106.5738147,1318.16276
3.9400,29.88281711,106.6564193,1318.484899
3.9450,29.5408054,106.7310776,1318.805345
3.9500,29.19531366,106.7981076,1319.124163
3.9550,28.84628424,106.8556869,1319.440362
3.9600,28.49261008,106.9044292,1319.755109
3.9650,28.13520772,106.942971,1320.066949
3.9700,27.77272864,106.9714348,1320.376987
3.9750,27.40631735,106.9902662,1320.68471
3.9800,27.03635955,106.9988656,1320.989499
3.9850,26.66218792,106.9968678,1321.291505
3.9900,26.28501754,106.9846142,1321.590125
3.9950,25.90522383,106.9616769,1321.884853
4.0000,25.52247172,106.9263223,1322.174804
4.0050,25.13693898,106.879574,1322.460462
4.0100,24.74737034,106.8200601,1322.74191
4.0150,24.35501535,106.7484537,1323.018604
4.0200,23.95988875,106.6639937,1323.290081
4.0250,23.56293451,106.5674776,1323.556245
4.0300,23.16439818,106.4602691,1323.817635
4.0350,22.76483629,106.3416106,1324.073395
4.0400,22.36564406,106.2122852,1324.322906
4.0450,21.96634814,106.0717514,1324.566155
4.0500,21.56860226,105.9217414,1324.803038
4.0550,21.17055586,105.7616246,1325.034486
4.0600,20.77415197,105.5928275,1325.259986
4.0650,20.38001188,105.4167868,1325.479953
4.0700,19.9891974,105.2342399,1325.693998
4.0750,19.60133571,105.0460914,1325.902895
4.0800,19.21702175,104.8532974,1326.106735
4.0850,18.83739218,104.6580656,1326.306131
4.0900,18.46264123,104.462097,1326.501913
4.0950,18.0949264,104.266814,1326.693173
4.1000,17.73284513,104.0729473,1326.881392
4.1050,17.37651215,103.8825526,1327.067817
4.1100,17.02897285,103.6973377,1327.250887
4.1150,16.68868288,103.5179167,1327.432185
4.1200,16.35668767,103.3449749,1327.611188
4.1250,16.03344696,103.1797283,1327.788178
4.1300,15.71947066,103.0239886,1327.963794
4.1350,15.41534734,102.878471,1328.137889
4.1400,15.12078604,102.7422625,1328.310036
4.1450,14.83645664,102.6175049,1328.480963
4.1500,14.56234117,102.5033043,1328.65002
4.1550,14.29850392,102.4001214,1328.817274
4.1600,14.04698504,102.3087006,1328.98157
4.1650,13.80764565,102.229159,1329.143049
4.1700,13.58082546,102.1607306,1329.300733
4.1750,13.36749169,102.1053567,1329.455102
4.1800,13.16785658,102.0622879,1329.605443
4.1850,12.98186412,102.0314323,1329.751552
4.1900,12.80979838,102.0127236,1329.893071
4.1950,12.65329336,102.0059772,1330.028566
4.2000,12.51185008,102.0116075,1330.158547
4.2050,12.38617053,102.028336,1330.281579
4.2100,12.2778596,102.0566652,1330.396638
4.2150,12.18588114,102.0950726,1330.503563
4.2200,12.11087933,102.1434161,1330.601612
4.2250,12.05329126,102.2012346,1330.690126
4.2300,12.01150909,102.2675475,1330.769809
4.2350,11.9860463,102.3411703,1330.839383
4.2400,11.97719899,102.4221606,1330.898708
4.2450,11.98443743,102.5081276,1330.94665
4.2500,12.00686822,102.5979446,1330.983236
4.2550,12.04326847,102.6897023,1331.008187
4.2600,12.09462498,102.7837336,1331.020963
4.2650,12.15834081,102.8787486,1331.022867
4.2700,12.23467209,102.9738057,1331.013198
4.2750,12.32251043,103.0674977,1330.991881
4.2800,12.42120481,103.1598521,1330.959517
4.2850,12.53037741,103.2506683,1330.916464
4.2900,12.64865085,103.3378711,1330.862466
4.2950,12.77479952,103.4215066,1330.798669
4.3000,12.90828168,103.5005745,1330.724844
4.3050,13.04780194,103.5734563,1330.641104
4.3100,13.1945756,103.6413116,1330.547239
4.3150,13.34734046,103.7027532,1330.443511
4.3200,13.50514932,103.7577444,1330.330681
4.3250,13.66873627,103.8061281,1330.208082
4.3300,13.83802522,103.8479606,1330.07585
4.3350,14.0123165,103.882786,1329.934417
4.3400,14.19154825,103.9115627,1329.784362
4.3450,14.3755231,103.9339521,1329.625693
4.3500,14.5636143,103.9495678,1329.458684
4.3550,14.75701863,103.9588971,1329.282726
4.3600,14.95462204,103.9620475,1329.098746
4.3650,15.15584012,103.959215,1328.907389
4.3700,15.36035641,103.9499635,1328.708683
4.3750,15.56892248,103.9356137,1328.502923
4.3800,15.78109724,103.9158088,1328.290311
4.3850,15.99654821,103.8905819,1328.071133
4.3900,16.21500481,103.8596526,1327.84551
4.3950,16.4360284,103.8242906,1327.614644
4.4000,16.66141056,103.7861695,1327.378158
4.4050,16.89156294,103.746197,1327.136378
4.4100,17.12555689,103.7051846,1326.890616
4.4150,17.36627621,103.6653263,1326.639991
4.4200,17.61311587,103.6269853,1326.385235
4.4250,17.8667113,103.5904769,1326.126082
4.4300,18.12716713,103.5556698,1325.862423
4.4350,18.39410355,103.5234032,1325.595185
4.4400,18.66897694,103.494553,1325.323821
4.4450,18.95192519,103.469002,1325.048169
4.4500,19.24373703,103.4479669,1324.768517
4.4550,19.54447673,103.4316936,1324.485161
4.4600,19.8535485,103.4189762,1324.197721
4.4650,20.17119293,103.4106196,1323.906572
4.4700,20.49767939,103.4070225,1323.611932
4.4750,20.83257135,103.4076074,1323.313803
4.4800,21.17545769,103.4115989,1323.012065
4.4850,21.52726973,103.4191598,1322.706199
4.4900,21.88717774,103.4301504,1322.396888
4.4950,22.2543268,103.4437378,1322.084235
4.5000,22.62784865,103.4590577,1321.768548
4.5050,23.00749384,103.4752806,1321.449513
4.5100,23.39156672,103.4919144,1321.128186
4.5150,23.78051,103.508004,1320.803736
4.5200,24.17199838,103.5227945,1320.477413
4.5250,24.56711666,103.5360133,1320.148317
4.5300,24.96534925,103.5466984,1319.816295
4.5350,25.36445273,103.5541429,1319.482582
4.5400,25.76282769,103.5565794,1319.147285
4.5450,26.16059542,103.5546826,1318.810737
4.5500,26.55692254,103.5466918,1318.472439
4.5550,26.95134069,103.5334483,1318.133292
4.5600,27.34247133,103.513358,1317.793349
4.5650,27.73133618,103.4875249,1317.452549
4.5700,28.11640065,103.4537068,1317.110442
4.5750,28.49767817,103.4122488,1316.767358
4.5800,28.87431565,103.3622355,1316.423261
4.5850,29.24629342,103.3036085,1316.078095
4.5900,29.61320815,103.2357332,1315.731774
4.5950,29.97507348,103.1580747,1315.383869
4.6000,30.33282856,103.072481,1315.034857
4.6050,30.68662194,102.9799476,1314.685305
4.6100,31.03732384,102.8807429,1314.334764
4.6150,31.3862323,102.7757882,1313.982885
4.6200,31.73510016,102.6658946,1313.62894
4.6250,32.08367655,102.5512369,1313.273133
4.6300,32.43193802,102.4312944,1312.915201
4.6350,32.7817841,102.3065331,1312.55402
4.6400,33.13384715,102.1771841,1312.189339
4.6450,33.48806205,102.0438155,1311.821591
4.6500,33.84423788,101.9062799,1311.450815
4.6550,34.20317092,101.7654567,1311.076954
4.6600,34.56567358,101.6212478,1310.699379
4.6650,34.93132741,101.4723523,1310.317657
4.6700,35.30151168,101.3197943,1309.931362
4.6750,35.67498571,101.1640341,1309.541668
4.6800,36.05273166,101.0054101,1309.148049
4.6850,36.43342995,100.8431551,1308.750934
4.6900,36.81806906,100.6785984,1308.350496
4.6950,37.20574014,100.5117115,1307.947265
4.7000,37.59639655,100.3420538,1307.541189
4.7050,37.99027457,100.1697357,1307.132185
4.7100,38.38958269,99.99677125,1306.720041
4.7150,38.7933865,99.82199815,1306.304832
4.7200,39.20327406,99.64668321,1305.886305
4.7250,39.61857144,99.47117883,1305.465145
4.7300,40.04001422,99.29628497,1305.041464
4.7350,40.46845159,99.12192656,1304.614721
4.7400,40.90337992,98.94835849,1304.185437
4.7450,41.34461971,98.77623519,1303.754229
4.7500,41.79277334,98.60456043,1303.320251
4.7550,42.24707136,98.43190897,1302.883137
4.7600,42.7071545,98.25985619,1302.444132
4.7650,43.17362549,98.08821764,1302.002812
4.7700,43.64605406,97.9161449,1301.559019
4.7750,44.12494157,97.74265274,1301.111929
4.7800,44.60887223,97.56759283,1300.662464
4.7850,45.09517061,97.38936797,1300.211442
4.7900,45.5844122,97.207584,1299.758221
4.7950,46.07465366,97.02064695,1299.303203
4.8000,46.56576416,96.82918858,1298.846807
4.8050,47.05642629,96.63211894,1298.389306
4.8100,47.54545066,96.42836011,1297.930808
4.8150,48.03252489,96.21788125,1297.471512
4.8200,48.51776792,96.00080573,1297.011562
4.8250,48.99969069,95.77677559,1296.551651
4.8300,49.47825779,95.54542201,1296.09165
4.8350,49.95364317,95.30743593,1295.631838
4.8400,50.42665468,95.06364021,1295.172318
4.8450,50.89734615,94.81510644,1294.713641
4.8500,51.36655381,94.56192119,1294.255426
4.8550,51.83494314,94.30520794,1293.797912
4.8600,52.30274131,94.04492634,1293.340913
4.8650,52.77037896,93.78081906,1292.884054
4.8700,53.23894618,93.51470178,1292.427738
4.8750,53.70833435,93.24598632,1291.971783
4.8800,54.17814673,92.97403333,1291.516031
4.8850,54.64818405,92.69858595,1291.06048
4.8900,55.11900837,92.42128581,1290.605723
4.8950,55.59049949,92.14257037,1290.152069
4.9000,56.0619372,91.86176175,1289.699606
4.9050,56.53497499,91.57949018,1289.247645
4.9100,57.0083298,91.29486606,1288.796542
4.9150,57.48071445,91.00749471,1288.346749
4.9200,57.95265137,90.71819639,1287.8984
4.9250,58.42311204,90.42563797,1287.45136
4.9300,58.89287768,90.13079758,1287.005721
4.9350,59.36011822,89.83326603,1286.562234
4.9400,59.82564133,89.53329625,1286.120629
4.9450,60.29007664,89.23137329,1285.680738
4.9500,60.75417174,88.92791405,1285.242348
4.9550,61.21798069,88.62257345,1284.80527
4.9600,61.68126063,88.31547679,1284.369743
4.9650,62.14613915,88.00903542,1283.935762
4.9700,62.61214982,87.70273139,1283.503415
4.9750,63.08070101,87.39679319,1283.07196
4.9800,63.5521557,87.09162708,1282.641447
4.9850,64.02772109,86.78899328,1282.212053
4.9900,64.50688953,86.48705,1281.783118
4.9950,64.99123729,86.18679917,1281.354315
5.0000,65.47931597,85.88723122,1280.925866
5.0050,65.97128109,85.58746777,1280.497147
5.0100,66.46565788,85.28681616,1280.068617
5.0150,66.9625922,84.985727,1279.640384
5.0200,67.46123898,84.68294273,1279.212259
5.0250,67.96246917,84.37897451,1278.784118
5.0300,68.46624139,84.07370767,1278.3559
5.0350,68.97304781,83.76670409,1277.927111
5.0400,69.48223225,83.45822144,1277.498218
5.0450,69.99471841,83.14811685,1277.068703
5.0500,70.51038002,82.8380284,1276.639371
5.0550,71.03116104,82.52956053,1276.210049
5.0600,71.55821244,82.2226222,1275.780186
5.0650,72.09047489,81.91632129,1275.349885
5.0700,72.62779527,81.61130589,1274.919555
5.0750,73.16911957,81.30818572,1274.490054
5.0800,73.7154168,81.00586485,1274.060344
5.0850,74.26757737,80.70399972,1273.629863
5.0900,74.82501956,80.40224905,1273.198901
5.0950,75.38729242,80.10004411,1272.767398
5.1000,75.95457013,79.79652253,1272.334954
5.1050,76.5267329,79.49202313,1271.901827
5.1100,77.10423253,79.18648909,1271.467849
5.1150,77.68781311,78.88097211,1271.033246
5.1200,78.27766494,78.57488594,1270.59766
5.1250,78.87311276,78.26746031,1270.161061
5.1300,79.47364007,77.95885553,1269.723774
5.1350,80.07981996,77.64909028,1269.285567
5.1400,80.69104672,77.33732454,1268.846316
5.1450,81.3065452,77.02352731,1268.406465
5.1500,81.92454014,76.70740855,1267.966709
5.1550,82.5453357,76.38857988,1267.526859
5.1600,83.16887019,76.06787072,1267.087365
5.1650,83.79369276,75.74448512,1266.648593
5.1700,84.42146057,75.41970361,1266.210482
5.1750,85.05201004,75.09263757,1265.772693
5.1800,85.68702225,74.76491111,1265.335334
5.1850,86.32686232,74.43746021,1264.898735
5.1900,86.97205942,74.10992002,1264.462518
5.1950,87.62254697,73.78290685,1264.027041
5.2000,88.27986784,73.45693607,1263.591953
5.2050,88.94261229,73.1309872,1263.157445
5.2100,89.61144657,72.80661132,1262.723888
5.2150,90.28663891,72.48327884,1262.290979
5.2200,90.9684726,72.16078433,1261.858557
5.2250,91.65646922,71.83898524,1261.42682
5.2300,92.35165414,71.51807934,1260.995526
5.2350,93.05388825,71.19732607,1260.564548
5.2400,93.76267656,70.8749639,1260.133475
5.2450,94.47760977,70.55042829,1259.702358
5.2500,95.19851241,70.22337081,1259.271218
5.2550,95.92460037,69.89349329,1258.840292
5.2600,96.655619,69.56048248,1258.409561
5.2650,97.3912195,69.22393404,1257.979077
5.2700,98.12997628,68.88416792,1257.549558
5.2750,98.87171276,68.54046741,1257.120846
5.2800,99.6160082,68.1932217,1256.693206
5.2850,100.3632026,67.84168672,1256.266306
5.2900,101.1129797,67.4871041,1255.840721
5.2950,101.8655444,67.13007297,1255.416697
5.3000,102.620906,66.77044503,1254.994144
5.3050,103.3785197,66.4082639,1254.573328
5.3100,104.1374161,66.04163137,1254.153914
5.3150,104.8973988,65.67035712,1253.735877
5.3200,105.65826,65.29417192,1253.319266
5.3250,106.4190371,64.91288109,1252.904441
5.3300,107.179862,64.52603407,1252.491256
5.3350,107.9405245,64.13409989,1252.080104
5.3400,108.7020398,63.73639743,1251.670465
5.3450,109.4633404,63.33211697,1251.262528
5.3500,110.2243849,62.92029642,1250.85594
5.3550,110.9840448,62.50103834,1250.451241
5.3600,111.7411635,62.07369691,1250.048554
5.3650,112.4960734,61.63781427,1249.647538
5.3700,113.2494774,61.19371537,1249.248131
5.3750,114.0001598,60.7407711,1248.850508
5.3800,114.748318,60.28072848,1248.455178
5.3850,115.4937428,59.8131904,1248.061933
5.3900,116.2362558,59.33841129,1247.670838
5.3950,116.9775767,58.85755301,1247.28166
5.4000,117.7179373,58.37112932,1246.894447
5.4050,118.4600544,57.88005609,1246.508705
5.4100,119.2042661,57.38540615,1246.124631
5.4150,119.9501674,56.88552347,1245.741714
5.4200,120.6972989,56.38196745,1245.360707
5.4250,121.4456318,55.87488936,1244.981684
5.4300,122.1958743,55.36532759,1244.604871
5.4350,122.9466561,54.85242367,1244.230505
5.4400,123.6975592,54.33694397,1243.859087
5.4450,124.4484898,53.81769996,1243.490193
5.4500,125.2004311,53.29549072,1243.12393
5.4550,125.9525283,52.7695581,1242.7603
5.4600,126.705241,52.23879279,1242.398834
5.4650,127.4587288,51.70448506,1242.040085
5.4700,128.2107312,51.165405,1241.684304
5.4750,128.9612783,50.62263379,1241.331837
5.4800,129.7102419,50.07667706,1240.982895
5.4850,130.4574437,49.5283652,1240.63761
5.4900,131.2029758,48.97941709,1240.296423
5.4950,131.9471513,48.43120843,1239.959582
5.5000,132.6891437,47.88404526,1239.627217
5.5050,133.4282581,47.34005507,1239.300155
5.5100,134.1632873,46.79894827,1238.97845
5.5150,134.8944504,46.26120384,1238.661939
5.5200,135.620106,45.72687539,1238.351039
5.5250,136.3401266,45.19725292,1238.046197
5.5300,137.0536649,44.67017536,1237.746755
5.5350,137.7611829,44.14819695,1237.453337
5.5400,138.4617163,43.63152515,1237.166242
5.5450,139.1547818,43.12054834,1236.885627
5.5500,139.8388381,42.61609302,1236.612231
5.5550,140.5150131,42.11875747,1236.345934
5.5600,141.1833195,41.62856123,1236.086813
5.5650,141.8436056,41.14657117,1235.835183
5.5700,142.4961291,40.67317726,1235.591142
5.5750,143.1399216,40.20894643,1235.355043
5.5800,143.7744571,39.75426839,1235.127209
5.5850,144.3999685,39.30963575,1234.907627
5.5900,145.0173614,38.87525538,1234.696041
5.5950,145.6267134,38.45113712,1234.492415
5.6000,146.2302708,38.03804047,1234.296355
5.6050,146.8284995,37.63809775,1234.108322
5.6100,147.423385,37.25254826,1233.928073
5.6150,148.015939,36.88191195,1233.755556
5.6200,148.607279,36.52630056,1233.59042
5.6250,149.1983466,36.1851946,1233.432154
5.6300,149.7877059,35.85788573,1233.280983
5.6350,150.3745163,35.54393223,1233.136871
5.6400,150.9585686,35.24294695,1232.999642
5.6450,151.5400485,34.9547459,1232.869117
5.6500,152.1182025,34.67826136,1232.745276
5.6550,152.6926713,34.41238566,1232.627894
5.6600,153.2635624,34.15671817,1232.516907
5.6650,153.830177,33.91159636,1232.412781
5.6700,154.3916599,33.67406913,1232.314799
5.6750,154.950914,33.44415944,1232.222263
5.6800,155.5062507,33.21916639,1232.134981
5.6850,156.0575482,32.99895364,1232.053016
5.6900,156.6043769,32.78241335,1231.975964
5.6950,157.1462256,32.56866608,1231.903619
5.7000,157.6814417,32.35578662,1231.835689
5.7050,158.2068741,32.14281729,1231.772501
5.7100,158.7214728,31.92845948,1231.713945
5.7150,159.224837,31.71283137,1231.659988
5.7200,159.7174456,31.49613255,1231.610433
5.7250,160.1997416,31.27752027,1231.564789
5.7300,160.6715836,31.05676929,1231.522776
5.7350,161.1343716,30.83425723,1231.484011
5.7400,161.5883574,30.60931525,1231.448055
5.7450,162.0336162,30.3823526,1231.414928
5.7500,162.47135,30.15450038,1231.384453
5.7550,162.9008951,29.92585537,1231.356665
5.7600,163.3229203,29.69769061,1231.331691
5.7650,163.7382623,29.47049506,1231.309385
5.7700,164.1467964,29.2454901,1231.28996
5.7750,164.5487394,29.02242097,1231.273418
5.7800,164.943606,28.80133738,1231.259858
5.7850,165.3313209,28.58281554,1231.249564
5.7900,165.7116595,28.36606036,1231.242363
5.7950,166.085668,28.15098705,1231.237926
5.8000,166.4534008,27.93783117,1231.236267
5.8050,166.8165122,27.72695232,1231.237023
5.8100,167.1761469,27.51841052,1231.239974
5.8150,167.5325917,27.31333452,1231.245324
5.8200,167.8871533,27.1131067,1231.252941
5.8250,168.2410727,26.91840667,1231.262632
5.8300,168.5951472,26.73214443,1231.274812
5.8350,168.9501736,26.55426307,1231.289091
5.8400,169.3066784,26.38615147,1231.305469
5.8450,169.6667901,26.22831158,1231.323468
5.8500,170.0314719,26.08169396,1231.342892
5.8550,170.4007712,25.94638239,1231.363754
5.8600,170.7758122,25.8246734,1231.386234
5.8650,171.1559731,25.7140373,1231.409746
5.8700,171.5413049,25.61387522,1231.43415
5.8750,171.9308011,25.52373697,1231.459674
5.8800,172.3246784,25.44329382,1231.486204
5.8850,172.7216359,25.37175051,1231.513956
5.8900,173.1206136,25.3077392,1231.542996
5.8950,173.5219235,25.25046489,1231.573031
5.9000,173.9233373,25.19918448,1231.604411
5.9050,174.3257663,25.15136385,1231.63638
5.9100,174.7274557,25.10670362,1231.669124
5.9150,175.1273016,25.06398109,1231.702543
5.9200,175.5249008,25.0220364,1231.736364
5.9250,175.9187406,24.98146736,1231.770955
5.9300,176.3097747,24.94209259,1231.805934
5.9350,176.6984016,24.90494636,1231.84151
5.9400,177.0832671,24.87055805,1231.878111
5.9450,177.46383,24.83842342,1231.915728
5.9500,177.8401295,24.8090758,1231.95444
5.9550,178.2120142,24.78226186,1231.994259
5.9600,178.5789806,24.75791569,1232.035274
5.9650,178.9415993,24.73495376,1232.076965
5.9700,179.2992547,24.71412355,1232.119834
5.9750,179.6497577,24.69406745,1232.163876
5.9800,179.9933817,24.67610555,1232.209358
5.9850,180.3290046,24.65981739,1232.256549
5.9900,180.6552251,24.64560022,1232.306045
5.9950,180.9710626,24.63290737,1232.358105
6.0000,181.2765909,24.62243672,1232.412898
6.0050,181.5715853,24.61424063,1232.47063
6.0100,181.8549076,24.60922518,1232.531792
6.0150,182.1245464,24.60699526,1232.59688
6.0200,182.3807,24.60676754,1232.665702
6.0250,182.621836,24.60927221,1232.738803
6.0300,182.8461886,24.61367726,1232.816523
6.0350,183.0532555,24.6205066,1232.899093
6.0400,183.2434906,24.62997518,1232.986401
6.0450,183.4173058,24.64226001,1233.078312
6.0500,183.5736459,24.65751447,1233.175136
6.0550,183.7138939,24.67602262,1233.276549
6.0600,183.8386171,24.69758388,1233.382236
6.0650,183.9480256,24.72250849,1233.491971
6.0700,184.04391,24.75160243,1233.605556
6.0750,184.1270516,24.78639988,1233.723028
6.0800,184.199079,24.82753181,1233.84408
6.0850,184.2620871,24.87483384,1233.968081
6.0900,184.3176352,24.92966315,1234.095067
6.0950,184.366647,24.99202629,1234.224779
6.1000,184.4114726,25.06249875,1234.356893
6.1050,184.4531314,25.14024512,1234.491007
6.1100,184.4942484,25.22567071,1234.626656
6.1150,184.5358057,25.31897304,1234.763792
6.1200,184.5791563,25.41819135,1234.901729
6.1250,184.6259616,25.52291172,1235.040042
6.1300,184.6763526,25.63132487,1235.178292
6.1350,184.731277,25.74236535,1235.316226
6.1400,184.7918746,25.8551738,1235.453437
6.1450,184.8571979,25.9692002,1235.590013
6.1500,184.9284882,26.08334433,1235.725562
6.1550,185.0059469,26.19670362,1235.859791
6.1600,185.0885707,26.30858246,1235.992813
6.1650,185.1779101,26.41943105,1236.124505
6.1700,185.2740871,26.52959383,1236.254848
6.1750,185.3785991,26.63752891,1236.383065
6.1800,185.4921566,26.743588,1236.509151
6.1850,185.6139195,26.84614053,1236.63274
6.1900,185.7444253,26.94548695,1236.753763
6.1950,185.8831162,27.04105632,1236.872085
6.2000,186.0298164,27.13169574,1236.987353
6.2050,186.1833042,27.21735564,1237.099654
6.2100,186.3439998,27.29720973,1237.208728
6.2150,186.5104434,27.37081381,1237.314681
6.2200,186.6829418,27.43901729,1237.417599
6.2250,186.8617934,27.50058849,1237.517159
6.2300,187.0472875,27.55657043,1237.61356
6.2350,187.237141,27.6053857,1237.706807
6.2400,187.4319425,27.64727889,1237.79685
6.2450,187.6317203,27.68139128,1237.883527
6.2500,187.8351419,27.70705596,1237.966869
6.2550,188.0420241,27.72492861,1238.047091
6.2600,188.2519322,27.73396669,1238.123955
6.2650,188.4635617,27.73495286,1238.197931
6.2700,188.6765559,27.72829638,1238.269207
6.2750,188.8901953,27.71536898,1238.338238
6.2800,189.1033181,27.69566415,1238.405227
6.2850,189.317695,27.67125999,1238.470286
6.2900,189.5336745,27.6423784,1238.533399
6.2950,189.7505003,27.61086405,1238.595271
6.3000,189.9688721,27.57822949,1238.656176
6.3050,190.1884112,27.54405122,1238.716119
6.3100,190.4098513,27.5088761,1238.775081
6.3150,190.6347398,27.47353953,1238.833006
6.3200,190.8617476,27.43887717,1238.890364
6.3250,191.0906356,27.40364548,1238.946979
6.3300,191.3228548,27.36960629,1239.003038
6.3350,191.5571429,27.33487346,1239.058385
6.3400,191.7929033,27.30095289,1239.113561
6.3450,192.0288009,27.26738383,1239.168811
6.3500,192.2658985,27.23357361,1239.22378
6.3550,192.5048742,27.20007091,1239.278657
6.3600,192.7447533,27.16781604,1239.333915
6.3650,192.9867577,27.13725368,1239.389496
6.3700,193.2308945,27.10776155,1239.445303
6.3750,193.4780928,27.07986191,1239.501334
6.3800,193.7281614,27.05398824,1239.557854
6.3850,193.9808449,27.03059902,1239.615104
6.3900,194.2364719,27.00974983,1239.67299
6.3950,194.4944003,26.99202645,1239.731893
6.4000,194.754862,26.97764071,1239.791848
6.4050,195.0175534,26.96693437,1239.852987
6.4100,195.2803288,26.9607521,1239.916039
6.4150,195.5432822,26.95939486,1239.981055
6.4200,195.8067779,26.96385925,1240.048187
6.4250,196.0698497,26.97400947,1240.117647
6.4300,196.3335037,26.99067601,1240.189586
6.4350,196.5983453,27.01360581,1240.263723
6.4400,196.8641204,27.04453702,1240.340615
6.4450,197.1324853,27.08286949,1240.419896
6.4500,197.4031915,27.12868286,1240.501511
6.4550,197.6766569,27.18234709,1240.585558
6.4600,197.9538439,27.24301529,1240.671689
6.4650,198.2335868,27.30957665,1240.759725
6.4700,198.5156976,27.38178244,1240.849636
6.4750,198.7999518,27.45892176,1240.941363
6.4800,199.0842104,27.53890738,1241.034536
6.4850,199.3700688,27.62299198,1241.129232
6.4900,199.6578908,27.71016878,1241.225047
6.4950,199.9471158,27.79936716,1241.321756
6.5000,200.2386255,27.89152619,1241.419397
6.5050,200.5327688,27.98612495,1241.517762
6.5100,200.8299566,28.08402671,1241.616891
6.5150,201.1317502,28.18497005,1241.716427
6.5200,201.4374359,28.28928099,1241.816487
6.5250,201.7467659,28.39623987,1241.916877
6.5300,202.0585672,28.50456549,1242.017333
6.5350,202.3744175,28.61485126,1242.117621
6.5400,202.6941232,28.72618856,1242.217449
6.5450,203.0177404,28.83912151,1242.31679
6.5500,203.3458491,28.95457688,1242.415853
6.5550,203.6782597,29.07189188,1242.51426
6.5600,204.0150188,29.19185005,1242.612226
6.5650,204.3561541,29.3144048,1242.709659
6.5700,204.7023129,29.43856462,1242.806111
6.5750,205.054679,29.56285538,1242.901023
6.5800,205.4152383,29.68765415,1242.994154
6.5850,205.7844502,29.81104133,1243.084878
6.5900,206.1660068,29.93117184,1243.172133
6.5950,206.5622452,30.04728432,1243.255313
6.6000,206.9712846,30.1580694,1243.334427
6.6050,207.3932811,30.26386039,1243.409483
6.6100,207.8266177,30.36324732,1243.480425
6.6150,208.2697284,30.45690119,1243.547668
6.6200,208.7229858,30.54475377,1243.611193
6.6250,209.1873224,30.62887828,1243.671498
6.6300,209.6630338,30.70857741,1243.728352
6.6350,210.1511201,30.78611318,1243.782315
6.6400,210.6516857,30.86147628,1243.833436
6.6450,211.1652673,30.93573896,1243.88208
6.6500,211.6924758,31.01048668,1243.928624
6.6550,212.2324125,31.08576525,1243.973287
6.6600,212.7859613,31.16194881,1244.016207
6.6650,213.3511266,31.23937452,1244.057845
6.6700,213.9282307,31.3196896,1244.098814
6.6750,214.5160377,31.40302271,1244.139399
6.6800,215.1126388,31.4896784,1244.179952
6.6850,215.7166958,31.58085959,1244.221106
6.6900,216.3272035,31.67628612,1244.262928
6.6950,216.9430931,31.77571751,1244.305537
6.7000,217.5629192,31.87906582,1244.349247
6.7050,218.1852759,31.98500876,1244.393883
6.7100,218.8100108,32.09190129,1244.438934
6.7150,219.4360493,32.19878543,1244.484334
6.7200,220.0610208,32.30338237,1244.529828
6.7250,220.6850671,32.40547278,1244.575239
6.7300,221.3061095,32.50315183,1244.620251
6.7350,221.921963,32.5960232,1244.664876
6.7400,222.5312631,32.68201244,1244.708548
6.7450,223.1313532,32.7609841,1244.751359
6.7500,223.7198997,32.83228155,1244.793374
6.7550,224.2947764,32.89600164,1244.834684
6.7600,224.8549472,32.95167702,1244.875104
6.7650,225.4000856,33.00099291,1244.915143
6.7700,225.9311777,33.04334296,1244.954469
6.7750,226.4485483,33.08035797,1244.99328
6.7800,226.9544748,33.11396152,1245.03205
6.7850,227.4495947,33.14424513,1245.070533
6.7900,227.9334942,33.17184757,1245.108977
6.7950,228.4068842,33.19844913,1245.147702
6.8000,228.8707637,33.22383018,1245.186566
6.8050,229.3260041,33.24928132,1245.225755
6.8100,229.7730154,33.27466382,1245.265229
6.8150,230.2141153,33.30087127,1245.305019
6.8200,230.6481374,33.32723691,1245.345014
6.8250,231.0780295,33.35580649,1245.3855
6.8300,231.5050365,33.38655429,1245.426372
6.8350,231.9301343,33.41949569,1245.467685
6.8400,232.35342,33.45465746,1245.509482
6.8450,232.7762395,33.49231953,1245.55178
6.8500,233.1999562,33.53131426,1245.59414
6.8550,233.6260123,33.57124187,1245.636379
6.8600,234.0539304,33.61136698,1245.678343
6.8650,234.4862729,33.65034715,1245.719563
6.8700,234.9236169,33.68869405,1245.760199
6.8750,235.3664185,33.72698991,1245.800368
6.8800,235.8145756,33.76484057,1245.839979
6.8850,236.2668578,33.80334654,1245.879527
6.8900,236.7212363,33.84354237,1245.919494
6.8950,237.176497,33.88432425,1245.959675
6.9000,237.6328516,33.92752965,1246.000571
6.9050,238.0916453,33.97342045,1246.042409
6.9100,238.5540191,34.02308248,1246.085456
6.9150,239.0225733,34.07702758,1246.129736
6.9200,239.4967248,34.13426914,1246.175077
6.9250,239.9766305,34.19506317,1246.221576
6.9300,240.4614289,34.25922847,1246.269183
6.9350,240.9516406,34.3274565,1246.318139
6.9400,241.4474144,34.39891249,1246.368227
6.9450,241.9490903,34.47255883,1246.419088
6.9500,242.4547649,34.54731296,1246.470537
6.9550,242.9646281,34.62384311,1246.52279
6.9600,243.4774511,34.70189322,1246.575815
6.9650,243.9933366,34.78073632,1246.629458
6.9700,244.5110451,34.85971931,1246.683474
6.9750,245.0292949,34.93926211,1246.738028
6.9800,245.5490135,35.01890275,1246.792944
6.9850,246.069376,35.09714966,1246.847647
6.9900,246.5892517,35.17367413,1246.902093
6.9950,247.1072005,35.24847346,1246.956323
7.0000,247.6224336,35.32062696,1247.009921
7.0050,248.1347815,35.39101506,1247.063105
7.0100,248.6429275,35.45819836,1247.115504
7.0150,249.14713,35.52215364,1247.167045
7.0200,249.646397,35.58486159,1247.21828
7.0250,250.1403058,35.64562028,1247.268925
7.0300,250.6282199,35.70548563,1247.319315
7.0350,251.1096455,35.76526247,1247.369745
7.0400,251.5836153,35.82540827,1247.420309
7.0450,252.0496012,35.88582239,1247.470902
7.0500,252.5078396,35.94702549,1247.521684
7.0550,252.9586279,36.00903241,1247.572569
7.0600,253.4002394,36.07180603,1247.623489
7.0650,253.8330812,36.13349641,1247.673835
7.0700,254.256892,36.19343624,1247.723298
7.0750,254.6699572,36.25176977,1247.771983
7.0800,255.0729341,36.3067584,1247.819166
7.0850,255.4643281,36.35778862,1247.864761
7.0900,255.8439989,36.40344746,1247.908174
7.0950,256.2129349,36.44357623,1247.94941
7.1000,256.5706348,36.47825554,1247.98841
7.1050,256.9166606,36.50609233,1248.024781
7.1100,257.2528046,36.52704154,1248.058369
7.1150,257.5763544,36.54026558,1248.088875
7.1200,257.890099,36.54626286,1248.116421
7.1250,258.1917588,36.54388435,1248.140663
7.1300,258.4821382,36.53293478,1248.161536
7.1350,258.7605111,36.51431162,1248.179225
7.1400,259.0283639,36.48766921,1248.193628
7.1450,259.2848089,36.45238481,1248.204525
7.1500,259.5290401,36.40929017,1248.212158
7.1550,259.7621853,36.35923901,1248.216836
7.1600,259.985104,36.30246281,1248.218591
7.1650,260.1978857,36.23953549,1248.217659
7.1700,260.4007089,36.17032112,1248.213986
7.1750,260.5944227,36.0945056,1248.207531
7.1800,260.778761,36.01332449,1248.198643
7.1850,260.9542371,35.92561668,1248.18694
7.1900,261.1213109,35.8325934,1248.172833
7.1950,261.2795403,35.73536747,1248.156723
7.2000,261.4310516,35.63325938,1248.138453
7.2050,261.5749532,35.52673309,1248.118085
7.2100,261.7112446,35.41529048,1248.095415
7.2150,261.8391634,35.29803498,1248.070293
7.2200,261.9588372,35.17583396,1248.04302
7.2250,262.0699127,35.04733892,1248.013258
7.2300,262.1728831,34.91400173,1247.981489
7.2350,262.2682571,34.77429634,1247.947233
7.2400,262.3556216,34.6297655,1247.911046
7.2450,262.4350855,34.48049591,1247.872911
7.2500,262.507428,34.32634203,1247.832878
7.2550,262.5730601,34.16769727,1247.791013
7.2600,262.6325865,34.00477077,1247.747414
7.2650,262.6862499,33.83813375,1247.702332
7.2700,262.7336707,33.66863823,1247.655956
7.2750,262.7752127,33.49581117,1247.608179
7.2800,262.8098614,33.31952924,1247.55898
7.2850,262.8385722,33.1407032,1247.508747
7.2900,262.8608735,32.96021971,1247.457738
7.2950,262.8791373,32.77757367,1247.405814
7.3000,262.8930616,32.59447779,1247.353503
7.3050,262.9022002,32.41033395,1247.300674
7.3100,262.9073727,32.22666737,1247.24779
7.3150,262.9083322,32.04374049,1247.194861
7.3200,262.904894,31.86063846,1247.141613
7.3250,262.8971978,31.6775548,1247.08817
7.3300,262.8880616,31.49526366,1247.034824
7.3350,262.8780953,31.31444376,1246.981661
7.3400,262.8671489,31.13471185,1246.928704
7.3450,262.8558315,30.95645221,1246.87607
7.3500,262.8439944,30.77973847,1246.823749
7.3550,262.8305638,30.60347183,1246.771467
7.3600,262.8163183,30.42809275,1246.719338
7.3650,262.8006766,30.25450816,1246.667569
7.3700,262.7818624,30.08325724,1246.616314
7.3750,262.7619101,29.91286276,1246.565161
7.3800,262.7380628,29.74400032,1246.514204
7.3850,262.7106121,29.57603028,1246.463227
7.3900,262.6791307,29.4101711,1246.41263
7.3950,262.6419727,29.24446898,1246.361789
7.4000,262.5994602,29.07846588,1246.310566
7.4050,262.5522877,28.91338616,1246.259269
7.4100,262.4988635,28.74945425,1246.20796
7.4150,262.4407427,28.58706875,1246.156785
7.4200,262.3765889,28.42683946,1246.10593
7.4250,262.3075833,28.26779959,1246.055045
7.4300,262.2333083,28.11077325,1246.004289
7.4350,262.1541811,27.95520376,1245.953538
7.4400,262.0711159,27.80102535,1245.902729
7.4450,261.9840806,27.64925809,1245.852127
7.4500,261.8941969,27.49908933,1245.801501
7.4550,261.8008308,27.35010431,1245.750645
7.4600,261.7041677,27.20240944,1245.699613
7.4650,261.6036352,27.05625963,1245.648428
7.4700,261.5005081,26.9118467,1245.597077
7.4750,261.3926923,26.77062177,1245.545889
7.4800,261.2796441,26.63051665,1245.494309
7.4850,261.1608844,26.49312927,1245.442699
7.4900,261.0345898,26.35723308,1245.390555
7.4950,260.9010346,26.22309599,1245.337902
7.5000,260.7580652,26.09038928,1245.284605
7.5050,260.6059636,25.95823398,1245.230356
7.5100,260.4433319,25.82639406,1245.175139
7.5150,260.2674011,25.69423665,1245.11862
7.5200,260.0776534,25.56128026,1245.060638
7.5250,259.8737177,25.4287248,1245.001405
7.5300,259.6535254,25.29507965,1244.940543
7.5350,259.4167063,25.16094113,1244.878264
7.5400,259.1633584,25.02468405,1244.814054
7.5450,258.8936469,24.8874633,1244.748218
7.5500,258.6072106,24.74964937,1244.680874
7.5550,258.3043459,24.6105464,1244.611881
7.5600,257.9850565,24.47038649,1244.541298
7.5650,257.6503638,24.32843727,1244.468921
7.5700,257.3020758,24.18406336,1244.394671
7.5750,256.9409556,24.03683418,1244.318511
7.5800,256.569096,23.88661366,1244.240378
7.5850,256.186804,23.7324538,1244.160045
7.5900,255.795649,23.5732068,1244.07729
7.5950,255.3967126,23.40872463,1243.99214
7.6000,254.9910283,23.2374717,1243.904205
7.6050,254.579994,23.05912074,1243.813457
7.6100,254.1655978,22.87323867,1243.719791
7.6150,253.7502621,22.67949065,1243.623113
7.6200,253.3366366,22.4767248,1243.52322
7.6250,252.9260002,22.2664434,1243.420465
7.6300,252.5175086,22.04674391,1243.314315
7.6350,252.1114158,21.81692086,1243.204769
7.6400,251.7089007,21.57733009,1243.091835
7.6450,251.3101836,21.32857544,1242.975775
7.6500,250.9161071,21.0695269,1242.856296
7.6550,250.5270338,20.80095673,1242.733612
7.6600,250.1433185,20.52309749,1242.607906
7.6650,249.764338,20.23569087,1242.479116
7.6700,249.3900156,19.9393975,1242.347532
7.6750,249.0206203,19.63507142,1242.213332
7.6800,248.6551371,19.32386749,1242.076916
7.6850,248.2949241,19.00703579,1241.938715
7.6900,247.9400205,18.68569926,1241.799056
7.6950,247.5907592,18.361345,1241.658292
7.7000,247.2472982,18.03612037,1241.517034
7.7050,246.9081283,17.71004155,1241.375407
7.7100,246.5734936,17.38373856,1241.233584
7.7150,246.2430053,17.05815302,1241.091886
7.7200,245.9170306,16.73341381,1240.950346
7.7250,245.5953299,16.41089926,1240.80931
7.7300,245.2783639,16.09116746,1240.668992
7.7350,244.9669658,15.77352577,1240.529177
7.7400,244.6609402,15.45888342,1240.390062
7.7450,244.3618976,15.14719833,1240.251591
7.7500,244.070802,14.83810205,1240.113569
7.7550,243.7875677,14.53169906,1239.976072
7.7600,243.5142132,14.22729241,1239.838835
7.7650,243.2525501,13.92524187,1239.701792
7.7700,243.0012571,13.62601193,1239.564996
7.7750,242.7619089,13.32871806,1239.42829
7.7800,242.5355176,13.0350185,1239.291895
7.7850,242.3211647,12.74333689,1239.155418
7.7900,242.1180788,12.4542943,1239.019056
7.7950,241.9250459,12.16738329,1238.882663
7.8000,241.7405118,11.88239761,1238.746219
7.8050,241.5635672,11.59987484,1238.609869
7.8100,241.394284,11.31935036,1238.473441
7.8150,241.2324439,11.04275908,1238.337319
7.8200,241.0769211,10.76989693,1238.201448
7.8250,240.9264896,10.5002221,1238.065733
7.8300,240.7826437,10.23384977,1237.9302
7.8350,240.643093,9.970489729,1237.7947
7.8400,240.5080033,9.710772909,1237.65937
7.8450,240.3777007,9.453691637,1237.524008
7.8500,240.2516381,9.19981515,1237.388709
7.8550,240.1296386,8.948365445,1237.253273
7.8600,240.0124611,8.698720652,1237.117412
7.8650,239.9000665,8.450703015,1236.981026
7.8700,239.792874,8.203245293,1236.84382
7.8750,239.6926972,7.955970737,1236.705545
7.8800,239.5986149,7.707939859,1236.566046
7.8850,239.5122863,7.45916255,1236.425173
7.8900,239.4349093,7.20923983,1236.282732
7.8950,239.3668796,6.957672559,1236.138581
7.9000,239.3098004,6.703800122,1235.992499
7.9050,239.2643314,6.448482952,1235.844716
7.9100,239.230884,6.191391329,1235.695133
7.9150,239.2088546,5.932241999,1235.54375
7.9200,239.1981074,5.672277684,1235.390853
7.9250,239.1993309,5.410791525,1235.236315
7.9300,239.2111339,5.149212407,1235.080609
7.9350,239.2340651,4.887970306,1234.923742
7.9400,239.2671167,4.628061593,1234.765947
7.9450,239.3105586,4.370086727,1234.607417
7.9500,239.3628633,4.115465851,1234.448539
7.9550,239.4246126,3.864391938,1234.289299
7.9600,239.4939959,3.618457954,1234.130155
7.9650,239.5707649,3.377573996,1233.97116
7.9700,239.6550999,3.142683462,1233.81244
7.9750,239.7447067,2.915207428,1233.65446
7.9800,239.8411769,2.694016414,1233.496923
7.9850,239.9426753,2.480021552,1233.340092
7.9900,240.0481505,2.27279958,1233.18394
7.9950,240.1579247,2.073573737,1233.028678
8.0000,240.2707584,1.882147481,1232.87431
8.0050,240.3873384,1.699409481,1232.720941
8.0100,240.5074223,1.524681419,1232.568505
8.0150,240.6300918,1.35904232,1232.417161
8.0200,240.7556649,1.202277982,1232.266873
8.0250,240.8839672,1.054703139,1232.117765
8.0300,241.0150011,0.9165042692,1231.969763
8.0350,241.1491707,0.788959561,1231.82308
8.0400,241.2860884,0.6710952494,1231.677679
8.0450,241.4255103,0.56384096,1231.533671
8.0500,241.5667989,0.4674779209,1231.391167
8.0550,241.7107508,0.3823015344,1231.250201
8.0600,241.8559961,0.3087452496,1231.110941
8.0650,242.0014475,0.2468905551,1230.973456
8.0700,242.1477562,0.1974799304,1230.837861
8.0750,242.293694,0.1600481815,1230.704096
8.0800,242.4371413,0.1334223212,1230.572034
8.0850,242.5790459,0.1182458798,1230.441791
8.0900,242.7186629,0.1147960027,1230.313457
8.0950,242.8550037,0.122526935,1230.187039
8.1000,242.988305,0.1401422591,1230.062279
8.1050,243.1174041,0.1672692519,1229.93913
8.1100,243.2415292,0.2036641942,1229.817606
8.1150,243.3592582,0.2472624974,1229.697393
8.1200,243.4714422,0.2982904977,1229.578475
8.1250,243.5781748,0.3562598002,1229.460858
8.1300,243.6779089,0.4199259229,1229.344221
8.1350,243.772295,0.4903800869,1229.228763
8.1400,243.8604659,0.5662865312,1229.114364
8.1450,243.9420834,0.6483306067,1229.001055
8.1500,244.018247,0.7347318313,1228.888558
8.1550,244.0885754,0.8257080594,1228.776854
8.1600,244.1530235,0.9210911981,1228.666078
8.1650,244.2107329,1.019979301,1228.556056
8.1700,244.2617376,1.122510625,1228.446933
8.1750,244.3050035,1.227318316,1228.338429
8.1800,244.341846,1.334584199,1228.230631
8.1850,244.3712673,1.444199823,1228.123646
8.1900,244.3930738,1.555163638,1228.017369
8.1950,244.4063306,1.666641835,1227.911656
8.2000,244.4100954,1.779734664,1227.806811
8.2050,244.4049735,1.892980145,1227.702509
8.2100,244.3896549,2.006291819,1227.59884
8.2150,244.3644927,2.119914317,1227.495858
8.2200,244.3300615,2.233400289,1227.393567
8.2250,244.285386,2.345891104,1227.291801
8.2300,244.2300416,2.456566959,1227.190368
8.2350,244.163563,2.565235492,1227.089417
8.2400,244.0870138,2.671316013,1226.988797
8.2450,243.9985706,2.773727093,1226.888343
8.2500,243.8988302,2.873157466,1226.788219
8.2550,243.7872357,2.970130584,1226.688508
8.2600,243.6646086,3.063500239,1226.58893
8.2650,243.5307349,3.156284637,1226.49006
8.2700,243.385797,3.248277127,1226.391834
8.2750,243.2307454,3.338130096,1226.293948
8.2800,243.0651454,3.428418838,1226.196968
8.2850,242.8896961,3.518714564,1226.100735
8.2900,242.7061825,3.611587054,1226.005688
8.2950,242.5139291,3.707136099,1225.911813
8.3000,242.3147602,3.805117537,1225.819045
8.3050,242.1092998,3.906578625,1225.727633
8.3100,241.8967022,4.0126219,1225.637696
8.3150,241.6796551,4.123503831,1225.549274
8.3200,241.4580662,4.240809011,1225.462542
8.3250,241.233976,4.364632379,1225.37756
8.3300,241.0073668,4.495609712,1225.294419
8.3350,240.7789678,4.633689219,1225.213138
8.3400,240.5499147,4.779894222,1225.133745
8.3450,240.321488,4.934080604,1225.056303
8.3500,240.0941268,5.097310278,1224.980985
8.3550,239.8690586,5.269785505,1224.907864
8.3600,239.6472275,5.450794148,1224.836788
8.3650,239.4290589,5.641445511,1224.767957
8.3700,239.2151642,5.840467345,1224.701227
8.3750,239.0062742,6.04829164,1224.636602
8.3800,238.8037952,6.266011963,1224.574165
8.3850,238.6079255,6.493272992,1224.513919
8.3900,238.4183565,6.729582666,1224.455787
8.3950,238.2349148,6.976150356,1224.39989
8.4000,238.0579562,7.233573992,1224.346399
8.4050,237.8868395,7.501327209,1224.295151
8.4100,237.7216729,7.780483985,1224.246427
8.4150,237.5633699,8.070689994,1224.200142
8.4200,237.4104796,8.371795413,1224.15631
8.4250,237.2627228,8.683816734,1224.114996
8.4300,237.1194516,9.007023916,1224.076246
8.4350,236.9787656,9.339726254,1224.039803
8.4400,236.8407353,9.682168067,1224.00572
8.4450,236.703483,10.03335769,1223.973879
8.4500,236.5664402,10.39238522,1223.944095
8.4550,236.4292008,10.7586283,1223.916289
8.4600,236.2899447,11.13128995,1223.890261
8.4650,236.1480786,11.50978305,1223.865881
8.4700,236.001811,11.89270499,1223.842813
8.4750,235.851133,12.27945903,1223.821023
8.4800,235.6943141,12.67114997,1223.800736
8.4850,235.5323688,13.06488209,1223.781355
8.4900,235.3634739,13.46253579,1223.763295
8.4950,235.1881677,13.86347097,1223.746586
8.5000,235.0073907,14.26481662,1223.730544
8.5050,234.8196932,14.6671482,1223.715441
8.5100,234.6257298,15.06969721,1223.70114
8.5150,234.4249339,15.47205188,1223.687688
8.5200,234.2145736,15.87297565,1223.67489
8.5250,233.9945987,16.27227337,1223.662886
8.5300,233.7659855,16.67081483,1223.651836
8.5350,233.5277774,17.06792617,1223.641672
8.5400,233.2795789,17.46295305,1223.632385
8.5450,233.0221948,17.85667884,1223.624113
8.5500,232.7564868,18.24792944,1223.616537
8.5550,232.481785,18.63705426,1223.609821
8.5600,232.198449,19.02451999,1223.604039
8.5650,231.907069,19.40918671,1223.598917
8.5700,231.607856,19.79128336,1223.594523
8.5750,231.3014816,20.17178379,1223.591053
8.5800,230.9884187,20.55047969,1223.58841
8.5850,230.6697476,20.92821795,1223.586805
8.5900,230.3446847,21.30382776,1223.585986
8.5950,230.0133621,21.67831499,1223.586121
8.6000,229.6756294,22.05168132,1223.587209
8.6050,229.3316849,22.42467036,1223.589346
8.6100,228.9829067,22.79749506,1223.592607
8.6150,228.6294801,23.1695341,1223.596918
8.6200,228.2723312,23.54198409,1223.602524
8.6250,227.9125346,23.91569334,1223.609635
8.6300,227.5509288,24.29072787,1223.618288
8.6350,227.1884647,24.66826642,1223.628732
8.6400,226.8245669,25.04872994,1223.641199
8.6450,226.4595333,25.4324819,1223.655761
8.6500,226.0941368,25.81831556,1223.672102
8.6550,225.7275722,26.2067934,1223.690321
8.6600,225.3612023,26.59968697,1223.710896
8.6650,224.9935084,26.99597866,1223.733593
8.6700,224.6248221,27.39521036,1223.758246
8.6750,224.2546428,27.79802092,1223.785163
8.6800,223.8831199,28.20387612,1223.814261
8.6850,223.5086188,28.61375619,1223.845913
8.6900,223.1320073,29.02763631,1223.880105
8.6950,222.7523146,29.44421889,1223.91661
8.7000,222.3693157,29.86381011,1223.955611
8.7050,221.9827077,30.28610549,1223.997116
8.7100,221.5916395,30.71023139,1224.040846
8.7150,221.1952851,31.13668322,1224.087086
8.7200,220.7927605,31.56386925,1224.135437
8.7250,220.3832448,31.99115615,1224.185696
8.7300,219.9658246,32.41877384,1224.238066
8.7350,219.5403349,32.84646095,1224.292545
8.7400,219.1050603,33.27334351,1224.348856
8.7450,218.660775,33.69886677,1224.406896
8.7500,218.2058691,34.12289655,1224.466728
8.7550,217.7394132,34.54481969,1224.528257
8.7600,217.2626195,34.96418917,1224.591369
8.7650,216.7761947,35.38170213,1224.656237
8.7700,216.2812079,35.79680164,1224.722728
8.7750,215.7771663,36.21018176,1224.790977
8.7800,215.2645157,36.61984881,1224.860549
8.7850,214.7419229,37.02661075,1224.931745
8.7900,214.2096785,37.42902066,1225.004272
8.7950,213.6674492,37.82730098,1225.078136
8.8000,213.1146321,38.22265222,1225.153858
8.8050,212.5523942,38.61530694,1225.231521
8.8100,211.9808187,39.00564338,1225.311278
8.8150,211.4006561,39.39309407,1225.39291
8.8200,210.8149313,39.77913866,1225.476662
8.8250,210.2237759,40.16372824,1225.562494
8.8300,209.6271044,40.54672686,1225.650454
8.8350,209.0262694,40.92861055,1225.740481
8.8400,208.4224638,41.31129074,1225.833082
8.8450,207.8163419,41.69469148,1225.928247
8.8500,207.2082323,42.07980836,1226.026275
8.8550,206.6000099,42.46647184,1226.126911
8.8600,205.9921635,42.85501842,1226.230255
8.8650,205.3846684,43.24533852,1226.336208
8.8700,204.7786934,43.63770257,1226.444703
8.8750,204.1739041,44.0314234,1226.555615
8.8800,203.5698658,44.42657372,1226.668898
8.8850,202.9663802,44.82280696,1226.784476
8.8900,202.3637932,45.22074262,1226.902441
8.8950,201.763918,45.61957428,1227.022429
8.9000,201.168548,46.02134269,1227.144881
8.9050,200.5773476,46.42446178,1227.269324
8.9100,199.9903304,46.82993624,1227.396058
8.9150,199.4077252,47.23851083,1227.525214
8.9200,198.8294674,47.65007366,1227.656803
8.9250,198.2544861,48.06430603,1227.790803
8.9300,197.6836786,48.48107859,1227.927107
8.9350,197.1159423,48.90043391,1228.065894
8.9400,196.5521947,49.32179618,1228.206892
8.9450,195.9929373,49.74489571,1228.349922
8.9500,195.4377171,50.17042375,1228.495265
8.9550,194.8868939,50.59718956,1228.642502
8.9600,194.3409844,51.02554933,1228.791668
8.9650,193.7997852,51.45576233,1228.942907
8.9700,193.2627864,51.88804002,1229.096382
8.9750,192.7297686,52.32189964,1229.251938
8.9800,192.2001303,52.75663009,1229.409337
8.9850,191.673974,53.19149527,1229.568274
8.9900,191.1500972,53.6273413,1229.729149
8.9950,190.629567,54.06370819,1229.891649
9.0000,190.1113935,54.50138659,1230.056099
9.0050,189.5957358,54.94072211,1230.222604
9.0100,189.0815044,55.38070308,1230.390993
9.0150,188.5691501,55.82190825,1230.561384
9.0200,188.0575088,56.26476903,1230.734132
9.0250,187.5450273,56.70887587,1230.909359
9.0300,187.0309799,57.15356508,1231.087
9.0350,186.5134152,57.59842556,1231.267171
9.0400,185.9922918,58.04338743,1231.449923
9.0450,185.4663294,58.48769373,1231.635114
9.0500,184.9354021,58.93295061,1231.823316
9.0550,184.4000338,59.37865618,1232.014337
9.0600,183.8584004,59.82534602,1232.208617
9.0650,183.3102654,60.27269592,1232.406177
9.0700,182.7549071,60.72227963,1232.607643
9.0750,182.1918715,61.1726964,1232.812776
9.0800,181.6221171,61.62503033,1233.021801
9.0850,181.0445782,62.08013005,1233.235179
9.0900,180.4612099,62.5371836,1233.452319
9.0950,179.871632,62.99646744,1233.673468
9.1000,179.275974,63.45839087,1233.898791
9.1050,178.6748545,63.92262685,1234.128078
9.1100,178.0679616,64.38892337,1234.361337
9.1150,177.4547158,64.85654935,1234.598499
9.1200,176.8336366,65.32569069,1234.839899
9.1250,176.2054362,65.79630687,1235.085483
9.1300,175.5706633,66.26861261,1235.335286
9.1350,174.9288889,66.74079902,1235.588798
9.1400,174.2797225,67.21307721,1235.846113
9.1450,173.6225689,67.68368637,1236.106701
9.1500,172.9568692,68.15214389,1236.370519
9.1550,172.2817664,68.61848704,1236.637857
9.1600,171.5972988,69.08230926,1236.908466
9.1650,170.9035235,69.54384521,1237.182565
9.1700,170.2007021,70.00293493,1237.460077
9.1750,169.4895284,70.45999308,1237.741034
9.1800,168.770068,70.91495982,1238.025515
9.1850,168.0429729,71.36903398,1238.313901
9.1900,167.3092676,71.82251406,1238.60625
9.1950,166.5688477,72.27608498,1238.902976
9.2000,165.8217141,72.72971424,1239.204076
9.2050,165.0694927,73.18493124,1239.509968
9.2100,164.3136806,73.64175437,1239.820462
9.2150,163.5538528,74.10003007,1240.135578
9.2200,162.7916764,74.55960292,1240.45496
9.2250,162.0280556,75.02090361,1240.778707
9.2300,161.2622236,75.48401463,1241.106941
9.2350,160.4954361,75.94843797,1241.439266
9.2400,159.7281652,76.41448814,1241.775641
9.2450,158.9604721,76.88143582,1242.115841
9.2500,158.1920285,77.34864953,1242.459673
9.2550,157.4232898,77.81728487,1242.807531
9.2600,156.6529649,78.28570702,1243.159027
9.2650,155.8829621,78.75421659,1243.513944
9.2700,155.1144844,79.22322442,1243.872135
9.2750,154.3479972,79.69271538,1244.233437
9.2800,153.5830605,80.1634686,1244.598304
9.2850,152.8207341,80.63449428,1244.966039
9.2900,152.0614935,81.10573872,1245.33647
9.2950,151.305121,81.57733234,1245.709693
9.3000,150.5516936,82.04881607,1246.085469
9.3050,149.8004057,82.51957033,1246.463758
9.3100,149.0519525,82.99068375,1246.844751
9.3150,148.3055587,83.46168906,1247.22854
9.3200,147.561721,83.93285147,1247.615047
9.3250,146.8220333,84.40461698,1248.004092
9.3300,146.0870735,84.87717922,1248.39557
9.3350,145.3585093,85.34995148,1248.788787
9.3400,144.6361367,85.82270195,1249.183627
9.3450,143.9211294,86.2956357,1249.57996
9.3500,143.2121907,86.7674931,1249.977457
9.3550,142.5084357,87.23756146,1250.376014
9.3600,141.8099325,87.70450807,1250.774931
9.3650,141.1162888,88.16725446,1251.173741
9.3700,140.4265005,88.62369071,1251.571643
9.3750,139.7408818,89.07377165,1251.96844
9.3800,139.0577861,89.51611634,1252.363817
9.3850,138.3771566,89.94933176,1252.757137
9.3900,137.6973554,90.37293584,1253.148533
9.3950,137.0179074,90.78648034,1253.537862
9.4000,136.3377435,91.18880936,1253.924834
9.4050,135.6561615,91.57902273,1254.309085
9.4100,134.9722149,91.95735404,1254.690941
9.4150,134.2866683,92.32517363,1255.070831
9.4200,133.5995044,92.68153308,1255.448256
9.4250,132.9105957,93.02727197,1255.823629
9.4300,132.2196369,93.36238614,1256.197067
9.4350,131.5258735,93.68762023,1256.569094
9.4400,130.8289367,94.00200019,1256.939356
9.4450,130.1287943,94.30785888,1257.30897
9.4500,129.4248503,94.60509426,1257.678025
9.4550,128.7172495,94.89378251,1258.046541
9.4600,128.0055086,95.17506579,1258.415275
9.4650,127.2889931,95.4497203,1258.784753
9.4700,126.5672436,95.71820576,1259.155415
9.4750,125.8392447,95.98225524,1259.52846
9.4800,125.1063849,96.24233982,1259.903732
9.4850,124.3682338,96.49854423,1260.281398
9.4900,123.6254301,96.75118474,1260.661365
9.4950,122.8778334,97.00113124,1261.044148
9.5000,122.1253028,97.24852768,1261.429885
9.5050,121.3680377,97.49387932,1261.81878
9.5100,120.6057736,97.73762327,1262.211163
9.5150,119.8390925,97.98107232,1262.607539
9.5200,119.0677864,98.22335274,1263.007624
9.5250,118.2914448,98.46550684,1263.41207
9.5300,117.5106217,98.70781555,1263.820941
9.5350,116.7249726,98.94997248,1264.234163
9.5400,115.9345586,99.19232805,1264.652017
9.5450,115.1386024,99.43491483,1265.074838
9.5500,114.3388509,99.67835423,1265.502416
9.5550,113.5347503,99.92098507,1265.934163
9.5600,112.7262317,100.1630037,1266.37022
9.5650,111.9135698,100.4037795,1266.810138
9.5700,111.0949259,100.6423408,1267.254186
9.5750,110.2710511,100.8785866,1267.702072
9.5800,109.4432934,101.1124829,1268.153313
9.5850,108.6102134,101.344774,1268.608894
9.5900,107.7724663,101.5757123,1269.068713
9.5950,106.9302149,101.8058065,1269.53308
9.6000,106.0844317,102.035204,1270.001719
9.6050,105.2353637,102.2648996,1270.475072
9.6100,104.3836336,102.495142,1270.953112
9.6150,103.5306835,102.7265059,1271.435482
9.6200,102.677954,102.9596284,1271.922082
9.6250,101.8242811,103.1943444,1272.413302
9.6300,100.9715801,103.4307159,1272.90847
9.6350,100.1196581,103.6689864,1273.407823
9.6400,99.26891181,103.9103667,1273.911902
9.6450,98.41959899,104.154729,1274.420533
9.6500,97.57404478,104.4019357,1274.932715
9.6550,96.7322882,104.6533648,1275.449113
9.6600,95.89655988,104.9089472,1275.968758
9.6650,95.06672905,105.1695821,1276.492158
9.6700,94.24458154,105.4368678,1277.019506
9.6750,93.43091371,105.7113859,1277.550712
9.6800,92.62575087,105.9925058,1278.085398
9.6850,91.83028527,106.2817268,1278.623796
9.6900,91.04535694,106.5790769,1279.165493
9.6950,90.27184824,106.88466,1279.710062
9.7000,89.51066165,107.1995933,1280.257703
9.7050,88.76203585,107.5241769,1280.808493
9.7100,88.02632174,107.8577459,1281.361763
9.7150,87.30263233,108.1993185,1281.917244
9.7200,86.5914624,108.5489762,1282.474704
9.7250,85.89156628,108.9062087,1283.034391
9.7300,85.20359064,109.2695363,1283.595057
9.7350,84.52770135,109.6394704,1284.156841
9.7400,83.86283916,110.0152695,1284.719776
9.7450,83.20961259,110.3949193,1285.282339
9.7500,82.56810482,110.7774363,1285.843934
9.7550,81.93622042,111.1617988,1286.40488
9.7600,81.31485009,111.5461109,1286.96363
9.7650,80.70285726,111.9274008,1287.518911
9.7700,80.09938193,112.3048073,1288.070474
9.7750,79.50438146,112.6757131,1288.616713
9.7800,78.91677693,113.0385892,1289.157142
9.7850,78.3357033,113.3922042,1289.691334
9.7900,77.76008248,113.7358448,1290.219294
9.7950,77.18927592,114.0678941,1290.74035
9.8000,76.62282169,114.3885872,1291.254817
9.8050,76.06024819,114.6969076,1291.762178
9.8100,75.50091803,114.9914103,1292.261731
9.8150,74.94480109,115.2720563,1292.753399
9.8200,74.39164763,115.5395711,1293.237679
9.8250,73.83975285,115.7928757,1293.714658
9.8300,73.28995733,116.0328114,1294.184413
9.8350,72.74271805,116.2601285,1294.647016
9.8400,72.19643865,116.4751011,1295.103458
9.8450,71.65214451,116.678243,1295.55343
9.8500,71.10864379,116.8692656,1295.997366
9.8550,70.56631093,117.0493205,1296.435616
9.8600,70.02664717,117.2202843,1296.86859
9.8650,69.48811011,117.3818622,1297.296856
9.8700,68.95153329,117.5346491,1297.720264
9.8750,68.41644976,117.6795965,1298.139708
9.8800,67.88307323,117.8172024,1298.555389
9.8850,67.3521441,117.948408,1298.967447
9.8900,66.82290849,118.0716091,1299.375329
9.8950,66.29733943,118.1886147,1299.779119
9.9000,65.77502068,118.2989485,1300.178751
9.9050,65.2574381,118.402676,1300.573411
9.9100,64.74487285,118.5007791,1300.963592
9.9150,64.23676819,118.592284,1301.348984
9.9200,63.73354029,118.6769785,1301.729198
9.9250,63.23669939,118.7559819,1302.104083
9.9300,62.74583126,118.8295117,1302.474001
9.9350,62.26283999,118.8982615,1302.83818
9.9400,61.78886699,118.9609145,1303.195101
9.9450,61.32389187,119.0178881,1303.544915
9.9500,60.86692935,119.0687196,1303.8878
9.9550,60.41877709,119.1131406,1304.223013
9.9600,59.97740571,119.1512501,1304.55165
9.9650,59.54195777,119.1821966,1304.873629
9.9700,59.11093109,119.20457,1305.188701
9.9750,58.68179916,119.2181559,1305.498103
9.9800,58.25448556,119.2242737,1305.802602
9.9850,57.82734941,119.220503,1306.101506
9.9900,57.39993658,119.2083548,1306.39606
9.9950,56.9716779,119.1875608,1306.686352
10.0000,56.54162138,119.1582591,1306.972945
10.0050,56.10838437,119.12052,1307.256586
10.0100,55.67226923,119.0760325,1307.538282
10.0150,55.23103784,119.0244975,1307.819038
10.0200,54.78482196,118.9671004,1308.09958
10.0250,54.33305519,118.9038098,1308.380238
10.0300,53.87575923,118.8367873,1308.662414
10.0350,53.41230803,118.7661552,1308.946609
10.0400,52.94272427,118.6916419,1309.232692
10.0450,52.46630849,118.6137499,1309.521442
10.0500,51.98296303,118.5337707,1309.813755
10.0550,51.49418176,118.4519509,1310.108918
10.0600,50.99843874,118.3689378,1310.408229
10.0650,50.4966046,118.285791,1310.711997
10.0700,49.9901187,118.202838,1311.019575
10.0750,49.47933652,118.1214974,1311.331685
10.0800,48.9653351,118.0423531,1311.648121
10.0850,48.44940013,117.9660333,1311.968495
10.0900,47.9326637,117.8930289,1312.292514
10.0950,47.41585579,117.8238946,1312.619954
10.1000,46.8985005,117.7581479,1312.950818
10.1050,46.38167446,117.6972709,1313.285446
10.1100,45.86572912,117.6430168,1313.624756
10.1150,45.3512491,117.5957033,1313.968624
10.1200,44.83868459,117.5570573,1314.317936
10.1250,44.33099591,117.5288221,1314.671929
10.1300,43.82703141,117.5109238,1315.031213
10.1350,43.32636179,117.50374,1315.396388
10.1400,42.83124523,117.5085451,1315.766736
10.1450,42.34104359,117.5262268,1316.143317
10.1500,41.85633602,117.5585875,1316.526937
10.1550,41.37741645,117.6060365,1316.917732
10.1600,40.90332082,117.6677233,1317.315692
10.1650,40.43489872,117.7443071,1317.720715
10.1700,39.97333193,117.8362303,1318.132326
10.1750,39.51788116,117.9420712,1318.550039
10.1800,39.06735844,118.0609009,1318.974106
10.1850,38.62153348,118.1910617,1319.403543
10.1900,38.18043773,118.3315485,1319.837706
10.1950,37.74191708,118.4803817,1320.276603
10.2000,37.30518844,118.6360689,1320.719875
10.2050,36.87130029,118.7986468,1321.166892
10.2100,36.43961838,118.9650597,1321.616048
10.2150,36.00988865,119.1345504,1322.067001
10.2200,35.58049228,119.3050547,1322.519444
10.2250,35.15117767,119.4745787,1322.972241
10.2300,34.72216207,119.6417982,1323.424391
10.2350,34.29155191,119.8042168,1323.875621
10.2400,33.85801252,119.9609634,1324.326251
10.2450,33.42129894,120.1110147,1324.775763
10.2500,32.98156268,120.2533132,1325.223423
10.2550,32.53780039,120.3866724,1325.669189
10.2600,32.08994069,120.509982,1326.112298
10.2650,31.63971063,120.623164,1326.551468
10.2700,31.18526717,120.7252759,1326.987429
10.2750,30.7280186,120.8158893,1327.418832
10.2800,30.26793183,120.8934107,1327.844576
10.2850,29.80483672,120.9587204,1328.265406
10.2900,29.33840044,121.0104747,1328.680555
10.2950,28.8683849,121.0476473,1329.08943
10.3000,28.39481901,121.0692199,1329.491196
10.3050,27.91737306,121.0746175,1329.885747
10.3100,27.43641308,121.0624552,1330.271645
10.3150,26.95405512,121.0329506,1330.647532
10.3200,26.46893509,120.9841359,1331.012931
10.3250,25.98099825,120.9159879,1331.367777
10.3300,25.49004943,120.8276359,1331.711447
10.3350,24.99721826,120.7189505,1332.043005
10.3400,24.50336665,120.5897252,1332.361467
10.3450,24.00936402,120.4416649,1332.667417
10.3500,23.51598204,120.2737244,1332.959408
10.3550,23.02413979,120.0868745,1333.237342
10.3600,22.53529624,119.8808731,1333.499872
10.3650,22.04965806,119.6560684,1333.747027
10.3700,21.56748997,119.4136965,1333.979428
10.3750,21.08915689,119.1528441,1334.196035
10.3800,20.61546599,118.8742885,1334.396704
10.3850,20.14660786,118.5788092,1334.58174
10.3900,19.68388064,118.268162,1334.751285
10.3950,19.2295711,117.9459746,1334.906098
10.4000,18.78381898,117.6129853,1335.046396
10.4050,18.34790904,117.2710483,1335.172423
10.4100,17.9236504,116.9228466,1335.284513
10.4150,17.5124488,116.5712352,1335.383489
10.4200,17.11629316,116.2178821,1335.468669
10.4250,16.73549617,115.8634855,1335.540178
10.4300,16.37253987,115.5108483,1335.597859
10.4350,16.02846487,115.1616593,1335.641858
10.4400,15.70401576,114.8168735,1335.67209
10.4450,15.39883055,114.4772036,1335.689056
10.4500,15.11536341,114.1440108,1335.691593
10.4550,14.85378239,113.8180452,1335.679864
10.4600,14.61422555,113.4995192,1335.653763
10.4650,14.39776167,113.1888498,1335.612534
10.4700,14.20374251,112.8872477,1335.557479
10.4750,14.03297666,112.5951393,1335.488043
10.4800,13.8858647,112.3122369,1335.403477
10.4850,13.76333025,112.0395246,1335.303695
10.4900,13.66470579,111.7779439,1335.189709
10.4950,13.5901988,111.526469,1335.060638
10.5000,13.54013159,111.2857911,1334.91658
10.5050,13.51266074,111.0536358,1334.757504
10.5100,13.50722952,110.8303926,1334.584065
10.5150,13.5245469,110.6164403,1334.396066
10.5200,13.56446844,110.4104905,1334.192814
10.5250,13.6264389,110.2111258,1333.973806
10.5300,13.70863796,110.0174046,1333.739964
10.5350,13.81142638,109.8294249,1333.491126
10.5400,13.93559958,109.6464138,1333.22634
10.5450,14.08008865,109.4678999,1332.946383
10.5500,14.24460993,109.2928587,1332.650804
10.5550,14.42835647,109.1207688,1332.340136
10.5600,14.62949654,108.9490802,1332.014336
10.5650,14.84708968,108.7771039,1331.673771
10.5700,15.08103742,108.6043019,1331.318334
10.5750,15.331304,108.4301853,1330.947842
10.5800,15.59513923,108.2514699,1330.562548
10.5850,15.87164804,108.0670335,1330.162451
10.5900,16.15907491,107.8752708,1329.748114
10.5950,16.45686692,107.6760979,1329.320104
10.6000,16.7639273,107.4683948,1328.878749
10.6050,17.0805391,107.2514016,1328.423515
10.6100,17.40527655,107.0241887,1327.955241
10.6150,17.73532766,106.7859735,1327.475714
10.6200,18.07222913,106.5384061,1326.985028
10.6250,18.41684739,106.2808034,1326.482304
10.6300,18.76867123,106.0137626,1325.968495
10.6350,19.12700499,105.7371233,1325.444252
10.6400,19.49199966,105.4520092,1324.910432
10.6450,19.86345807,105.1570977,1324.366446
10.6500,20.24202969,104.8539997,1323.813175
10.6550,20.62737414,104.543078,1323.251303
10.6600,21.01911552,104.2245223,1322.681465
10.6650,21.41887192,103.8989791,1322.102939
10.6700,21.8257296,103.5659713,1321.516313
10.6750,22.24015523,103.2265388,1320.922075
10.6800,22.66128736,102.8820284,1320.321823
10.6850,23.0907005,102.5341678,1319.715718
10.6900,23.52775014,102.1826002,1319.104035
10.6950,23.97187103,101.8269851,1318.487213
10.7000,24.42483772,101.4692531,1317.865229
10.7050,24.88556089,101.1090928,1317.238803
10.7100,25.35299213,100.7456785,1316.608269
10.7150,25.82774543,100.3795388,1315.973574
10.7200,26.30888093,100.0107113,1315.335508
10.7250,26.79575307,99.64015761,1314.69515
10.7300,27.28752189,99.26731413,1314.052796
10.7350,27.78349965,98.89324081,1313.409702
10.7400,28.28307249,98.51779208,1312.766263
10.7450,28.78857987,98.142918,1312.122067
10.7500,29.2987684,97.76891261,1311.478183
10.7550,29.81358255,97.39621178,1310.835028
10.7600,30.33399374,97.0258836,1310.192624
10.7650,30.8592962,96.65778712,1309.551501
10.7700,31.38920039,96.29121014,1308.911448
10.7750,31.92453967,95.92705843,1308.272503
10.7800,32.46481233,95.56505113,1307.635024
10.7850,33.00904371,95.2059025,1307.000084
10.7900,33.55799975,94.8492264,1306.366964
10.7950,34.11041283,94.49382959,1305.735925
10.8000,34.66638179,94.13962218,1305.106921
10.8050,35.22496519,93.7860587,1304.480321
10.8100,35.78518119,93.4323227,1303.856361
10.8150,36.34565043,93.07657896,1303.234934
10.8200,36.90448034,92.71818733,1302.61688
10.8250,37.46062664,92.3565158,1302.002651
10.8300,38.01280741,91.99052947,1301.392421
10.8350,38.55960312,91.62000179,1300.787008
10.8400,39.09917242,91.24444664,1300.187345
10.8450,39.63124828,90.86339471,1299.593278
10.8500,40.15588881,90.47739295,1299.005194
10.8550,40.67265499,90.08514339,1298.422592
10.8600,41.18297836,89.6892262,1297.845976
10.8650,41.68536048,89.28860859,1297.275659
10.8700,42.17970744,88.882694,1296.711318
10.8750,42.66445187,88.47117959,1296.153762
10.8800,43.14020413,88.05592606,1295.603549
10.8850,43.60766712,87.63760826,1295.060543
10.8900,44.06752956,87.21669591,1294.52456
10.8950,44.51998779,86.79253339,1293.995097
10.9000,44.9644818,86.36540763,1293.472662
10.9050,45.39997698,85.93506626,1292.957621
10.9100,45.82649645,85.50163042,1292.449952
10.9150,46.24553035,85.06538255,1291.948987
10.9200,46.65582492,84.62508576,1291.454776
10.9250,47.05698203,84.18010034,1290.96716
10.9300,47.44911978,83.73032678,1290.486087
10.9350,47.83216494,83.27576437,1290.01148
10.9400,48.20552206,82.81589601,1289.543436
10.9450,48.56913733,82.35143604,1289.082248
10.9500,48.92225796,81.88226317,1288.628173
10.9550,49.26606458,81.41004395,1288.181318
10.9600,49.6010421,80.93641531,1287.742079
10.9650,49.92740289,80.4624948,1287.310768
10.9700,50.24696402,79.9881126,1286.886171
10.9750,50.55957821,79.51604066,1286.469738
10.9800,50.86756167,79.04617703,1286.059967
10.9850,51.17013553,78.57893933,1285.657482
10.9900,51.46780391,78.11434081,1285.261991
10.9950,51.76191692,77.65253749,1284.872551
11.0000,52.05173956,77.1932156,1284.489424
11.0050,52.33770461,76.73645038,1284.112261
11.0100,52.62166022,76.28325768,1283.740347
11.0150,52.90250789,75.83283831,1283.373902
11.0200,53.18024089,75.38449146,1283.012532
11.0250,53.45666421,74.93985577,1282.655846
11.0300,53.73284048,74.49903229,1282.303269
11.0350,54.01014759,74.06161906,1281.953652
11.0400,54.28909498,73.6289919,1281.607302
11.0450,54.56931684,73.19958803,1281.263748
11.0500,54.85097895,72.77263153,1280.922396
11.0550,55.13492254,72.34921331,1280.583324
11.0600,55.42162102,71.92935397,1280.246149
11.0650,55.71219684,71.51292362,1279.910123
11.0700,56.00705207,71.09998118,1279.574987
11.0750,56.30659203,70.68949166,1279.240008
11.0800,56.60996584,70.28153271,1278.90561
11.0850,56.91747379,69.87444092,1278.570972
11.0900,57.22908184,69.46905362,1278.236523
11.0950,57.5445715,69.06502493,1277.902237
11.1000,57.86398868,68.66227325,1277.568041
11.1050,58.1873659,68.26056059,1277.233765
11.1100,58.51442069,67.85936886,1276.899318
11.1150,58.84478346,67.45909959,1276.565057
11.1200,59.17924912,67.0593564,1276.230467
11.1250,59.5179976,66.66226999,1275.896236
11.1300,59.86205837,66.26799712,1275.561868
11.1350,60.21239265,65.87687758,1275.227036
11.1400,60.56826939,65.48797861,1274.89164
11.1450,60.92973841,65.10166711,1274.555888
11.1500,61.29574192,64.71720216,1274.219915
11.1550,61.6673852,64.33652122,1273.884019
11.1600,62.04253771,63.95894441,1273.549104
11.1650,62.42145028,63.58386928,1273.214871
11.1700,62.80522367,63.21305227,1272.881558
11.1750,63.19336626,62.84598509,1272.549272
11.1800,63.58686565,62.48220181,1272.217257
11.1850,63.98570302,62.12206435,1271.885742
11.1900,64.39036196,61.76445529,1271.553945
11.1950,64.79941827,61.41052362,1271.22308
11.2000,65.2129948,61.05951019,1270.892746
11.2050,65.63210387,60.71104718,1270.562185
11.2100,66.05691408,60.3647798,1270.231091
11.2150,66.48740226,60.02046289,1269.899249
11.2200,66.9226722,59.67760084,1269.566971
11.2250,67.36235621,59.33759003,1269.235013
11.2300,67.80579411,58.99799838,1268.90278
11.2350,68.25174704,58.65787015,1268.570663
11.2400,68.7005185,58.31812896,1268.238949
11.2450,69.15165664,57.97753824,1267.907608
11.2500,69.60447701,57.63578296,1267.576918
11.2550,70.05894898,57.29151337,1267.246409
11.2600,70.51448163,56.9430734,1266.915864
11.2650,70.97114877,56.59040449,1266.585313
11.2700,71.42806986,56.23402972,1266.255544
11.2750,71.88700264,55.87220361,1265.924923
11.2800,72.34606051,55.50544177,1265.594728
11.2850,72.80643611,55.13255356,1265.263789
11.2900,73.26833222,54.75527757,1264.932672
11.2950,73.73087046,54.37266157,1264.601537
11.3000,74.19532637,53.98634401,1264.270396
11.3050,74.66203133,53.59605359,1263.938965
11.3100,75.13112299,53.20240829,1263.607644
11.3150,75.60355482,52.80567458,1263.276147
11.3200,76.08049589,52.40580436,1262.944012
11.3250,76.56096246,52.00230738,1262.611723
11.3300,77.04508772,51.59468486,1262.278993
11.3350,77.5339933,51.18268223,1261.945263
11.3400,78.02730659,50.76523099,1261.610439
11.3450,78.52482051,50.3419695,1261.274501
11.3500,79.02767297,49.91321919,1260.937134
11.3550,79.53592969,49.47773188,1260.597824
11.3600,80.04915112,49.03626034,1260.257236
11.3650,80.56666445,48.5882074,1259.915568
11.3700,81.08948282,48.13413481,1259.572767
11.3750,81.61556799,47.67462662,1259.230124
11.3800,82.14647881,47.21082284,1258.887497
11.3850,82.68116696,46.74158976,1258.545037
11.3900,83.22035694,46.26712936,1258.202545
11.3950,83.7622991,45.78722737,1257.860754
11.4000,84.30671393,45.30256052,1257.520012
11.4050,84.85407677,44.81422748,1257.180533
11.4100,85.40473422,44.32225904,1256.842066
11.4150,85.95874789,43.82698251,1256.504578
11.4200,86.51594793,43.32959728,1256.168387
11.4250,87.07666676,42.83010323,1255.833293
11.4300,87.63974377,42.32929826,1255.500042
11.4350,88.20355696,41.82697381,1255.169177
11.4400,88.76927388,41.32446643,1254.84059
11.4450,89.3361881,40.82219556,1254.514739
11.4500,89.90434407,40.32047608,1254.191829
11.4550,90.47180803,39.8188543,1253.872572
11.4600,91.04000784,39.31724032,1253.556203
11.4650,91.60838414,38.81670782,1253.243324
11.4700,92.17665343,38.31625936,1252.933653
11.4750,92.74472997,37.81692175,1252.62763
11.4800,93.31237229,37.31992249,1252.325627
11.4850,93.88014625,36.82640867,1252.027737
11.4900,94.44771335,36.33734338,1251.734437
11.4950,95.01569288,35.85152402,1251.444971
11.5000,95.58548935,35.36981668,1251.158867
11.5050,96.15721826,34.89309864,1250.876367
11.5100,96.7293677,34.42103063,1250.597901
11.5150,97.30127307,33.95224336,1250.32334
11.5200,97.87304607,33.48706471,1250.05264
11.5250,98.4433242,33.02420411,1249.785754
11.5300,99.01116138,32.56325413,1249.522834
11.5350,99.5776841,32.1043063,1249.263242
11.5400,100.142345,31.6461515,1249.006706
11.5450,100.7052263,31.18952185,1248.753203
11.5500,101.2666182,30.73415638,1248.502492
11.5550,101.8254231,30.27952227,1248.254821
11.5600,102.3839084,29.82712234,1248.009578
11.5650,102.9416805,29.3767136,1247.766916
11.5700,103.499733,28.92814084,1247.526347
11.5750,104.0567338,28.48251539,1247.288835
11.5800,104.6138807,28.03945501,1247.053803
11.5850,105.1704677,27.59972109,1246.821913
11.5900,105.7253822,27.16193046,1246.593349
11.5950,106.2789182,26.72660329,1246.368272
11.6000,106.8305506,26.29238428,1246.146509
11.6050,107.3804421,25.86069099,1245.928415
11.6100,107.9283798,25.42844741,1245.713127
11.6150,108.4737674,24.99569218,1245.500866
11.6200,109.0149877,24.5629482,1245.292272
11.6250,109.5516507,24.12937991,1245.087209
11.6300,110.0845462,23.69595993,1244.885604
11.6350,110.6130181,23.26337906,1244.687749
11.6400,111.1380609,22.83215584,1244.493225
11.6450,111.6592334,22.40278047,1244.302451
11.6500,112.1762051,21.97607734,1244.115644
11.6550,112.6879236,21.55194338,1243.933341
11.6600,113.1937423,21.12926467,1243.755465
11.6650,113.6932137,20.70934711,1243.582605
11.6700,114.185629,20.29199331,1243.414995
11.6750,114.6712387,19.87742917,1243.252664
11.6800,115.1489323,19.4660418,1243.096169
11.6850,115.61972,19.05930412,1242.945393
11.6900,116.0832425,18.65705636,1242.800396
11.6950,116.5411963,18.26197173,1242.66106
11.7000,116.9936511,17.87272085,1242.527032
11.7050,117.4401218,17.49020428,1242.398545
11.7100,117.8809668,17.11586283,1242.275823
11.7150,118.3155609,16.74970623,1242.159094
11.7200,118.7449923,16.39290977,1242.048218
11.7250,119.1680534,16.04445042,1241.943252
11.7300,119.5863864,15.7053023,1241.843692
11.7350,120.0011709,15.37512301,1241.748932
11.7400,120.4111534,15.05362189,1241.659209
11.7450,120.8169241,14.73998177,1241.573908
11.7500,121.2185303,14.43478683,1241.492885
11.7550,121.6171623,14.13639005,1241.415115
11.7600,122.0128304,13.84448623,1241.340316
11.7650,122.4063549,13.55913376,1241.26797
11.7700,122.79723,13.28048794,1241.198108
11.7750,123.1867919,13.00815108,1241.129917
11.7800,123.5752098,12.74155725,1241.063215
11.7850,123.9620946,12.47895119,1240.997602
11.7900,124.3484199,12.22030731,1240.932607
11.7950,124.7345795,11.96596411,1240.868228
11.8000,125.1196718,11.71598517,1240.804888
11.8050,125.5037732,11.46965609,1240.742254
11.8100,125.8880403,11.22793604,1240.680311
11.8150,126.274451,10.99092539,1240.618293
11.8200,126.6628243,10.75810383,1240.556204
11.8250,127.0545356,10.53001398,1240.493739
11.8300,127.4501684,10.30841494,1240.430985
11.8350,127.8502987,10.0934188,1240.367819
11.8400,128.2544225,9.885708922,1240.304631
11.8450,128.6630159,9.685097685,1240.241181
11.8500,129.0751065,9.49106258,1240.177727
11.8550,129.4912966,9.302819551,1240.114029
11.8600,129.9089471,9.11998987,1240.050983
11.8650,130.327827,8.942066336,1239.988521
11.8700,130.7465156,8.767589514,1239.926962
11.8750,131.1650732,8.596110463,1239.866239
11.8800,131.5819723,8.42602877,1239.806518
11.8850,131.9964065,8.257169267,1239.747996
11.8900,132.4087089,8.088523103,1239.690421
11.8950,132.8175623,7.920509815,1239.634225
11.9000,133.2225224,7.752087646,1239.57922
11.9050,133.62157,7.582043834,1239.5259
11.9100,134.0133593,7.412653722,1239.475069
11.9150,134.3981381,7.243464231,1239.426374
11.9200,134.7755371,7.073941556,1239.379953
11.9250,135.1453601,6.904191796,1239.335855
11.9300,135.5057377,6.733658875,1239.294672
11.9350,135.8560698,6.56145414,1239.25667
11.9400,136.1931366,6.387883443,1239.223122
11.9450,136.5178338,6.21252971,1239.19362
11.9500,136.8288816,6.035447843,1239.168709
11.9550,137.1273202,5.856273846,1239.147935
11.9600,137.4132895,5.675347791,1239.131227
11.9650,137.6869803,5.493559444,1239.118576
11.9700,137.9485526,5.310863438,1239.109751
11.9750,138.1990824,5.129095395,1239.104626
11.9800,138.4400436,4.947725723,1239.102448
11.9850,138.6721611,4.768452465,1239.103311
11.9900,138.8959804,4.591828196,1239.10718
11.9950,139.1126492,4.417918936,1239.113761
12.0000,139.3229885,4.248747175,1239.123057
12.0050,139.5265467,4.083095725,1239.135154
12.0100,139.7232485,3.920701093,1239.150213
12.0150,139.9141454,3.761030319,1239.167778
12.0200,140.0989991,3.602802096,1239.18773
12.0250,140.2773131,3.445115861,1239.210239
12.0300,140.4474487,3.286385199,1239.235583
12.0350,140.6094153,3.126442635,1239.263651
12.0400,140.7634761,2.965420022,1239.294388
12.0450,140.9093528,2.802422032,1239.327665
12.0500,141.0469143,2.636573639,1239.363303
12.0550,141.1756662,2.469416459,1239.401879
12.0600,141.2970771,2.301230958,1239.442987
12.0650,141.410918,2.130671274,1239.486509
12.0700,141.5178173,1.959149968,1239.532507
12.0750,141.6180641,1.786128673,1239.580904
12.0800,141.712229,1.611268889,1239.631392
12.0850,141.8019393,1.435955584,1239.683812
12.0900,141.8855612,1.259939135,1239.738578
12.0950,141.964195,1.08384787,1239.795491
12.1000,142.0388714,0.908571065,1239.854304
12.1050,142.1108777,0.7338894575,1239.914737
12.1100,142.1817709,0.5608059944,1239.976436
12.1150,142.2502315,0.3910459628,1240.040086
12.1200,142.3181146,0.2260592557,1240.105196
12.1250,142.3846426,0.0660149274,1240.172131
12.1300,142.4512499,-0.0894033397,1240.240425
12.1350,142.5169313,-0.2392673344,1240.310498
12.1400,142.581743,-0.3838762499,1240.382371
12.1450,142.6453583,-0.5231251353,1240.456215
12.1500,142.7080039,-0.656455126,1240.532127
12.1550,142.7689308,-0.7844088375,1240.610181
12.1600,142.8290718,-0.9080468312,1240.689961
12.1650,142.8879536,-1.026691844,1240.771788
12.1700,142.9452862,-1.14095786,1240.855485
12.1750,143.000071,-1.251581983,1240.941205
12.1800,143.0534171,-1.358174965,1241.028555
12.1850,143.1047346,-1.462020925,1241.11764
12.1900,143.1547973,-1.562267277,1241.208194
12.1950,143.2031075,-1.660787136,1241.300129
12.2000,143.2491384,-1.75700154,1241.393902
12.2050,143.2931536,-1.851615412,1241.489239
12.2100,143.3354676,-1.94537521,1241.58602
12.2150,143.3753838,-2.038109725,1241.684559
12.2200,143.4123844,-2.130462919,1241.78485
12.2250,143.447359,-2.221979382,1241.886784
12.2300,143.4798178,-2.312233863,1241.99057
12.2350,143.5102612,-2.401585644,1242.095858
12.2400,143.540927,-2.48968199,1242.201923
12.2450,143.5710139,-2.576055958,1242.309037
12.2500,143.6012894,-2.661421304,1242.416744
12.2550,143.6312225,-2.744298112,1242.52547
12.2600,143.6623207,-2.825478467,1242.634677
12.2650,143.6940048,-2.905034002,1242.744509
12.2700,143.7259725,-2.983517797,1242.854961
12.2750,143.7596081,-3.062331779,1242.965406
12.2800,143.795809,-3.141412105,1243.075366
12.2850,143.8349544,-3.221694561,1243.184515
12.2900,143.8784564,-3.303124401,1243.292261
12.2950,143.9287023,-3.385923981,1243.397624
12.3000,143.9860951,-3.471543152,1243.500188
12.3050,144.0536601,-3.559121531,1243.598863
12.3100,144.1339794,-3.649365767,1243.692384
12.3150,144.2292274,-3.742216819,1243.780134
12.3200,144.3397341,-3.836631936,1243.861888
12.3250,144.4680406,-3.933997004,1243.936584
12.3300,144.6162203,-4.033813943,1244.003626
12.3350,144.7849525,-4.136860543,1244.062603
12.3400,144.9742325,-4.244010237,1244.11341
12.3450,145.1842446,-4.35534685,1244.156116
12.3500,145.4146242,-4.471370696,1244.190689
12.3550,145.6657684,-4.593613762,1244.216789
12.3600,145.9358372,-4.722902566,1244.234997
12.3650,146.2236673,-4.858471088,1244.245749
12.3700,146.52968,-5.002477927,1244.248709
12.3750,146.852198,-5.154700623,1244.244331
12.3800,147.1912328,-5.315251188,1244.232693
12.3850,147.5454237,-5.485337108,1244.213949
12.3900,147.9159769,-5.664931354,1244.187707
12.3950,148.3021598,-5.855590908,1244.15392
12.4000,148.7039299,-6.057302739,1244.112668
12.4050,149.1203957,-6.269471416,1244.064131
12.4100,149.551854,-6.492868061,1244.008053
12.4150,149.9991196,-6.728716197,1243.944025
12.4200,150.4613684,-6.977723885,1243.872226
12.4250,150.9400735,-7.239919185,1243.792226
12.4300,151.4350992,-7.5142977,1243.704275
12.4350,151.9466073,-7.801300651,1243.608285
12.4400,152.4752838,-8.100304269,1243.504264
12.4450,153.0201192,-8.411622559,1243.392547
12.4500,153.5823636,-8.735908009,1243.272704
12.4550,154.1601942,-9.070584081,1243.145922
12.4600,154.7518128,-9.415440533,1243.012952
12.4650,155.3553677,-9.770673185,1242.874572
12.4700,155.9679865,-10.13456284,1242.73206
12.4750,156.5886245,-10.50566907,1242.586097
12.4800,157.2142858,-10.88510912,1242.437721
12.4850,157.8446874,-11.27182658,1242.287272
12.4900,158.4775664,-11.66584362,1242.135581
12.4950,159.1116502,-12.06515148,1241.983397
12.5000,159.7451518,-12.47016044,1241.831205
12.5050,160.3774725,-12.87984596,1241.679431
12.5100,161.0068582,-13.29322838,1241.528683
12.5150,161.6304049,-13.70948136,1241.379946
12.5200,162.24812,-14.12815704,1241.23332
12.5250,162.8582409,-14.54835037,1241.089331
12.5300,163.459938,-14.97021565,1240.948148
12.5350,164.0517894,-15.39249695,1240.810385
12.5400,164.6320097,-15.81539981,1240.67644
12.5450,165.2011472,-16.23802501,1240.546343
12.5500,165.7571954,-16.66015857,1240.42068
12.5550,166.3004953,-17.0819055,1240.299342
12.5600,166.8290998,-17.50197581,1240.182911
12.5650,167.344048,-17.92040218,1240.071159
12.5700,167.8457626,-18.33581434,1239.964053
12.5750,168.3337923,-18.74878861,1239.861567
12.5800,168.8069052,-19.15745177,1239.764381
12.5850,169.2664856,-19.56132973,1239.672078
12.5900,169.7114806,-19.96005789,1239.584961
12.5950,170.1400888,-20.35331414,1239.503527
12.6000,170.5550004,-20.74018116,1239.427205
12.6050,170.9559428,-21.12091444,1239.355964
12.6100,171.3440462,-21.49531674,1239.289614
12.6150,171.7196098,-21.86228618,1239.228014
12.6200,172.0836873,-22.22290958,1239.170912
12.6250,172.437314,-22.57683877,1239.117913
12.6300,172.7816074,-22.92389325,1239.068742
12.6350,173.1172289,-23.26396398,1239.02327
12.6400,173.4459261,-23.59805151,1238.980877
12.6450,173.7680036,-23.92628874,1238.9414
12.6500,174.0849468,-24.24895042,1238.904355
12.6550,174.3982061,-24.56587662,1238.869376
12.6600,174.7072115,-24.87902969,1238.836204
12.6650,175.0139957,-25.1884143,1238.80439
12.6700,175.3186859,-25.49611742,1238.773483
12.6750,175.6236205,-25.80171391,1238.743009
12.6800,175.9281866,-26.10635412,1238.712857
12.6850,176.2325186,-26.41160979,1238.682835
12.6900,176.5347456,-26.71703813,1238.653321
12.6950,176.8356832,-27.0231134,1238.62415
12.7000,177.135852,-27.33209497,1238.594903
12.7050,177.4362135,-27.64364832,1238.565413
12.7100,177.7369043,-27.95781949,1238.535628
12.7150,178.0390784,-28.27349967,1238.505325
12.7200,178.3437821,-28.59099583,1238.474193
12.7250,178.6500257,-28.9095003,1238.442481
12.7300,178.958257,-29.22943934,1238.40995
12.7350,179.2683064,-29.54972518,1238.376812
12.7400,179.5805334,-29.87048127,1238.342808
12.7450,179.8957943,-30.19122514,1238.307803
12.7500,180.2137732,-30.5108448,1238.271985
12.7550,180.5353702,-30.83053541,1238.234931
12.7600,180.8618071,-31.14831982,1238.196459
12.7650,181.193934,-31.4645964,1238.156242
12.7700,181.5343556,-31.77814269,1238.113832
12.7750,181.8845897,-32.08913301,1238.068955
12.7800,182.244586,-32.39484379,1238.021771
12.7850,182.6142278,-32.69402778,1237.972399
12.7900,182.993187,-32.98590953,1237.92101
12.7950,183.3830988,-33.27075955,1237.867312
12.8000,183.7852864,-33.54635291,1237.811184
12.8050,184.2011952,-33.8115216,1237.752503
12.8100,184.6306523,-34.0648102,1237.691566
12.8150,185.0747759,-34.30579434,1237.628231
12.8200,185.5328249,-34.53328067,1237.562846
12.8250,186.0045012,-34.7467215,1237.495585
12.8300,186.4891219,-34.9457939,1237.426763
12.8350,186.9867802,-35.13074241,1237.356441
12.8400,187.4968786,-35.3015863,1237.284881
12.8450,188.0169328,-35.45849012,1237.212594
12.8500,188.5472282,-35.60126756,1237.13966
12.8550,189.0851091,-35.72944354,1237.066663
12.8600,189.6283771,-35.84426015,1236.994089
12.8650,190.1740949,-35.94560029,1236.92254
12.8700,190.7197998,-36.03446407,1236.852541
12.8750,191.2623178,-36.10998252,1236.784797
12.8800,191.8003348,-36.17525161,1236.719417
12.8850,192.3316471,-36.23039354,1236.656767
12.8900,192.8552844,-36.27643983,1236.596963
12.8950,193.3701048,-36.31420627,1236.540072
12.9000,193.8731713,-36.34453514,1236.48644
12.9050,194.3624736,-36.36852763,1236.436477
12.9100,194.8359196,-36.38564816,1236.390395
12.9150,195.292623,-36.39757893,1236.348181
12.9200,195.7329423,-36.40386564,1236.309692
12.9250,196.156432,-36.40385027,1236.274978
12.9300,196.5620336,-36.39833532,1236.244052
12.9350,196.9509768,-36.38760444,1236.216534
12.9400,197.3225772,-36.37082363,1236.192517
12.9450,197.6787819,-36.34800219,1236.171435
12.9500,198.0192073,-36.3193339,1236.153288
12.9550,198.3440611,-36.2860474,1236.137832
12.9600,198.6550272,-36.2458701,1236.124795
12.9650,198.9527069,-36.20027261,1236.113884
12.9700,199.2364739,-36.14715274,1236.105205
12.9750,199.5054542,-36.08895085,1236.098607
12.9800,199.7602279,-36.02464784,1236.093916
12.9850,200.001037,-35.95425166,1236.09093
12.9900,200.2306891,-35.87971179,1236.089125
12.9950,200.4499229,-35.80004055,1236.088176
13.0000,200.6571316,-35.71539592,1236.088418
13.0050,200.8522218,-35.62599568,1236.089794
13.0100,201.0356313,-35.53407451,1236.092079
13.0150,201.2067386,-35.43944823,1236.09537
13.0200,201.3660968,-35.34230777,1236.099591
13.0250,201.514955,-35.24406339,1236.104517
13.0300,201.6538871,-35.14507393,1236.110055
13.0350,201.7852804,-35.04671395,1236.115661
13.0400,201.9092809,-34.94932013,1236.121312
13.0450,202.027194,-34.85270866,1236.12676
13.0500,202.1394683,-34.75858852,1236.131775
13.0550,202.2472216,-34.66603092,1236.136339
13.0600,202.3501683,-34.57598751,1236.140306
13.0650,202.4494004,-34.487294,1236.143559
13.0700,202.544219,-34.40082803,1236.146222
13.0750,202.6334179,-34.31620108,1236.148346
13.0800,202.7189041,-34.2343639,1236.149562
13.0850,202.7986149,-34.15486969,1236.150168
13.0900,202.8722807,-34.07865682,1236.150105
13.0950,202.9380748,-34.00518353,1236.149725
13.1000,202.9935708,-33.93456021,1236.149294
13.1050,203.0363684,-33.86700531,1236.149073
13.1100,203.0649927,-33.80327897,1236.149198
13.1150,203.0783753,-33.74375782,1236.149845
13.1200,203.0751062,-33.68783369,1236.151286
13.1250,203.0539984,-33.636586,1236.153624
13.1300,203.0132933,-33.59024383,1236.15725
13.1350,202.9522851,-33.54669903,1236.162394
13.1400,202.8708738,-33.50632744,1236.169202
13.1450,202.7690903,-33.4692528,1236.177718
13.1500,202.645331,-33.43628276,1236.188259
13.1550,202.5006162,-33.40977726,1236.200604
13.1600,202.3357811,-33.38934439,1236.214565
13.1650,202.1507936,-33.37721918,1236.230044
13.1700,201.9459927,-33.37473679,1236.246938
13.1750,201.722153,-33.38480995,1236.264815
13.1800,201.4783161,-33.40749606,1236.283758
13.1850,201.2151027,-33.44371951,1236.303662
13.1900,200.9323854,-33.49626533,1236.324338
13.1950,200.6301904,-33.56595352,1236.345756
13.2000,200.309442,-33.6538506,1236.367676
13.2050,199.97099,-33.7598045,1236.389829
13.2100,199.6167819,-33.88439888,1236.411896
13.2150,199.2481649,-34.0271325,1236.433653
13.2200,198.8650632,-34.18864808,1236.455094
13.2250,198.4700165,-34.36670705,1236.475945
13.2300,198.0656955,-34.56121457,1236.495708
13.2350,197.6530022,-34.77022807,1236.514412
13.2400,197.2352756,-34.99304506,1236.531473
13.2450,196.8137689,-35.22768958,1236.546906
13.2500,196.3909105,-35.47240732,1236.560497
13.2550,195.9678932,-35.72525021,1236.57214
13.2600,195.5467447,-35.98520289,1236.581731
13.2650,195.1285924,-36.24919339,1236.589294
13.2700,194.7161139,-36.51616435,1236.594516
13.2750,194.3107775,-36.78373003,1236.597403
13.2800,193.9149351,-37.05009711,1236.597801
13.2850,193.5321196,-37.31360683,1236.595232
13.2900,193.1630545,-37.57291697,1236.589656
13.2950,192.8083163,-37.82641265,1236.5811
13.3000,192.4700335,-38.07311902,1236.569196
13.3050,192.1500981,-38.31273137,1236.553648
13.3100,191.848316,-38.54379693,1236.534549
13.3150,191.5654916,-38.76731116,1236.511633
13.3200,191.3018265,-38.98308744,1236.48494
13.3250,191.0582674,-39.19038195,1236.45419
13.3300,190.8336952,-39.38973172,1236.419551
13.3350,190.627422,-39.5797196,1236.381199
13.3400,190.4395993,-39.76047671,1236.339078
13.3450,190.2691447,-39.93273527,1236.293347
13.3500,190.1141179,-40.09440597,1236.244513
13.3550,189.9749416,-40.24631795,1236.192194
13.3600,189.8513942,-40.38893339,1236.136526
13.3650,189.7421501,-40.52181259,1236.077701
13.3700,189.6453515,-40.64509197,1236.015966
13.3750,189.5609604,-40.75949113,1235.951409
13.3800,189.4878801,-40.86470031,1235.884114
13.3850,189.4248982,-40.96146239,1235.814288
13.3900,189.3708078,-41.04848574,1235.742147
13.3950,189.3240202,-41.12647714,1235.667872
13.4000,189.283926,-41.19556565,1235.591627
13.4050,189.2485821,-41.25636353,1235.51379
13.4100,189.2177974,-41.30879778,1235.434362
13.4150,189.1904044,-41.35326753,1235.353584
13.4200,189.1652429,-41.3901909,1235.271594
13.4250,189.1418119,-41.41988241,1235.188492
13.4300,189.1207487,-41.44203596,1235.104093
13.4350,189.1001444,-41.45848831,1235.018764
13.4400,189.0799911,-41.46941525,1234.932464
13.4450,189.060348,-41.47446768,1234.845183
13.4500,189.0406119,-41.47476281,1234.756983
13.4550,189.021011,-41.46939509,1234.667736
13.4600,189.0016062,-41.45983377,1234.577615
13.4650,188.9821601,-41.44510028,1234.486543
13.4700,188.9639085,-41.42567658,1234.394357
13.4750,188.9465424,-41.40099491,1234.301141
13.4800,188.9317859,-41.37100369,1234.206548
13.4850,188.9184904,-41.33728708,1234.110782
13.4900,188.9074217,-41.29783403,1234.013644
13.4950,188.8996756,-41.25366766,1233.914967
13.5000,188.8946164,-41.20382348,1233.814937
13.5050,188.8942854,-41.14977533,1233.713115
13.5100,188.8971118,-41.09114214,1233.609824
13.5150,188.902444,-41.0275002,1233.505189
13.5200,188.9114636,-40.95929354,1233.399013
13.5250,188.9228947,-40.88758965,1233.291466
13.5300,188.9354748,-40.81239702,1233.182817
13.5350,188.9496617,-40.73307912,1233.072969
13.5400,188.964908,-40.64951848,1232.962173
13.5450,188.9807967,-40.562502,1232.850462
13.5500,188.9967665,-40.47183157,1232.737927
13.5550,189.0142844,-40.37622255,1232.624436
13.5600,189.0328907,-40.27543878,1232.510048
13.5650,189.052409,-40.16975191,1232.394803
13.5700,189.0723773,-40.05949372,1232.278826
13.5750,189.0936114,-39.94343491,1232.162044
13.5800,189.1154206,-39.82293591,1232.044492
13.5850,189.13715,-39.69743883,1231.926399
13.5900,189.1584438,-39.56588281,1231.807958
13.5950,189.1794292,-39.42974281,1231.689194
13.6000,189.1998262,-39.28854647,1231.570124
13.6050,189.2186651,-39.14238756,1231.451069
13.6100,189.2358451,-38.99079421,1231.332061
13.6150,189.2509635,-38.833425,1231.213382
13.6200,189.263173,-38.67091598,1231.09513
13.6250,189.2715399,-38.50297384,1230.977547
13.6300,189.2758773,-38.32929523,1230.860754
13.6350,189.275242,-38.15158857,1230.74492
13.6400,189.269045,-37.97013717,1230.630182
13.6450,189.2576482,-37.78463123,1230.516524
13.6500,189.2412641,-37.59523782,1230.403766
13.6550,189.2184839,-37.40284858,1230.292369
13.6600,189.1886945,-37.20677047,1230.182325
13.6650,189.1519246,-37.00877672,1230.073618
13.6700,189.1091548,-36.80858219,1229.966026
13.6750,189.0588062,-36.60599931,1229.859808
13.6800,189.0010886,-36.40129923,1229.754943
13.6850,188.9362911,-36.1936045,1229.651474
13.6900,188.8644546,-35.98360473,1229.549446
13.6950,188.7854242,-35.77037323,1229.448973
13.7000,188.6991845,-35.55396804,1229.350067
13.7050,188.6060775,-35.33328107,1229.25282
13.7100,188.5060646,-35.10976497,1229.15716
13.7150,188.3986812,-34.88232051,1229.063267
13.7200,188.283986,-34.65124214,1228.971233
13.7250,188.1624102,-34.41572832,1228.881082
13.7300,188.0336596,-34.17600969,1228.792902
13.7350,187.8982743,-33.93218803,1228.70665
13.7400,187.7559847,-33.68392202,1228.622402
13.7450,187.6055246,-33.43149498,1228.540461
13.7500,187.4480172,-33.17393676,1228.460576
13.7550,187.2826574,-32.91096729,1228.383097
13.7600,187.1102015,-32.6422025,1228.307789
13.7650,186.9318413,-32.36873474,1228.234494
13.7700,186.7470703,-32.08972739,1228.163207
13.7750,186.5562119,-31.80394046,1228.094096
13.7800,186.3598214,-31.51199201,1228.026959
13.7850,186.1579618,-31.21307521,1227.961828
13.7900,185.9513022,-30.90738311,1227.898618
13.7950,185.7394351,-30.59364804,1227.837501
13.8000,185.5235546,-30.27251921,1227.778214
13.8050,185.3023528,-29.94290127,1227.72109
13.8100,185.0775045,-29.60599014,1227.665786
13.8150,184.8486813,-29.26168655,1227.612475
13.8200,184.6163955,-28.90933765,1227.561084
13.8250,184.3802905,-28.54898501,1227.511817
13.8300,184.1408518,-28.18066958,1227.464717
13.8350,183.8987636,-27.8060397,1227.419617
13.8400,183.6534526,-27.42492912,1227.376729
13.8450,183.4059775,-27.03667611,1227.335966
