type,name,time_units,begin_time,frequency,count,units
signal_3d,"Noraxon MyoMotion-Trajectories-Medial humeral epicondyle RT","s",0.0000,200,5172,"mm"

time,x,y,z
0.0000,157.1529357,-34.16101601,1236.64533
0.0050,157.0757736,-34.15517046,1236.655421
0.0100,156.99861,-34.14937685,1236.665529
0.0150,156.9214451,-34.14363519,1236.675654
0.0200,156.8389588,-34.1379893,1236.686691
0.0250,156.7517922,-34.13263589,1236.698596
0.0300,156.6606691,-34.12781382,1236.711308
0.0350,156.5663693,-34.12380127,1236.724757
0.0400,156.4697004,-34.12090631,1236.73886
0.0450,156.3714674,-34.11945222,1236.75353
0.0500,156.2724465,-34.1197606,1236.768674
0.0550,156.1733689,-34.12213222,1236.784199
0.0600,156.0749124,-34.12682886,1236.800009
0.0650,155.9776943,-34.13405901,1236.816012
0.0700,155.8822645,-34.14396873,1236.832116
0.0750,155.7891035,-34.15663934,1236.848235
0.0800,155.698627,-34.17208511,1236.864289
0.0850,155.6111928,-34.19024337,1236.880202
0.0900,155.5271082,-34.21096391,1236.895902
0.0950,155.4466349,-34.23400812,1236.911326
0.1000,155.3699872,-34.25905839,1236.926413
0.1050,155.2973287,-34.28573688,1236.941114
0.1100,155.2287771,-34.31363219,1236.955384
0.1150,155.1644135,-34.3423257,1236.969182
0.1200,155.1042924,-34.37141134,1236.982473
0.1250,155.0484484,-34.40051033,1236.995219
0.1300,154.9969002,-34.42928459,1237.007385
0.1350,154.9496515,-34.45744895,1237.018933
0.1400,154.9066865,-34.48477862,1237.029823
0.1450,154.8679646,-34.51111019,1237.040017
0.1500,154.8334138,-34.53633934,1237.049478
0.1550,154.7387504,-34.5789324,1237.070248
0.1600,154.649404,-34.62097768,1237.090132
0.1650,154.565638,-34.66137059,1237.109111
0.1700,154.4866542,-34.70076519,1237.127212
0.1750,154.4128215,-34.73865325,1237.144426
0.1800,154.3434261,-34.77551332,1237.160796
0.1850,154.2787611,-34.81091347,1237.176195
0.1900,154.2190273,-34.84647429,1237.190461
0.1950,154.1639651,-34.88081546,1237.203816
0.2000,154.112973,-34.91494078,1237.216183
0.2050,154.0658668,-34.94832496,1237.227647
0.2100,154.0223523,-34.98114312,1237.238188
0.2150,153.9826467,-35.0133457,1237.247755
0.2200,153.9461301,-35.04385438,1237.256554
0.2250,153.9120051,-35.07273916,1237.264763
0.2300,153.8806712,-35.10082695,1237.272243
0.2350,153.8513522,-35.12859763,1237.279032
0.2400,153.8232418,-35.15407203,1237.285548
0.2450,153.7977752,-35.17810267,1237.291342
0.2500,153.7736666,-35.20011714,1237.296758
0.2550,153.7507185,-35.21952288,1237.301898
0.2600,153.7291835,-35.23589795,1237.306707
0.2650,153.7084187,-35.25013532,1237.31136
0.2700,153.6887496,-35.26177766,1237.315859
0.2750,153.6695061,-35.27129889,1237.320304
0.2800,153.6495478,-35.27835087,1237.324976
0.2850,153.6297761,-35.28340415,1237.329721
0.2900,153.61011,-35.28707162,1237.334486
0.2950,153.5900024,-35.28910852,1237.339309
0.3000,153.5699505,-35.28896882,1237.34425
0.3050,153.5494374,-35.28835146,1237.34918
0.3100,153.5282704,-35.28687304,1237.354225
0.3150,153.5073913,-35.28469083,1237.359265
0.3200,153.4874692,-35.28093336,1237.36423
0.3250,153.4675844,-35.276297,1237.369219
0.3300,153.4490103,-35.27037379,1237.374079
0.3350,153.4313913,-35.26428534,1237.378726
0.3400,153.4148821,-35.25710569,1237.383223
0.3450,153.3996018,-35.25005783,1237.38753
0.3500,153.385655,-35.24165916,1237.391749
0.3550,153.3742737,-35.23343153,1237.395575
0.3600,153.3629257,-35.22544434,1237.39936
0.3650,153.3536402,-35.21781312,1237.402738
0.3700,153.345502,-35.21058171,1237.405935
0.3750,153.3383292,-35.20280599,1237.409011
0.3800,153.3326846,-35.19496688,1237.411882
0.3850,153.327114,-35.18820643,1237.414587
0.3900,153.323014,-35.1818445,1237.417056
0.3950,153.3192588,-35.17501943,1237.419507
0.4000,153.3163504,-35.16760519,1237.4219
0.4050,153.3136237,-35.16065874,1237.42423
0.4100,153.3110039,-35.15352261,1237.426575
0.4150,153.3088675,-35.14624431,1237.428871
0.4200,153.3065925,-35.13977394,1237.431091
0.4250,153.3036562,-35.13260434,1237.433532
0.4300,153.30047,-35.12617631,1237.435996
0.4350,153.2965895,-35.11992742,1237.438526
0.4400,153.2918474,-35.11441217,1237.441096
0.4450,153.2864388,-35.1095101,1237.443664
0.4500,153.2808392,-35.10460052,1237.446214
0.4550,153.2756715,-35.10016765,1237.448699
0.4600,153.2704107,-35.09515446,1237.451178
0.4650,153.2655518,-35.09054292,1237.453544
0.4700,153.2618816,-35.08510931,1237.45579
0.4750,153.2587658,-35.08038187,1237.457834
0.4800,153.2563347,-35.07536208,1237.459819
0.4850,153.2551797,-35.07041998,1237.461598
0.4900,153.2536038,-35.06510185,1237.463497
0.4950,153.2527003,-35.05977632,1237.465335
0.5000,153.2523966,-35.05490813,1237.467028
0.5050,153.2519916,-35.04955431,1237.468794
0.5100,153.251439,-35.0435346,1237.470602
0.5150,153.2506524,-35.03731481,1237.472479
0.5200,153.2495307,-35.03135048,1237.474362
0.5250,153.2489459,-35.02498346,1237.476097
0.5300,153.248411,-35.01768077,1237.477864
0.5350,153.2472858,-35.00954071,1237.479837
0.5400,153.246142,-35.00086968,1237.481779
0.5450,153.2444224,-34.99171875,1237.483882
0.5500,153.2426111,-34.9821843,1237.485983
0.5550,153.2401802,-34.97178801,1237.488243
0.5600,153.2362672,-34.96148808,1237.490667
0.5650,153.2323169,-34.94940308,1237.493173
0.5700,153.2269954,-34.93855118,1237.495641
0.5750,153.2213565,-34.92743858,1237.498165
0.5800,153.2160553,-34.91659586,1237.500469
0.5850,153.2112409,-34.90550628,1237.502536
0.5900,153.2064865,-34.89375976,1237.504472
0.5950,153.2025881,-34.88280747,1237.506124
0.6000,153.1994655,-34.87174502,1237.507486
0.6050,153.197959,-34.86106286,1237.508463
0.6100,153.197486,-34.85077813,1237.509057
0.6150,153.1982181,-34.83998323,1237.509362
0.6200,153.2001369,-34.82970224,1237.509288
0.6250,153.2039975,-34.81988969,1237.508665
0.6300,153.2087591,-34.81119828,1237.50771
0.6350,153.2144029,-34.80323842,1237.506418
0.6400,153.2214951,-34.7960522,1237.504705
0.6450,153.2290661,-34.78971573,1237.502664
0.6500,153.2375368,-34.78425295,1237.50027
0.6550,153.2468475,-34.77926466,1237.497588
0.6600,153.2574732,-34.77488439,1237.494564
0.6650,153.2683172,-34.77162385,1237.491353
0.6700,153.2798566,-34.76951294,1237.487852
0.6750,153.2925189,-34.7681521,1237.484058
0.6800,153.3062483,-34.76856549,1237.479814
0.6850,153.3203971,-34.77040559,1237.475333
0.6900,153.3358725,-34.77315009,1237.470476
0.6950,153.3517066,-34.77789849,1237.465384
0.7000,153.3683581,-34.7842384,1237.459905
0.7050,153.3858143,-34.7916999,1237.454095
0.7100,153.4044853,-34.80139739,1237.447823
0.7150,153.4234419,-34.81278552,1237.441222
0.7200,153.4426621,-34.82547583,1237.434435
0.7250,153.4631908,-34.840858,1237.4271
0.7300,153.483939,-34.85765088,1237.419457
0.7350,153.5064877,-34.87575025,1237.411418
0.7400,153.5293465,-34.89564101,1237.403075
0.7450,153.5539412,-34.91692158,1237.394283
0.7500,153.5787375,-34.9396123,1237.385199
0.7550,153.6037324,-34.96368389,1237.375845
0.7600,153.6289376,-34.98910978,1237.366301
0.7650,153.654351,-35.01582094,1237.356505
0.7700,153.6790618,-35.04532896,1237.346537
0.7750,153.7040421,-35.07546335,1237.336408
0.7800,153.7293288,-35.10666582,1237.326035
0.7850,153.7540582,-35.13988855,1237.315557
0.7900,153.7792775,-35.17394042,1237.304923
0.7950,153.8050459,-35.20873123,1237.294063
0.8000,153.8304736,-35.24369957,1237.283236
0.8050,153.856631,-35.2791762,1237.272279
0.8100,153.8825948,-35.31510709,1237.261384
0.8150,153.9093025,-35.35142045,1237.250374
0.8200,153.9358168,-35.38793971,1237.239429
0.8250,153.9616303,-35.42412766,1237.228705
0.8300,153.9865309,-35.46036688,1237.218179
0.8350,154.011423,-35.49640055,1237.207696
0.8400,154.0363057,-35.53322918,1237.197273
0.8450,154.0608271,-35.56929817,1237.186987
0.8500,154.0844153,-35.60402826,1237.176997
0.8550,154.1069292,-35.63886182,1237.16721
0.8600,154.1291049,-35.6722908,1237.157667
0.8650,154.1498704,-35.70679077,1237.148313
0.8700,154.1699522,-35.73935586,1237.139303
0.8750,154.188274,-35.7715228,1237.130676
0.8800,154.2057328,-35.80316272,1237.122316
0.8850,154.2216204,-35.83396841,1237.114447
0.8900,154.2354901,-35.86445396,1237.107097
0.8950,154.2467739,-35.89359802,1237.100432
0.9000,154.2566071,-35.92297634,1237.094234
0.9050,154.2644488,-35.95112679,1237.088626
0.9100,154.2697655,-35.97779212,1237.083849
0.9150,154.2717994,-36.0043867,1237.079847
0.9200,154.2717407,-36.03051757,1237.076523
0.9250,154.2690244,-36.05634944,1237.074008
0.9300,154.2649818,-36.0817724,1237.072174
0.9350,154.2592988,-36.1059061,1237.071094
0.9400,154.2514927,-36.1298382,1237.070871
0.9450,154.2427544,-36.15267301,1237.071337
0.9500,154.2322725,-36.1755399,1237.072562
0.9550,154.2200389,-36.19798843,1237.074526
0.9600,154.2062843,-36.22014258,1237.077183
0.9650,154.1910586,-36.24163249,1237.080512
0.9700,154.175367,-36.26149422,1237.084394
0.9750,154.1574054,-36.28223792,1237.088848
0.9800,154.1379638,-36.30240374,1237.093879
0.9850,154.1171571,-36.32242128,1237.099359
0.9900,154.0939254,-36.34226564,1237.105396
0.9950,154.068558,-36.36183068,1237.111894
1.0000,154.0414899,-36.38148685,1237.118873
1.0050,154.0123852,-36.40109219,1237.126355
1.0100,153.9811307,-36.41998562,1237.134429
1.0150,153.9484508,-36.43895014,1237.142979
1.0200,153.9140616,-36.45726317,1237.152175
1.0250,153.8766803,-36.47528113,1237.162215
1.0300,153.8375581,-36.49320067,1237.172938
1.0350,153.7952547,-36.51144504,1237.184482
1.0400,153.7500724,-36.52929458,1237.196882
1.0450,153.7012026,-36.54722936,1237.210248
1.0500,153.6490234,-36.5651099,1237.224513
1.0550,153.5934014,-36.58295349,1237.239765
1.0600,153.5337049,-36.60077994,1237.25598
1.0650,153.4715561,-36.61848255,1237.273042
1.0700,153.4075335,-36.63519294,1237.29094
1.0750,153.3412567,-36.652528,1237.309642
1.0800,153.2724053,-36.66904604,1237.329397
1.0850,153.2021937,-36.68494887,1237.350069
1.0900,153.1300495,-36.70056646,1237.3717
1.0950,153.0567864,-36.71617743,1237.394343
1.1000,152.9827653,-36.73217981,1237.417894
1.1050,152.9074019,-36.74958896,1237.442384
1.1100,152.8320776,-36.76790627,1237.467789
1.1150,152.7556894,-36.78764253,1237.494176
1.1200,152.6796459,-36.80848395,1237.521377
1.1250,152.6036757,-36.831421,1237.549344
1.1300,152.5292709,-36.8574272,1237.577865
1.1350,152.4563781,-36.88691636,1237.606913
1.1400,152.3851411,-36.91933199,1237.63655
1.1450,152.3149208,-36.95587907,1237.666811
1.1500,152.2474049,-36.99728279,1237.697442
1.1550,152.1826308,-37.04322857,1237.728435
1.1600,152.1200228,-37.09375006,1237.759896
1.1650,152.0595111,-37.14813199,1237.791864
1.1700,152.0014627,-37.20660904,1237.824244
1.1750,151.9465408,-37.26934893,1237.856801
1.1800,151.8934235,-37.33495804,1237.889859
1.1850,151.8416747,-37.40390347,1237.923161
1.1900,151.7928918,-37.47542287,1237.956631
1.1950,151.745608,-37.5488663,1237.990326
1.2000,151.6993118,-37.62256602,1238.024397
1.2050,151.6535987,-37.69714087,1238.058862
1.2100,151.6089661,-37.77164341,1238.093537
1.2150,151.5663233,-37.844486,1238.128409
1.2200,151.5236967,-37.91586678,1238.163763
1.2250,151.4811184,-37.98459691,1238.19958
1.2300,151.4380416,-38.04980981,1238.236016
1.2350,151.3943981,-38.11195359,1238.27303
1.2400,151.350033,-38.17086796,1238.31059
1.2450,151.3051137,-38.22694364,1238.348765
1.2500,151.2599357,-38.28057468,1238.387463
1.2550,151.2149483,-38.33095581,1238.426637
1.2600,151.1702824,-38.37927141,1238.466224
1.2650,151.1271487,-38.42526302,1238.506065
1.2700,151.0843545,-38.47095773,1238.546281
1.2750,151.0438834,-38.51569289,1238.58668
1.2800,151.0052429,-38.56004704,1238.62734
1.2850,150.969069,-38.60440639,1238.66825
1.2900,150.9369191,-38.6498607,1238.709151
1.2950,150.9094913,-38.6958066,1238.750031
1.3000,150.886925,-38.7432464,1238.790844
1.3050,150.8704533,-38.79317435,1238.831363
1.3100,150.8593709,-38.84607673,1238.871733
1.3150,150.8551,-38.90049623,1238.911889
1.3200,150.857313,-38.95880599,1238.951672
1.3250,150.8671264,-39.02042416,1238.991075
1.3300,150.8845308,-39.08517162,1239.030112
1.3350,150.9100656,-39.15385656,1239.068742
1.3400,150.9446658,-39.22646766,1239.106869
1.3450,150.9883306,-39.30263014,1239.144702
1.3500,151.0409881,-39.38276339,1239.182254
1.3550,151.1040071,-39.46759027,1239.219325
1.3600,151.1777571,-39.55688999,1239.256064
1.3650,151.2609404,-39.65006337,1239.292733
1.3700,151.3542753,-39.74821994,1239.329153
1.3750,151.4571236,-39.85109741,1239.365531
1.3800,151.570018,-39.95997134,1239.401697
1.3850,151.692548,-40.07458775,1239.437707
1.3900,151.8251609,-40.19553662,1239.473519
1.3950,151.9671005,-40.32309307,1239.50909
1.4000,152.1181978,-40.45732928,1239.544517
1.4050,152.2783005,-40.59729962,1239.579913
1.4100,152.4466077,-40.74428317,1239.615198
1.4150,152.6237434,-40.89820598,1239.650397
1.4200,152.8084125,-41.05877332,1239.685824
1.4250,153.0001752,-41.22634522,1239.721509
1.4300,153.1979994,-41.39917764,1239.757674
1.4350,153.4009945,-41.57650047,1239.7945
1.4400,153.6076974,-41.75806405,1239.832215
1.4450,153.8185737,-41.94356235,1239.870782
1.4500,154.0325216,-42.13212618,1239.910331
1.4550,154.2489928,-42.3228771,1239.951
1.4600,154.4666368,-42.51636647,1239.992941
1.4650,154.6856477,-42.71180455,1240.036068
1.4700,154.9035156,-42.909365,1240.080714
1.4750,155.1201852,-43.10709094,1240.126928
1.4800,155.3355206,-43.30507338,1240.17468
1.4850,155.5480862,-43.50274991,1240.224255
1.4900,155.7558315,-43.69989573,1240.27577
1.4950,155.9596465,-43.89557358,1240.329207
1.5000,156.1581242,-44.09079573,1240.38468
1.5050,156.3510053,-44.28288746,1240.44226
1.5100,156.5379889,-44.47250772,1240.502032
1.5150,156.7174426,-44.65888796,1240.564187
1.5200,156.8893592,-44.84094119,1240.628752
1.5250,157.0537437,-45.01947288,1240.695701
1.5300,157.209073,-45.19397523,1240.765082
1.5350,157.3550669,-45.36339672,1240.837035
1.5400,157.4917365,-45.52905249,1240.911444
1.5450,157.6182878,-45.68937821,1240.988374
1.5500,157.7345483,-45.84347354,1241.067857
1.5550,157.8393506,-45.99323029,1241.149865
1.5600,157.9326057,-46.13772846,1241.234473
1.5650,158.0143673,-46.27697673,1241.321654
1.5700,158.0837306,-46.40962492,1241.411584
1.5750,158.1418901,-46.5368,1241.50396
1.5800,158.1892586,-46.6582207,1241.598738
1.5850,158.2274289,-46.77418829,1241.695566
1.5900,158.2554318,-46.88401262,1241.794594
1.5950,158.2743761,-46.98848871,1241.895688
1.6000,158.2841285,-47.0870577,1241.998722
1.6050,158.2848013,-47.17805656,1242.103831
1.6100,158.2783493,-47.26171166,1242.210646
1.6150,158.2650024,-47.33979292,1242.319034
1.6200,158.2462228,-47.41099769,1242.428714
1.6250,158.2229993,-47.47496814,1242.539481
1.6300,158.1954681,-47.53274672,1242.651277
1.6350,158.1649092,-47.58377812,1242.76388
1.6400,158.131815,-47.62744223,1242.877182
1.6450,158.097391,-47.66507863,1242.990854
1.6500,158.0627713,-47.69698355,1243.104813
1.6550,158.0265665,-47.72239511,1243.219186
1.6600,157.9898814,-47.74213023,1243.33372
1.6650,157.9542444,-47.7562842,1243.448124
1.6700,157.919201,-47.76467602,1243.562555
1.6750,157.8855218,-47.76654532,1243.676828
1.6800,157.8537041,-47.76214011,1243.790804
1.6850,157.824003,-47.75107634,1243.904493
1.6900,157.7976485,-47.73297386,1244.017666
1.6950,157.7745825,-47.70658283,1244.13049
1.7000,157.7558941,-47.67246336,1244.242703
1.7050,157.742227,-47.6301295,1244.354242
1.7100,157.733759,-47.57895425,1244.465028
1.7150,157.7307152,-47.51844185,1244.575123
1.7200,157.7340266,-47.44834571,1244.68436
1.7250,157.7434844,-47.36828864,1244.792771
1.7300,157.7589897,-47.27928216,1244.900293
1.7350,157.781123,-47.18175288,1245.006878
1.7400,157.8112108,-47.07567877,1245.112298
1.7450,157.8476507,-46.96161373,1245.216688
1.7500,157.8909293,-46.84090753,1245.319985
1.7550,157.9406541,-46.71364344,1245.422213
1.7600,157.9973846,-46.58018152,1245.523177
1.7650,158.0600064,-46.44178526,1245.623088
1.7700,158.1284625,-46.29826277,1245.721956
1.7750,158.2026378,-46.15108836,1245.819645
1.7800,158.2812439,-46.00152088,1245.916352
1.7850,158.365105,-45.85036093,1246.011879
1.7900,158.453625,-45.69770972,1246.106376
1.7950,158.5459444,-45.54423332,1246.199888
1.8000,158.6426116,-45.38977753,1246.292397
1.8050,158.7437457,-45.23513561,1246.383886
1.8100,158.8490567,-45.08085237,1246.474314
1.8150,158.9579748,-44.92752827,1246.563821
1.8200,159.0697578,-44.77402904,1246.652596
1.8250,159.183953,-44.62068808,1246.740709
1.8300,159.3001203,-44.46872852,1246.828241
1.8350,159.418781,-44.31788762,1246.915117
1.8400,159.5392688,-44.16639853,1247.001528
1.8450,159.6616731,-44.014997,1247.087452
1.8500,159.7860433,-43.86386812,1247.172897
1.8550,159.9119799,-43.71238378,1247.25803
1.8600,160.0408772,-43.55968293,1247.342683
1.8650,160.1713486,-43.40569705,1247.427053
1.8700,160.304502,-43.25047847,1247.510934
1.8750,160.4391968,-43.09297904,1247.594533
1.8800,160.5757084,-42.93332832,1247.677863
1.8850,160.7133308,-42.77126696,1247.761029
1.8900,160.8528481,-42.6078988,1247.843878
1.8950,160.9944232,-42.44290158,1247.926334
1.9000,161.1378497,-42.27652818,1248.008392
1.9050,161.2827507,-42.10902716,1248.090015
1.9100,161.4291163,-41.94074653,1248.171059
1.9150,161.5762867,-41.77095549,1248.251721
1.9200,161.7253846,-41.59946565,1248.331844
1.9250,161.874685,-41.42769652,1248.411606
1.9300,162.0250205,-41.25358641,1248.490987
1.9350,162.1763812,-41.07807386,1248.569863
1.9400,162.3278729,-40.90162995,1248.648446
1.9450,162.4791591,-40.72291497,1248.72682
1.9500,162.6304509,-40.54187967,1248.804983
1.9550,162.7819729,-40.35768194,1248.883019
1.9600,162.9333451,-40.16993092,1248.960962
1.9650,163.0818295,-39.97939976,1249.039236
1.9700,163.229366,-39.78471166,1249.117475
1.9750,163.3765559,-39.58773436,1249.1956
1.9800,163.5225406,-39.38752793,1249.27375
1.9850,163.6675328,-39.18409144,1249.351844
1.9900,163.8105782,-38.97745283,1249.430059
1.9950,163.9509102,-38.76848719,1249.508365
2.0000,164.0885978,-38.55662535,1249.586843
2.0050,164.2227219,-38.3433429,1249.665485
2.0100,164.3532032,-38.12701738,1249.744599
2.0150,164.4800779,-37.90869281,1249.823951
2.0200,164.6023377,-37.68786592,1249.903674
2.0250,164.7205817,-37.464452,1249.9838
2.0300,164.8355553,-37.2383067,1250.064265
2.0350,164.9467694,-37.00893684,1250.14516
2.0400,165.0534035,-36.77629873,1250.226594
2.0450,165.1563232,-36.5401918,1250.308561
2.0500,165.2554259,-36.30049481,1250.39092
2.0550,165.3511535,-36.05763211,1250.473608
2.0600,165.4432067,-35.8120131,1250.556622
2.0650,165.5311717,-35.5631044,1250.640033
2.0700,165.6162955,-35.31120735,1250.72359
2.0750,165.6973532,-35.05626393,1250.807572
2.0800,165.7748124,-34.79820758,1250.891861
2.0850,165.8487374,-34.53694696,1250.976454
2.0900,165.919287,-34.2729758,1251.061265
2.0950,165.9865232,-34.00721305,1251.14625
2.1000,166.0483207,-33.73846848,1251.231882
2.1050,166.1044529,-33.46818366,1251.318143
2.1100,166.1546062,-33.19521907,1251.405186
2.1150,166.1994887,-32.92054104,1251.492775
2.1200,166.2394544,-32.64448091,1251.580783
2.1250,166.274575,-32.3677079,1251.669116
2.1300,166.3037734,-32.0880949,1251.758195
2.1350,166.3272401,-31.80730472,1251.84779
2.1400,166.3437714,-31.52517705,1251.937972
2.1450,166.353319,-31.24332034,1252.028686
2.1500,166.3547241,-30.96093276,1252.120164
2.1550,166.3486444,-30.67804047,1252.212242
2.1600,166.3333114,-30.39578376,1252.305037
2.1650,166.309021,-30.11413777,1252.398566
2.1700,166.275876,-29.83418615,1252.492743
2.1750,166.23271,-29.55517631,1252.587819
2.1800,166.1803241,-29.27814798,1252.683423
2.1850,166.119031,-29.00273862,1252.779491
2.1900,166.047644,-28.72872412,1252.876157
2.1950,165.9662681,-28.45671551,1252.97335
2.2000,165.8755911,-28.18711754,1253.070979
2.2050,165.7759327,-27.92096392,1253.168875
2.2100,165.6675735,-27.65760453,1253.267199
2.2150,165.5516311,-27.39749732,1253.365682
2.2200,165.4273249,-27.13971095,1253.46464
2.2250,165.2958332,-26.88363753,1253.564026
2.2300,165.1563014,-26.63083758,1253.663733
2.2350,165.0086891,-26.3793998,1253.764062
2.2400,164.8533611,-26.13078583,1253.864781
2.2450,164.6899173,-25.88499702,1253.965998
2.2500,164.5188653,-25.6416819,1254.067612
2.2550,164.3414215,-25.40283036,1254.169137
2.2600,164.1578887,-25.16658492,1254.270772
2.2650,163.9699529,-24.93397012,1254.3721
2.2700,163.7757467,-24.70487543,1254.473511
2.2750,163.5745089,-24.47960179,1254.575076
2.2800,163.3672131,-24.25830916,1254.676764
2.2850,163.1529735,-24.04083854,1254.778867
2.2900,162.9321889,-23.82741137,1254.881273
2.2950,162.7056171,-23.61867504,1254.983884
2.3000,162.4725161,-23.41346529,1255.086959
2.3050,162.2337764,-23.21150622,1255.19035
2.3100,161.9898922,-23.01338612,1255.293777
2.3150,161.7404101,-22.81830646,1255.397517
2.3200,161.4875676,-22.6265376,1255.501148
2.3250,161.2309845,-22.43812163,1255.604709
2.3300,160.9701944,-22.25341782,1255.708358
2.3350,160.7058919,-22.071668,1255.812063
2.3400,160.4390536,-21.89298578,1255.915681
2.3450,160.170387,-21.71745843,1256.019037
2.3500,159.8994425,-21.54373574,1256.122576
2.3550,159.6260198,-21.37141175,1256.226352
2.3600,159.3503838,-21.20038324,1256.330387
2.3650,159.0747237,-21.02901704,1256.43443
2.3700,158.7977179,-20.85701012,1256.538839
2.3750,158.5203535,-20.6837847,1256.643429
2.3800,158.2425122,-20.50939543,1256.748256
2.3850,157.9642101,-20.33192745,1256.853601
2.3900,157.6859464,-20.15190093,1256.959228
2.3950,157.4081612,-19.96739826,1257.065294
2.4000,157.1304583,-19.77895729,1257.171856
2.4050,156.8533511,-19.5857202,1257.278806
2.4100,156.5758769,-19.3878846,1257.386358
2.4150,156.2980503,-19.1852313,1257.494568
2.4200,156.0189769,-18.97701401,1257.603756
2.4250,155.7380193,-18.76167145,1257.714391
2.4300,155.4559483,-18.54088092,1257.826
2.4350,155.1716696,-18.3141807,1257.939008
2.4400,154.8856786,-18.08148031,1258.053443
2.4450,154.5974223,-17.84244825,1258.169399
2.4500,154.3061819,-17.59731818,1258.287013
2.4550,154.0118031,-17.34633468,1258.406383
2.4600,153.71486,-17.09019837,1258.527244
2.4650,153.4146652,-16.82891216,1258.649806
2.4700,153.1104719,-16.56193648,1258.774257
2.4750,152.8042789,-16.28982646,1258.900155
2.4800,152.4945279,-16.01209009,1259.027954
2.4850,152.1806915,-15.72896027,1259.157876
2.4900,151.8642062,-15.44140271,1259.289485
2.4950,151.5447671,-15.14866391,1259.422985
2.5000,151.2220876,-14.85043623,1259.558516
2.5050,150.8953493,-14.54678374,1259.696296
2.5100,150.5640274,-14.23799488,1259.836377
2.5150,150.2272409,-13.92418135,1259.97896
2.5200,149.8851077,-13.60686331,1260.123816
2.5250,149.5377086,-13.28555908,1260.270972
2.5300,149.185509,-12.96025316,1260.42037
2.5350,148.8284139,-12.63189194,1260.571876
2.5400,148.4665015,-12.2990739,1260.725697
2.5450,148.1002378,-11.96181456,1260.881733
2.5500,147.7288784,-11.62015718,1261.0403
2.5550,147.3521214,-11.27306064,1261.201654
2.5600,146.9696427,-10.9219884,1261.365779
2.5650,146.5814051,-10.56761482,1261.532539
2.5700,146.1878839,-10.21031628,1261.701935
2.5750,145.78892,-9.84885858,1261.874109
2.5800,145.3842668,-9.484381482,1262.048978
2.5850,144.9749927,-9.11687498,1262.226195
2.5900,144.561119,-8.74699006,1262.405725
2.5950,144.142853,-8.374802609,1262.587448
2.6000,143.7201513,-8.001293261,1262.77127
2.6050,143.2940714,-7.626793609,1262.956904
2.6100,142.8644066,-7.25225211,1263.144411
2.6150,142.4332549,-6.876953533,1263.333268
2.6200,141.9996556,-6.50079121,1263.52373
2.6250,141.5641497,-6.123521856,1263.715598
2.6300,141.1271133,-5.743942517,1263.908874
2.6350,140.6894734,-5.364059297,1264.103025
2.6400,140.2511118,-4.983135991,1264.298248
2.6450,139.8111487,-4.601896787,1264.494663
2.6500,139.3699818,-4.220495541,1264.6921
2.6550,138.9279962,-3.839008344,1264.890449
2.6600,138.4843433,-3.457699019,1265.089924
2.6650,138.0382706,-3.076690967,1265.290776
2.6700,137.5904649,-2.697362314,1265.492511
2.6750,137.140274,-2.318766475,1265.69559
2.6800,136.6892163,-1.940631702,1265.899698
2.6850,136.2358644,-1.563646867,1266.105122
2.6900,135.7815531,-1.187420171,1266.311672
2.6950,135.3253653,-0.8125563765,1266.519588
2.7000,134.8685354,-0.4394488339,1266.728354
2.7050,134.4095819,-0.06729256342,1266.938682
2.7100,133.9492701,0.3044412255,1267.150455
2.7150,133.4870635,0.675805172,1267.363935
2.7200,133.0240674,1.046399336,1267.578695
2.7250,132.5604098,1.415009676,1267.794416
2.7300,132.0972005,1.783352006,1268.011201
2.7350,131.6347141,2.150645192,1268.22877
2.7400,131.1729546,2.516619618,1268.447016
2.7450,130.7117191,2.881807945,1268.666101
2.7500,130.2524432,3.246720076,1268.885652
2.7550,129.7952782,3.611636033,1269.105665
2.7600,129.3393049,3.977618322,1269.326632
2.7650,128.8854364,4.343535389,1269.547926
2.7700,128.4337389,4.709164915,1269.769511
2.7750,127.9829428,5.074352594,1269.991813
2.7800,127.534052,5.439509729,1270.214663
2.7850,127.0862941,5.803549315,1270.438011
2.7900,126.6379537,6.168091747,1270.662799
2.7950,126.1892577,6.532055718,1270.888615
2.8000,125.7403807,6.895545102,1271.1155
2.8050,125.2923383,7.258572722,1271.343072
2.8100,124.8446919,7.620800309,1271.571485
2.8150,124.3982242,7.982691765,1271.800583
2.8200,123.9531679,8.34475601,1272.030313
2.8250,123.5087931,8.706655766,1272.260832
2.8300,123.0660093,9.069276189,1272.492141
2.8350,122.6244805,9.431433286,1272.724024
2.8400,122.1850481,9.792651416,1272.95596
2.8450,121.7473062,10.15251173,1273.188116
2.8500,121.3113836,10.51137541,1273.42045
2.8550,120.8768058,10.86888697,1273.653079
2.8600,120.443319,11.22386693,1273.885739
2.8650,120.0121921,11.57852323,1274.118455
2.8700,119.5835908,11.93164468,1274.35077
2.8750,119.1579702,12.28357425,1274.582634
2.8800,118.7350762,12.63443777,1274.814093
2.8850,118.3146376,12.9830876,1275.045017
2.8900,117.8975084,13.33012782,1275.275187
2.8950,117.4830352,13.67484527,1275.50465
2.9000,117.0714892,14.01787177,1275.733558
2.9050,116.6622044,14.35944135,1275.962195
2.9100,116.2542573,14.70035808,1276.190944
2.9150,115.8464402,15.03908372,1276.419979
2.9200,115.4385715,15.37460956,1276.649258
2.9250,115.0315529,15.70708392,1276.87849
2.9300,114.6250439,16.03553949,1277.107644
2.9350,114.2172406,16.36207566,1277.337924
2.9400,113.8086658,16.68602453,1277.568946
2.9450,113.4004525,17.0084224,1277.800545
2.9500,112.9927363,17.32878358,1278.032387
2.9550,112.5843653,17.64761079,1278.265111
2.9600,112.177259,17.96582291,1278.498225
2.9650,111.7711185,18.28288666,1278.731595
2.9700,111.3668021,18.60044203,1278.965269
2.9750,110.9657839,18.91694049,1279.198268
2.9800,110.5660207,19.23308452,1279.43156
2.9850,110.1693197,19.54838265,1279.664173
2.9900,109.7736556,19.86392491,1279.897261
2.9950,109.3794803,20.17907967,1280.130419
3.0000,108.987726,20.49412554,1280.363327
3.0050,108.5983062,20.80870638,1280.595961
3.0100,108.2121842,21.12213997,1280.827739
3.0150,107.8288272,21.43554371,1281.059149
3.0200,107.4477684,21.74788344,1281.290201
3.0250,107.0691603,22.0601659,1281.521058
3.0300,106.6924499,22.37077057,1281.751529
3.0350,106.3168861,22.6812154,1281.982244
3.0400,105.9427909,22.99063121,1282.212946
3.0450,105.5703258,23.30006319,1282.443882
3.0500,105.1992624,23.60868447,1282.675034
3.0550,104.8286945,23.91685249,1282.906916
3.0600,104.45934,24.22421319,1283.139091
3.0650,104.0905114,24.5313753,1283.372103
3.0700,103.722472,24.83842693,1283.605869
3.0750,103.3544299,25.14523477,1283.840611
3.0800,102.9862918,25.45180589,1284.076388
3.0850,102.6185966,25.75819348,1284.312886
3.0900,102.253243,26.0641786,1284.549168
3.0950,101.8900349,26.37076424,1284.785615
3.1000,101.5287878,26.67714596,1285.021885
3.1050,101.1698332,26.98331037,1285.257917
3.1100,100.8134912,27.28905098,1285.493391
3.1150,100.4599171,27.59373189,1285.728085
3.1200,100.1077919,27.89701778,1285.962487
3.1250,99.75825177,28.19908825,1286.19621
3.1300,99.41040849,28.49941891,1286.429388
3.1350,99.06411506,28.79804713,1286.662176
3.1400,98.71988313,29.09627593,1286.894763
3.1450,98.37777462,29.39394783,1287.126968
3.1500,98.03809559,29.69005832,1287.358343
3.1550,97.70139522,29.984945,1287.588566
3.1600,97.36826714,30.27917005,1287.817589
3.1650,97.03739771,30.57137381,1288.045646
3.1700,96.7078981,30.86285933,1288.273681
3.1750,96.38049623,31.15215505,1288.50099
3.1800,96.05497891,31.43920762,1288.727604
3.1850,95.73012973,31.72483867,1288.954356
3.1900,95.40531491,32.00904843,1289.181622
3.1950,95.08006728,32.29254476,1289.409814
3.2000,94.75533987,32.57470133,1289.638228
3.2050,94.43047904,32.85548261,1289.867163
3.2100,94.10716746,33.13519304,1290.095907
3.2150,93.78348105,33.41430068,1290.325652
3.2200,93.45931017,33.69284379,1290.556407
3.2250,93.13402962,33.97046093,1290.78842
3.2300,92.80824262,34.24830594,1291.02168
3.2350,92.4826123,34.52501928,1291.255389
3.2400,92.15633735,34.80080454,1291.489956
3.2450,91.83016149,35.07568534,1291.725016
3.2500,91.50242289,35.35048053,1291.961754
3.2550,91.17539495,35.62470143,1292.198772
3.2600,90.84833004,35.8979491,1292.436296
3.2650,90.52154433,36.17047482,1292.674359
3.2700,90.19431723,36.44196377,1292.91322
3.2750,89.86638261,36.71329357,1293.153206
3.2800,89.53774328,36.98379549,1293.394126
3.2850,89.20957246,37.25471547,1293.63592
3.2900,88.88215934,37.5251682,1293.877983
3.2950,88.55631415,37.79608001,1294.12024
3.3000,88.23110784,38.06749523,1294.363212
3.3050,87.90710861,38.33971549,1294.606765
3.3100,87.58376113,38.61174891,1294.850765
3.3150,87.26184555,38.88356796,1295.094785
3.3200,86.9409974,39.15526498,1295.339136
3.3250,86.62042932,39.42607306,1295.583951
3.3300,86.30009211,39.69677836,1295.829506
3.3350,85.98034372,39.96577619,1296.075104
3.3400,85.66075619,40.23359635,1296.321076
3.3450,85.34137625,40.49958367,1296.567232
3.3500,85.02154736,40.76331118,1296.813745
3.3550,84.70103561,41.0235463,1297.060218
3.3600,84.37949163,41.28098922,1297.307253
3.3650,84.05684279,41.53539449,1297.554661
3.3700,83.73206476,41.78670307,1297.803063
3.3750,83.40586202,42.03492195,1298.051983
3.3800,83.07804416,42.27894889,1298.301114
3.3850,82.74842438,42.51957434,1298.550969
3.3900,82.41649972,42.75616041,1298.801556
3.3950,82.08190941,42.98820618,1299.052931
3.4000,81.74520324,43.21613568,1299.304961
3.4050,81.40596899,43.43960556,1299.557662
3.4100,81.06489937,43.6587861,1299.810772
3.4150,80.72146294,43.87436503,1300.064747
3.4200,80.37715202,44.08661223,1300.318945
3.4250,80.03149074,44.29490924,1300.573263
3.4300,79.68444484,44.49889243,1300.827636
3.4350,79.33752361,44.69950545,1301.081408
3.4400,78.99026574,44.89630743,1301.33481
3.4450,78.64275858,45.08935368,1301.587713
3.4500,78.29504169,45.27930785,1301.840447
3.4550,77.94687079,45.46587121,1302.093142
3.4600,77.59946794,45.64948903,1302.345194
3.4650,77.25178646,45.83007218,1302.597111
3.4700,76.90596817,46.00741928,1302.84755
3.4750,76.56107414,46.18251233,1303.097321
3.4800,76.21797127,46.3560267,1303.346292
3.4850,75.87706193,46.52696793,1303.593832
3.4900,75.53852991,46.69561001,1303.839865
3.4950,75.20275945,46.86281202,1304.084641
3.5000,74.86896712,47.02856992,1304.328574
3.5050,74.53759322,47.19336521,1304.571567
3.5100,74.20860745,47.35730015,1304.813863
3.5150,73.88369486,47.52064693,1305.05442
3.5200,73.56280068,47.68415464,1305.293493
3.5250,73.24581218,47.84838164,1305.531455
3.5300,72.93195407,48.01308161,1305.768653
3.5350,72.62265782,48.17899108,1306.004458
3.5400,72.31683097,48.34535625,1306.239254
3.5450,72.01456026,48.51330899,1306.473472
3.5500,71.71645684,48.68182537,1306.706261
3.5550,71.42190786,48.85113273,1306.93821
3.5600,71.13149566,49.02231789,1307.169328
3.5650,70.84508974,49.19462269,1307.399274
3.5700,70.56279509,49.36866735,1307.628324
3.5750,70.28401401,49.54444389,1307.8568
3.5800,70.0089147,49.7225196,1308.084766
3.5850,69.73664322,49.90137193,1308.312015
3.5900,69.46725927,50.08136685,1308.538696
3.5950,69.20031197,50.26124992,1308.764531
3.6000,68.93575416,50.44195991,1308.989908
3.6050,68.67342541,50.62274349,1309.214548
3.6100,68.41350089,50.8034587,1309.438256
3.6150,68.15488354,50.98376839,1309.661558
3.6200,67.89724168,51.163127,1309.884249
3.6250,67.64054163,51.3404232,1310.10598
3.6300,67.38430886,51.51448468,1310.32655
3.6350,67.12738579,51.6853695,1310.546704
3.6400,66.8700439,51.8524711,1310.766049
3.6450,66.61100594,52.01488225,1310.98488
3.6500,66.35028129,52.17228698,1311.202957
3.6550,66.08758467,52.32546911,1311.420869
3.6600,65.82262467,52.4723142,1311.63774
3.6650,65.55479071,52.61265531,1311.854013
3.6700,65.28533683,52.74591936,1312.068528
3.6750,65.01271139,52.87172142,1312.282237
3.6800,64.73622148,52.99043644,1312.495647
3.6850,64.45643468,53.10107362,1312.707898
3.6900,64.17213271,53.20393299,1312.919996
3.6950,63.88353606,53.29897648,1313.131785
3.7000,63.58960616,53.38721833,1313.344331
3.7050,63.29122456,53.46853634,1313.556993
3.7100,62.98852941,53.54367671,1313.770032
3.7150,62.68123538,53.61274239,1313.983665
3.7200,62.36974209,53.67587142,1314.197701
3.7250,62.05427087,53.73388392,1314.412493
3.7300,61.73525568,53.78697475,1314.627673
3.7350,61.41295511,53.83639518,1314.843881
3.7400,61.08639316,53.88153605,1315.061392
3.7450,60.75722882,53.92389871,1315.279797
3.7500,60.42568731,53.9630596,1315.498846
3.7550,60.09291194,54.00047173,1315.718333
3.7600,59.75805242,54.03548642,1315.938668
3.7650,59.42251338,54.06907446,1316.159427
3.7700,59.08519602,54.10166157,1316.381518
3.7750,58.74764238,54.13335823,1316.603989
3.7800,58.40961247,54.16459745,1316.827122
3.7850,58.07216704,54.19640502,1317.050795
3.7900,57.73604742,54.22967565,1317.27502
3.7950,57.40069692,54.26366445,1317.499709
3.8000,57.06746413,54.30012388,1317.724767
3.8050,56.73691897,54.33915534,1317.949984
3.8100,56.40751846,54.38012843,1318.175986
3.8150,56.08000076,54.42439382,1318.403012
3.8200,55.75454989,54.47285281,1318.631294
3.8250,55.43175675,54.5256663,1318.860428
3.8300,55.11220477,54.58317538,1319.090255
3.8350,54.79482753,54.64507042,1319.321419
3.8400,54.48110286,54.71364674,1319.553867
3.8450,54.17033921,54.78731873,1319.787363
3.8500,53.86301253,54.86736189,1320.022256
3.8550,53.55904204,54.95352895,1320.258402
3.8600,53.25701103,55.04527841,1320.496752
3.8650,52.95683476,55.14219025,1320.737232
3.8700,52.65816175,55.24439161,1320.980095
3.8750,52.36067655,55.35014717,1321.224962
3.8800,52.06522052,55.45928001,1321.471088
3.8850,51.77066613,55.57177838,1321.719268
3.8900,51.47737777,55.68658983,1321.96876
3.8950,51.18439699,55.80409822,1322.220468
3.9000,50.89192511,55.92112999,1322.472708
3.9050,50.59897255,56.03763303,1322.726228
3.9100,50.30439759,56.15243304,1322.981375
3.9150,50.00808538,56.26457204,1323.237826
3.9200,49.71020545,56.37260995,1323.494659
3.9250,49.40989119,56.47662578,1323.752538
3.9300,49.10790702,56.57566412,1324.010407
3.9350,48.80418157,56.66930129,1324.267978
3.9400,48.49801844,56.75597408,1324.525025
3.9450,48.18920721,56.83532933,1324.781522
3.9500,47.87788725,56.90765258,1325.037472
3.9550,47.56429055,56.97121277,1325.291751
3.9600,47.24738849,57.02665062,1325.545512
3.9650,46.92808585,57.07259523,1325.797274
3.9700,46.60499069,57.10915246,1326.04814
3.9750,46.27931839,57.13676765,1326.297356
3.9800,45.9513739,57.15481234,1326.544305
3.9850,45.62096815,57.16311599,1326.789242
3.9900,45.28889144,57.16185235,1327.031491
3.9950,44.95550735,57.15058526,1327.270494
4.0000,44.62141893,57.12792721,1327.50522
4.0050,44.28641536,57.09477231,1327.736289
4.0100,43.94946335,57.04985021,1327.963893
4.0150,43.61165015,56.99377923,1328.187517
4.0200,43.27313104,56.92585288,1328.406652
4.0250,42.93429979,56.84664971,1328.621101
4.0300,42.59557897,56.75761201,1328.831453
4.0350,42.2572228,56.65788084,1329.036976
4.0400,41.92067955,56.54825553,1329.236969
4.0450,41.58565065,56.42827427,1329.431484
4.0500,41.25303062,56.29936624,1329.620344
4.0550,40.92145937,56.16110994,1329.804605
4.0600,40.59214582,56.014634,1329.983663
4.0650,40.26566578,55.86134154,1330.157762
4.0700,39.9428396,55.70187663,1330.326537
4.0750,39.62329533,55.53714952,1330.490824
4.0800,39.30766275,55.36812323,1330.650627
4.0850,38.99647074,55.19673085,1330.806264
4.0900,38.6894255,55.02448763,1330.958734
4.0950,38.38879172,54.85284001,1331.106956
4.1000,38.09317416,54.68252672,1331.252505
4.1050,37.80215292,54.51536513,1331.396475
4.1100,37.51863433,54.35300964,1331.537416
4.1150,37.24090526,54.19600052,1331.676948
4.1200,36.97017179,54.04507897,1331.814497
4.1250,36.70664028,53.90135815,1331.95046
4.1300,36.45072112,53.76659143,1332.085367
4.1350,36.20306245,53.6415127,1332.21908
4.1400,35.96328304,53.52518393,1332.351419
4.1450,35.73158412,53.41954267,1332.483142
4.1500,35.5083049,53.32384005,1332.613627
4.1550,35.29339216,53.23850003,1332.743204
4.1600,35.08817998,53.16395626,1332.870721
4.1650,34.8925189,53.10031023,1332.99631
4.1700,34.70706274,53.04694256,1333.119266
4.1750,34.53199537,53.00544205,1333.239999
4.1800,34.36759825,52.97508594,1333.357887
4.1850,34.21419435,52.95594634,1333.472857
4.1900,34.07220286,52.94800762,1333.584558
4.1950,33.94265327,52.95082498,1333.69169
4.2000,33.82551098,52.96500505,1333.794743
4.2050,33.72150746,52.98928612,1333.892433
4.2100,33.63180819,53.02397774,1333.983799
4.2150,33.55581503,53.06774664,1334.068743
4.2200,33.49415712,53.1204529,1334.14672
4.2250,33.44709313,53.18156048,1334.217174
4.2300,33.41338705,53.25024418,1334.280773
4.2350,33.3935162,53.32532368,1334.336565
4.2400,33.38758286,53.40676447,1334.384347
4.2450,33.39551095,53.49238413,1334.423158
4.2500,33.41660975,53.58114906,1334.453105
4.2550,33.4500736,53.67134772,1334.474149
4.2600,33.49648582,53.76313753,1334.485756
4.2650,33.55395996,53.85553709,1334.489204
4.2700,33.62248659,53.94749258,1334.48383
4.2750,33.70151302,54.03785214,1334.469723
4.2800,33.79047431,54.12667654,1334.447394
4.2850,33.88858537,54.21358404,1334.41712
4.2900,33.99524327,54.29684704,1334.378747
4.2950,34.10905364,54.37643712,1334.333359
4.3000,34.22945015,54.45136701,1334.281007
4.3050,34.35582486,54.52030435,1334.221568
4.3100,34.48886564,54.58418465,1334.15484
4.3150,34.62762111,54.64175012,1334.080943
4.3200,34.77117944,54.69298912,1334.000699
4.3250,34.92001769,54.73764454,1333.913515
4.3300,35.07403761,54.77576749,1333.819501
4.3350,35.23248822,54.80687474,1333.718928
4.3400,35.39523598,54.83191248,1333.612526
4.3450,35.56224206,54.85061069,1333.500201
4.3500,35.73298513,54.8626401,1333.382272
4.3550,35.90849983,54.86842043,1333.258052
4.3600,36.08791072,54.86817649,1333.128538
4.3650,36.27044159,54.86203678,1332.994438
4.3700,36.45587113,54.84961264,1332.85574
4.3750,36.64454993,54.83205769,1332.712673
4.3800,36.83619142,54.8090822,1332.565318
4.3850,37.03045811,54.78073356,1332.414025
4.3900,37.22722179,54.74679204,1332.25878
4.3950,37.42572243,54.70839953,1332.100763
4.4000,37.62750341,54.66712563,1331.939491
4.4050,37.83293494,54.62385246,1331.775072
4.4100,38.04086102,54.57930353,1331.608788
4.4150,38.25404469,54.53560208,1331.439428
4.4200,38.47187129,54.49311872,1331.267729
4.4250,38.69493831,54.45215656,1331.093346
4.4300,38.92349274,54.41264429,1330.916051
4.4350,39.15688037,54.37530521,1330.736668
4.4400,39.39646438,54.34096994,1330.554481
4.4450,39.64261388,54.30961844,1330.369229
4.4500,39.89551534,54.28221218,1330.181085
4.4550,40.15508839,54.25891328,1329.990035
4.4600,40.42122831,54.23875598,1329.795914
4.4650,40.69404469,54.22249042,1329.599004
4.4700,40.9733663,54.21032486,1329.399372
4.4750,41.25922828,54.20187494,1329.196902
4.4800,41.55132719,54.19642596,1328.991527
4.4850,41.85043136,54.19407086,1328.782629
4.4900,42.15535173,54.19453824,1328.570938
4.4950,42.46585238,54.19726005,1328.35655
4.5000,42.78097225,54.20132829,1328.139653
4.5050,43.10053677,54.20597109,1327.920065
4.5100,43.4231077,54.21079904,1327.69875
4.5150,43.7492171,54.21488945,1327.474784
4.5200,44.07713628,54.21774448,1327.249473
4.5250,44.40762074,54.21896401,1327.021914
4.5300,44.74027375,54.21764599,1326.791983
4.5350,45.07335108,54.21328979,1326.560916
4.5400,45.40584161,54.20436914,1326.328833
4.5450,45.73735362,54.19138231,1326.09623
4.5500,46.06769941,54.17283425,1325.862639
4.5550,46.39612702,54.14945294,1325.628928
4.5600,46.7215634,54.11977847,1325.395215
4.5650,47.04441468,54.08469135,1325.161525
4.5700,47.36426223,54.04243077,1324.927661
4.5750,47.68058175,53.99312443,1324.693872
4.5800,47.99289633,53.93603803,1324.46031
4.5850,48.30098261,53.87106919,1324.227092
4.5900,48.60442132,53.79759632,1323.994202
4.5950,48.90373077,53.71529064,1323.761239
4.6000,49.19910474,53.62572543,1323.528694
4.6050,49.49013179,53.5296852,1323.29709
4.6100,49.77767497,53.42742824,1323.065869
4.6150,50.06278528,53.31977604,1322.83458
4.6200,50.34678636,53.20738566,1322.602474
4.6250,50.62976275,53.09057949,1322.369799
4.6300,50.91171887,52.96886002,1322.136294
4.6350,51.19450928,52.84270137,1321.900901
4.6400,51.47860606,52.71227924,1321.663318
4.6450,51.7638949,52.57813733,1321.423877
4.6500,52.0504197,52.44022802,1321.182614
4.6550,52.338835,52.29939814,1320.939511
4.6600,52.62996167,52.15558194,1320.694011
4.6650,52.923577,52.00757421,1320.445735
4.6700,53.22118874,51.85646536,1320.194283
4.6750,53.5215014,51.70270855,1319.940824
4.6800,53.82545822,51.54667413,1319.68498
4.6850,54.1320868,51.38776391,1319.427315
4.6900,54.44191806,51.2271436,1319.167928
4.6950,54.75433684,51.06493919,1318.907499
4.7000,55.06902854,50.90059572,1318.645811
4.7050,55.38612394,50.73421987,1318.382851
4.7100,55.70738075,50.56760998,1318.118074
4.7150,56.03148624,50.39952965,1317.851728
4.7200,56.35987231,50.23114974,1317.58329
4.7250,56.6918435,50.06283855,1317.31346
4.7300,57.02762821,49.89520498,1317.042195
4.7350,57.36804649,49.72816638,1316.768874
4.7400,57.71244784,49.56196398,1316.494074
4.7450,58.06062641,49.3971961,1316.218133
4.7500,58.41306201,49.23283686,1315.940163
4.7550,58.76943199,49.06769977,1315.660058
4.7600,59.1291946,48.9032466,1315.378774
4.7650,59.49279194,48.73925758,1315.095872
4.7700,59.86015044,48.57501149,1314.811147
4.7750,60.23170505,48.40955362,1314.523893
4.7800,60.60625293,48.24278316,1314.234872
4.7850,60.98155247,48.07331885,1313.945103
4.7900,61.35853835,47.90091663,1313.654003
4.7950,61.73539586,47.72408778,1313.362139
4.8000,62.11198565,47.54348876,1313.069959
4.8050,62.48707397,47.35810114,1312.777827
4.8100,62.85989435,47.16703782,1312.485986
4.8150,63.22998482,46.97026207,1312.194707
4.8200,63.59703626,46.7677364,1311.90397
4.8250,63.95981255,46.55922914,1311.614558
4.8300,64.31791523,46.34432121,1311.326463
4.8350,64.67171535,46.12372045,1311.03975
4.8400,65.02127129,45.89800162,1310.754372
4.8450,65.36670748,45.66822419,1310.470697
4.8500,65.70861132,45.43438464,1310.188216
4.8550,66.04761055,45.1975394,1309.906923
4.8600,66.3841067,44.95771858,1309.626626
4.8650,66.71879957,44.71470881,1309.346789
4.8700,67.05236199,44.47013234,1309.067541
4.8750,67.38459378,44.22338564,1308.788675
4.8800,67.71575902,43.97401047,1308.509974
4.8850,68.04581928,43.72178843,1308.231385
4.8900,68.37495864,43.46820609,1307.953317
4.8950,68.70286078,43.21367614,1307.676126
4.9000,69.02921072,42.95759409,1307.39976
4.9050,69.35555522,42.70059153,1307.123586
4.9100,69.68071908,42.44179987,1306.847906
4.9150,70.00369592,42.18098957,1306.573395
4.9200,70.32490371,41.91892444,1306.300077
4.9250,70.64377181,41.65442923,1306.027903
4.9300,70.96070291,41.38837223,1305.756903
4.9350,71.27441959,41.12051382,1305.48789
4.9400,71.58541511,40.85100216,1305.220505
4.9450,71.89430415,40.58035254,1304.954642
4.9500,72.20177246,40.30895373,1304.690032
4.9550,72.50784197,40.03646718,1304.426498
4.9600,72.81237369,39.76298211,1304.164107
4.9650,73.11718021,39.49077046,1303.902672
4.9700,73.42180534,39.21925553,1303.642114
4.9750,73.72782657,38.9487216,1303.38172
4.9800,74.03542956,38.67950171,1303.121446
4.9850,74.34586644,38.41327859,1302.861251
4.9900,74.65910468,38.14836373,1302.600591
4.9950,74.97646927,37.88563737,1302.338981
5.0000,75.29695128,37.6242753,1302.076856
5.0050,75.62131418,37.36357059,1301.813711
5.0100,75.94823488,37.10291254,1301.550131
5.0150,76.27804064,36.84275898,1301.286176
5.0200,76.61012611,36.58198008,1301.021857
5.0250,76.94495612,36.32094985,1300.756931
5.0300,77.28256715,36.05960774,1300.491435
5.0350,77.62364601,35.79756248,1300.224911
5.0400,77.96767759,35.53507735,1299.957799
5.0450,78.31539271,35.27198428,1299.689613
5.0500,78.66669874,35.00988664,1299.421087
5.0550,79.02314435,34.7501806,1299.151765
5.0600,79.38559718,34.49268549,1298.881018
5.0650,79.75319929,34.23663733,1298.609156
5.0700,80.12564231,33.98265757,1298.336588
5.0750,80.50182516,33.73131952,1298.064118
5.0800,80.8828334,33.481635,1297.790893
5.0850,81.26947171,33.23323298,1297.516325
5.0900,81.6607031,32.98569829,1297.240686
5.0950,82.05644441,32.738536,1296.963952
5.1000,82.45675757,32.49087542,1296.685736
5.1050,82.8615743,32.24300746,1296.406185
5.1100,83.27102987,31.9948486,1296.125159
5.1150,83.68543066,31.74730958,1295.842714
5.1200,84.10501075,31.49990187,1295.558653
5.1250,84.52933287,31.25197005,1295.273093
5.1300,84.95808159,31.00369974,1294.986346
5.1350,85.39156372,30.7551509,1294.698302
5.1400,85.82948954,30.50564118,1294.409045
5.1450,86.27093036,30.25512293,1294.119001
5.1500,86.71434992,30.00343239,1293.829029
5.1550,87.15959241,29.75014254,1293.538934
5.1600,87.60634705,29.49605191,1293.249126
5.1650,88.05319908,29.24045555,1292.960095
5.1700,88.50116396,28.98444192,1292.671505
5.1750,88.95044839,28.72719493,1292.383052
5.1800,89.40206854,28.47008846,1292.094465
5.1850,89.85620853,28.21392372,1291.805828
5.1900,90.31331639,27.95840947,1291.516859
5.1950,90.77335394,27.70407104,1291.227714
5.2000,91.23737678,27.45132566,1290.93789
5.2050,91.7044729,27.19923387,1290.647615
5.2100,92.17510158,26.94933511,1290.357223
5.2150,92.64963023,26.70110989,1290.066373
5.2200,93.12830174,26.45437029,1289.774899
5.2250,93.61064595,26.20900351,1289.483
5.2300,94.09740809,25.96512031,1289.190269
5.2350,94.58829409,25.72197193,1288.896527
5.2400,95.08282316,25.47788298,1288.601449
5.2450,95.58042004,25.23232575,1288.305097
5.2500,96.08088198,24.98495682,1288.007442
5.2550,96.58353169,24.73556428,1287.708796
5.2600,97.08824345,24.48395521,1287.409265
5.2650,97.59455343,24.22980394,1287.108962
5.2700,98.10118701,23.97353726,1286.808706
5.2750,98.60799106,23.71447536,1286.508329
5.2800,99.11486693,23.45308946,1286.208163
5.2850,99.6220178,23.18862375,1285.907795
5.2900,100.1293206,22.92235484,1285.607797
5.2950,100.6367607,22.65482227,1285.308258
5.3000,101.1445334,22.38595493,1285.009151
5.3050,101.6520414,22.115869,1284.710784
5.3100,102.1584017,21.84287299,1284.413071
5.3150,102.6636019,21.56686241,1284.116055
5.3200,103.1672915,21.28759558,1283.819751
5.3250,103.6687112,21.00480036,1283.52436
5.3300,104.1678632,20.71800828,1283.229636
5.3350,104.6643919,20.42751675,1282.935652
5.3400,105.1590786,20.13258847,1282.641719
5.3450,105.6508261,19.83244516,1282.348
5.3500,106.139886,19.52613927,1282.054133
5.3550,106.62485,19.21390686,1281.760744
5.3600,107.1050586,18.89514465,1281.468013
5.3650,107.5811548,18.56940398,1281.175603
5.3700,108.0537192,18.23693466,1280.883275
5.3750,108.5217455,17.89727349,1280.591412
5.3800,108.9855414,17.55213832,1280.300449
5.3850,109.4453527,17.20127569,1280.010406
5.3900,109.9014759,16.84486434,1279.721303
5.3950,110.3557091,16.48395582,1279.432747
5.4000,110.80845,16.11906747,1279.144804
5.4050,111.2620695,15.75088367,1278.856582
5.4100,111.7171867,15.3803864,1278.568201
5.4150,112.1738042,15.00602854,1278.279375
5.4200,112.6314155,14.62922373,1277.990651
5.4250,113.09011,14.25003961,1277.702021
5.4300,113.5504435,13.86927979,1277.413373
5.4350,114.0111154,13.48603707,1277.124904
5.4400,114.4714794,13.10096497,1276.836909
5.4450,114.9317868,12.71285796,1276.549043
5.4500,115.3925567,12.32234968,1276.261078
5.4550,115.8532612,11.92862361,1275.973041
5.4600,116.31445,11.53042252,1275.684316
5.4650,116.7759582,11.1287742,1275.395046
5.4700,117.2359749,10.72247593,1275.105667
5.4750,117.6945853,10.31245289,1274.816374
5.4800,118.151607,9.899172316,1274.527333
5.4850,118.607313,9.483480786,1274.238874
5.4900,119.0620032,9.06691589,1273.951323
5.4950,119.5160218,8.650845058,1273.664967
5.5000,119.9689606,8.235700257,1273.380276
5.5050,120.4200115,7.823603634,1273.098067
5.5100,120.8683467,7.414413398,1272.818755
5.5150,121.314559,7.008650388,1272.542419
5.5200,121.757053,6.606460201,1272.26965
5.5250,122.1953617,6.209115292,1272.000785
5.5300,122.6290392,5.81471871,1271.735679
5.5350,123.0582553,5.425707597,1271.474742
5.5400,123.4818566,5.042395822,1271.218351
5.5450,123.899404,4.665170078,1270.966716
5.5500,124.3090224,4.294862938,1270.720462
5.5550,124.711531,3.931937573,1270.479202
5.5600,125.106566,3.576375724,1270.242815
5.5650,125.4938457,3.22917932,1270.011491
5.5700,125.8731916,2.890802991,1269.785197
5.5750,126.2436248,2.561836323,1269.564304
5.5800,126.6042424,2.242675409,1269.348948
5.5850,126.9552566,1.933822636,1269.139102
5.5900,127.2974928,1.635438523,1268.934405
5.5950,127.6308784,1.347552544,1268.734746
5.6000,127.9573816,1.070903267,1268.539538
5.6050,128.2774346,0.8073137158,1268.348863
5.6100,128.5928903,0.5579850937,1268.162336
5.6150,128.9045866,0.3231893664,1267.979514
5.6200,129.2137248,0.1029771214,1267.799993
5.6250,129.521223,-0.1029287393,1267.623471
5.6300,129.8256571,-0.2953089643,1267.450069
5.6350,130.1262342,-0.4743044158,1267.280055
5.6400,130.4229661,-0.6403079567,1267.113339
5.6450,130.7160929,-0.7934300934,1266.949817
5.6500,131.0046532,-0.9346330341,1266.78941
5.6550,131.28845,-1.065190599,1266.631779
5.6600,131.5673152,-1.185350926,1266.476799
5.6650,131.8401417,-1.294842016,1266.324553
5.6700,132.1064213,-1.396458722,1266.174649
5.6750,132.3689848,-1.490349812,1266.026106
5.6800,132.6260467,-1.579119112,1265.878704
5.6850,132.8773613,-1.662913288,1265.732345
5.6900,133.1227995,-1.742534993,1265.587074
5.6950,133.3620744,-1.818824163,1265.442819
5.7000,133.593852,-1.893402608,1265.299764
5.7050,133.8152686,-1.966927526,1265.158698
5.7100,134.0252281,-2.040468631,1265.019661
5.7150,134.2235624,-2.113882528,1264.882766
5.7200,134.410956,-2.186979546,1264.747917
5.7250,134.5880981,-2.26056359,1264.61481
5.7300,134.7551912,-2.334696515,1264.483569
5.7350,134.9138843,-2.40915633,1264.353827
5.7400,135.0646807,-2.484453849,1264.225491
5.7450,135.2076996,-2.5601597,1264.09863
5.7500,135.3444346,-2.635287117,1263.973156
5.7550,135.4744464,-2.709769213,1263.849267
5.7600,135.5984107,-2.782451966,1263.726987
5.7650,135.7172324,-2.852888917,1263.606196
5.7700,135.8309513,-2.919956611,1263.487169
5.7750,135.9396027,-2.98402256,1263.369651
5.7800,136.0428173,-3.045196734,1263.253701
5.7850,136.1403752,-3.103110602,1263.139281
5.7900,136.2321211,-3.158660883,1263.026196
5.7950,136.3192722,-3.212124366,1262.914103
5.8000,136.4020359,-3.26356461,1262.80289
5.8050,136.4821662,-3.312746418,1262.692194
5.8100,136.5607808,-3.359798802,1262.58162
5.8150,136.6381532,-3.403669901,1262.471317
5.8200,136.7158578,-3.443200178,1262.361231
5.8250,136.7952187,-3.477826348,1262.251187
5.8300,136.8771614,-3.504877984,1262.141544
5.8350,136.9626529,-3.524292367,1262.032258
5.8400,137.0524553,-3.534712669,1261.923605
5.8450,137.1487493,-3.535638919,1261.81523
5.8500,137.2526686,-3.526072299,1261.707238
5.8550,137.3641628,-3.505861771,1261.599678
5.8600,137.4845049,-3.472932845,1261.492751
5.8650,137.6131814,-3.429657192,1261.386228
5.8700,137.7502001,-3.376683677,1261.279954
5.8750,137.8943542,-3.314415572,1261.174057
5.8800,138.0457866,-3.243153471,1261.068438
5.8850,138.2029794,-3.163581194,1260.963242
5.8900,138.3646303,-3.076993849,1260.858381
5.8950,138.5310622,-2.984144707,1260.753671
5.9000,138.6999526,-2.885696313,1260.649478
5.9050,138.8720505,-2.783914599,1260.54516
5.9100,139.0456937,-2.678991227,1260.441164
5.9150,139.2196699,-2.571771047,1260.33767
5.9200,139.393535,-2.463116064,1260.234681
5.9250,139.5658468,-2.352392525,1260.132734
5.9300,139.7374596,-2.239297673,1260.031828
5.9350,139.9086374,-2.122772123,1259.932059
5.9400,140.0778949,-2.002087617,1259.833908
5.9450,140.2446403,-1.877665111,1259.737407
5.9500,140.4088218,-1.748746699,1259.642751
5.9550,140.5701522,-1.615440976,1259.549926
5.9600,140.7281303,-1.477848996,1259.459006
5.9650,140.8834482,-1.336973274,1259.36973
5.9700,141.0351285,-1.191817709,1259.282347
5.9750,141.1811005,-1.043594537,1259.19716
5.9800,141.321674,-0.8911855112,1259.1143
5.9850,141.4555508,-0.7349923808,1259.033806
5.9900,141.5811666,-0.574839723,1258.955822
5.9950,141.6973618,-0.4113311695,1258.880281
6.0000,141.8042956,-0.244088305,1258.807161
6.0050,141.9016142,-0.07317708841,1258.73635
6.0100,141.9881592,0.1022049018,1258.668196
6.0150,142.061767,0.2815997288,1258.602882
6.0200,142.1225576,0.4643396308,1258.540176
6.0250,142.1689266,0.6511687302,1258.480494
6.0300,142.1989719,0.8411723873,1258.423847
6.0350,142.2120898,1.035145136,1258.370512
6.0400,142.2088521,1.233208208,1258.320429
6.0450,142.1897473,1.435622245,1258.273622
6.0500,142.1536278,1.642665347,1258.230317
6.0550,142.1019711,1.854729107,1258.190395
6.0600,142.0354538,2.071804843,1258.153851
6.0650,141.9545056,2.294348613,1258.120922
6.0700,141.8609465,2.523195281,1258.091445
6.0750,141.755667,2.760060311,1258.065776
6.0800,141.6404254,3.005597385,1258.043821
6.0850,141.5174798,3.259713379,1258.025271
6.0900,141.3884105,3.523638812,1258.010064
6.0950,141.2542872,3.797214913,1257.998035
6.1000,141.1174675,4.080995461,1257.98884
6.1050,140.9790756,4.373885972,1257.982028
6.1100,140.8418823,4.675941176,1257.977091
6.1150,140.7068983,4.9869795,1257.973708
6.1200,140.5755221,5.304803306,1257.971082
6.1250,140.449508,5.628653099,1257.968686
6.1300,140.3291137,5.956275583,1257.965967
6.1350,140.2152294,6.286189508,1257.962241
6.1400,140.109079,6.617104055,1257.956941
6.1450,140.0097878,6.948078829,1257.950022
6.1500,139.9185527,7.277717032,1257.940813
6.1550,139.8356838,7.60474085,1257.928989
6.1600,139.76008,7.928483148,1257.914564
6.1650,139.6932912,8.249000859,1257.897153
6.1700,139.6354965,8.56653898,1257.87685
6.1750,139.5882573,8.879507933,1257.853057
6.1800,139.5522248,9.188171933,1257.825654
6.1850,139.5266217,9.490998688,1257.794576
6.1900,139.5119813,9.788257048,1257.759807
6.1950,139.5077331,10.07966823,1257.721508
6.2000,139.5137534,10.36408702,1257.679537
6.2050,139.528843,10.64171564,1257.634324
6.2100,139.5533494,10.9118091,1257.585601
6.2150,139.5858377,11.17394692,1257.533637
6.2200,139.6266426,11.42889397,1257.478604
6.2250,139.6759546,11.67563055,1257.420189
6.2300,139.7340689,11.91501816,1257.358545
6.2350,139.798706,12.14555793,1257.293841
6.2400,139.8704196,12.36748012,1257.226018
6.2450,139.9491238,12.58014079,1257.154892
6.2500,140.0335294,12.7827793,1257.080609
6.2550,140.1233687,12.97626074,1257.003423
6.2600,140.2181903,13.15973995,1256.923286
6.2650,140.3166335,13.33409328,1256.840673
6.2700,140.4183099,13.49969573,1256.75574
6.2750,140.5225082,13.65783475,1256.668973
6.2800,140.6279379,13.80820693,1256.580466
6.2850,140.7364405,13.95255747,1256.490336
6.2900,140.8483249,14.0912055,1256.398609
6.2950,140.9627488,14.22598548,1256.305821
6.3000,141.0803712,14.35838352,1256.212184
6.3050,141.2007598,14.48804881,1256.117673
6.3100,141.3246238,14.6156122,1256.022326
6.3150,141.4534478,14.74206177,1255.926082
6.3200,141.5858919,14.86818874,1255.829405
6.3250,141.7216465,14.99277525,1255.731987
6.3300,141.8620959,15.11781794,1255.634042
6.3350,142.0059308,15.24141571,1255.535306
6.3400,142.1525042,15.36512198,1255.436245
6.3450,142.3004111,15.48848423,1255.33693
6.3500,142.4506911,15.61104066,1255.23706
6.3550,142.6038815,15.73355999,1255.136567
6.3600,142.7589953,15.85682683,1255.035787
6.3650,142.9172008,15.98142459,1254.934599
6.3700,143.0784835,16.10666844,1254.832794
6.3750,143.2437302,16.23324273,1254.73035
6.3800,143.4126881,16.36158242,1254.627322
6.3850,143.5850708,16.49211988,1254.523816
6.3900,143.761244,16.62488803,1254.41983
6.3950,143.9404875,16.76066057,1254.315594
6.4000,144.123047,16.89953153,1254.211082
6.4050,144.3086505,17.04170804,1254.106419
6.4100,144.4950829,17.18812896,1254.002128
6.4150,144.6824558,17.3390722,1253.898275
6.4200,144.8711771,17.49538218,1253.795033
6.4250,145.0602541,17.65692552,1253.69249
6.4300,145.2506501,17.82447244,1253.590558
6.4350,145.4430414,17.99774134,1253.489166
6.4400,145.6371685,18.17828771,1253.388692
6.4450,145.8346564,18.36561565,1253.288676
6.4500,146.035331,18.55977994,1253.189303
6.4550,146.2395725,18.76132612,1253.090598
6.4600,146.4483473,18.96941204,1252.992184
6.4650,146.66053,19.18316586,1252.894161
6.4700,146.8759394,19.40244499,1252.796553
6.4750,147.0943238,19.62664392,1252.6992
6.4800,147.3136404,19.8537592,1252.602157
6.4850,147.5354758,20.08513438,1252.505477
6.4900,147.7602424,20.31978689,1252.408947
6.4950,147.9874168,20.55656487,1252.312423
6.5000,148.2179307,20.79618878,1252.216006
6.5050,148.4521558,21.03804629,1252.119518
6.5100,148.6905772,21.28269388,1252.023152
6.5150,148.9347743,21.52985764,1251.92664
6.5200,149.1840843,21.77964813,1251.830238
6.5250,149.4382937,22.03112349,1251.733817
6.5300,149.6962806,22.28284839,1251.637336
6.5350,149.9596629,22.53540394,1251.540842
6.5400,150.2282945,22.78746654,1251.444132
6.5450,150.5022867,23.03930548,1251.347434
6.5500,150.7822058,23.29149513,1251.250794
6.5550,151.0679462,23.54288735,1251.154185
6.5600,151.3595441,23.79391486,1251.057731
6.5650,151.6570364,24.04432159,1250.961476
6.5700,151.9610799,24.29287214,1250.86511
6.5750,152.2728295,24.5379982,1250.768071
6.5800,152.5942614,24.77987654,1250.670182
6.5850,152.9258134,25.01671041,1250.57101
6.5900,153.2711667,25.24635902,1250.46951
6.5950,153.6326454,25.46804723,1250.365259
6.6000,154.0083046,25.68079123,1250.258299
6.6050,154.3982784,25.88509513,1250.148873
6.6100,154.8008918,26.07977177,1250.036911
6.6150,155.2145508,26.2654566,1249.92287
6.6200,155.6395847,26.44217131,1249.806726
6.6250,156.0768824,26.61203653,1249.688924
6.6300,156.5267213,26.77424496,1249.569294
6.6350,156.9900581,26.931098,1249.448321
6.6400,157.4669694,27.0824657,1249.326004
6.6450,157.9579406,27.22950157,1249.202556
6.6500,158.4635766,27.37341802,1249.078312
6.6550,158.9829468,27.51426382,1248.953453
6.6600,159.5168901,27.65249891,1248.827972
6.6650,160.0633829,27.78836955,1248.702219
6.6700,160.6226951,27.92367672,1248.576565
6.6750,161.193581,28.05821427,1248.451144
6.6800,161.774108,28.19253246,1248.326426
6.6850,162.3628996,28.32801985,1248.202908
6.6900,162.9589202,28.46485331,1248.080821
6.6950,163.5610727,28.60306938,1247.960326
6.7000,164.1678615,28.74304356,1247.841589
6.7050,164.7778449,28.88406101,1247.724606
6.7100,165.3908437,29.02514694,1247.609246
6.7150,166.0057378,29.16594901,1247.495481
6.7200,166.6201054,29.30489198,1247.383054
6.7250,167.2340622,29.44235691,1247.272144
6.7300,167.845478,29.57738916,1247.162705
6.7350,168.4521394,29.71016321,1247.055077
6.7400,169.0526481,29.83930855,1246.949094
6.7450,169.6443215,29.96513958,1246.845153
6.7500,170.2247841,30.08755235,1246.743333
6.7550,170.791899,30.20673451,1246.64389
6.7600,171.3446188,30.32234805,1246.546827
6.7650,171.8826068,30.43594965,1246.452444
6.7700,172.406854,30.54662295,1246.360328
6.7750,172.9177018,30.65558393,1246.270868
6.7800,173.417428,30.76431542,1246.184029
6.7850,173.906697,30.87219452,1246.09969
6.7900,174.3850951,30.97954695,1246.017845
6.7950,174.8533485,31.08743947,1245.938731
6.8000,175.3124498,31.19553849,1245.862089
6.8050,175.763288,31.30439699,1245.78803
6.8100,176.2062726,31.41351448,1245.716292
6.8150,176.6437238,31.52333999,1245.646804
6.8200,177.0744735,31.63286366,1245.579341
6.8250,177.5014653,31.74382502,1245.514189
6.8300,177.9259389,31.85587814,1245.451141
6.8350,178.3488639,31.96873783,1245.389911
6.8400,178.7703129,32.08283477,1245.330562
6.8450,179.1916245,32.19826117,1245.272991
6.8500,179.6141394,32.31425772,1245.216919
6.8550,180.0392784,32.43087569,1245.162256
6.8600,180.4665555,32.54732773,1245.108821
6.8650,180.8985162,32.66268805,1245.05613
6.8700,181.3357316,32.77743213,1245.004269
6.8750,181.7786521,32.89200596,1244.953387
6.8800,182.227167,33.00604684,1244.90342
6.8850,182.6800445,33.12049325,1244.854627
6.8900,183.1352485,33.23651711,1244.807419
6.8950,183.5915666,33.3526412,1244.761413
6.9000,184.0492126,33.47010386,1244.716955
6.9050,184.5095444,33.58843552,1244.673638
6.9100,184.9737031,33.7081578,1244.631552
6.9150,185.4442834,33.82941973,1244.590638
6.9200,185.9207005,33.9508128,1244.550504
6.9250,186.4031041,34.07238088,1244.511171
6.9300,186.8906195,34.19385869,1244.472692
6.9350,187.3837625,34.31577119,1244.435171
6.9400,187.8826717,34.43737741,1244.398421
6.9450,188.3876729,34.55770009,1244.362249
6.9500,188.8968543,34.67585244,1244.326483
6.9550,189.4104004,34.79249285,1244.291304
6.9600,189.927072,34.90758586,1244.256792
6.9650,190.4469688,35.02054884,1244.222748
6.9700,190.9688333,35.13101108,1244.189233
6.9750,191.4913755,35.239767,1244.156524
6.9800,192.0155119,35.34684796,1244.124624
6.9850,192.5403915,35.4511366,1244.093415
6.9900,193.0648779,35.55250505,1244.062872
6.9950,193.5875242,35.6511757,1244.033078
7.0000,194.1075154,35.74659225,1244.004034
7.0050,194.6246688,35.84002413,1243.976115
7.0100,195.137665,35.92998115,1243.948869
7.0150,195.6467495,36.01655304,1243.922336
7.0200,196.1509227,36.10164469,1243.89707
7.0250,196.6497476,36.18444089,1243.872879
7.0300,197.1425884,36.2657727,1243.849938
7.0350,197.6289576,36.3462016,1243.828303
7.0400,198.1078816,36.42597991,1243.808039
7.0450,198.5788217,36.50473056,1243.789059
7.0500,199.0420156,36.58288618,1243.771401
7.0550,199.4977478,36.66041721,1243.755073
7.0600,199.9442811,36.73720639,1243.740057
7.0650,200.38201,36.81163558,1243.725875
7.0700,200.8106525,36.88333834,1243.712463
7.0750,201.2285015,36.95256682,1243.699762
7.0800,201.6361804,37.01777965,1243.687449
7.0850,202.0322053,37.07870179,1243.675272
7.0900,202.4164092,37.13386324,1243.662891
7.0950,202.7897872,37.18324321,1243.650171
7.1000,203.1518262,37.22686708,1243.637118
7.1050,203.5020896,37.26356544,1243.623291
7.1100,203.8423442,37.29342319,1243.608801
7.1150,204.1698697,37.31580406,1243.593409
7.1200,204.4874478,37.33129628,1243.577275
7.1250,204.7927991,37.33890541,1243.560016
7.1300,205.0867238,37.3386416,1243.541597
7.1350,205.3684863,37.33128349,1243.522239
7.1400,205.6395711,37.31628972,1243.501777
7.1450,205.8990848,37.29328167,1243.480054
7.1500,206.146225,37.26292811,1243.4572
7.1550,206.3821316,37.22583329,1243.433306
7.1600,206.6076571,37.18213955,1243.408434
7.1650,206.8229042,37.13228274,1243.382618
7.1700,207.0280502,37.07596143,1243.355757
7.1750,207.2239491,37.01301863,1243.32776
7.1800,207.4103352,36.9446062,1243.298937
7.1850,207.5877122,36.86951242,1243.268978
7.1900,207.7565516,36.78871851,1243.238101
7.1950,207.9164265,36.70336361,1243.206537
7.2000,208.0694628,36.61283265,1243.174125
7.2050,208.2147568,36.51762382,1243.141052
7.2100,208.3522988,36.41718344,1243.10719
7.2150,208.481349,36.31051921,1243.072115
7.2200,208.6020429,36.198627,1243.036057
7.2250,208.7140394,36.07992702,1242.998497
7.2300,208.8178412,35.95580299,1242.959793
7.2350,208.9139466,35.8246944,1242.919561
7.2400,209.0019641,35.68814726,1242.87812
7.2450,209.0819945,35.5461838,1242.835524
7.2500,209.1548292,35.398787,1242.791714
7.2550,209.2208658,35.24650702,1242.746926
7.2600,209.2807143,35.08950407,1242.701192
7.2650,209.3346305,34.92843958,1242.654637
7.2700,209.3822272,34.76404882,1242.607508
7.2750,209.4238699,34.59604757,1242.559716
7.2800,209.4585505,34.42414045,1242.511135
7.2850,209.4872459,34.2490477,1242.461884
7.2900,209.5094858,34.07184965,1242.412247
7.2950,209.5276305,33.89218578,1242.36224
7.3000,209.5413891,33.71161386,1242.312241
7.3050,209.5503239,33.52945765,1242.26201
7.3100,209.5552578,33.34718012,1242.211961
7.3150,209.5559336,33.16503821,1242.162214
7.3200,209.552163,32.98225531,1242.112563
7.3250,209.544097,32.79907626,1242.063023
7.3300,209.5345581,32.615961,1242.013771
7.3350,209.5241348,32.4335853,1241.965119
7.3400,209.5127012,32.25159979,1241.916842
7.3450,209.5008651,32.07065208,1241.869136
7.3500,209.4884732,31.89085846,1241.822046
7.3550,209.4744591,31.71143966,1241.775291
7.3600,209.4595981,31.53282039,1241.729021
7.3650,209.4433033,31.35605255,1241.683535
7.3700,209.4238084,31.18167551,1241.638882
7.3750,209.4031357,31.00855399,1241.594856
7.3800,209.3785242,30.83736572,1241.551598
7.3850,209.3502562,30.66749456,1241.508996
7.3900,209.317919,30.50042545,1241.467359
7.3950,209.2798558,30.3342897,1241.426199
7.4000,209.2363851,30.16860073,1241.385417
7.4050,209.1881941,30.00466026,1241.34542
7.4100,209.1336996,29.84263004,1241.306172
7.4150,209.0744583,29.68278965,1241.267781
7.4200,209.0091434,29.52576542,1241.230338
7.4250,208.9389163,29.3704518,1241.193685
7.4300,208.8633503,29.21780726,1241.158122
7.4350,208.7828656,29.06732908,1241.123513
7.4400,208.6983667,28.91885293,1241.089894
7.4450,208.6098212,28.77338956,1241.057543
7.4500,208.5183456,28.62988481,1241.026244
7.4550,208.423292,28.48792889,1240.995965
7.4600,208.3248515,28.34757179,1240.966697
7.4650,208.2224474,28.20886693,1240.938484
7.4700,208.1173412,28.07184156,1240.911442
7.4750,208.0074387,27.93763288,1240.885839
7.4800,207.8921973,27.80403146,1240.861097
7.4850,207.7711305,27.67246967,1240.837635
7.4900,207.6423907,27.54167623,1240.815247
7.4950,207.5062446,27.41201295,1240.794098
7.5000,207.3605381,27.28303166,1240.774064
7.5050,207.2055413,27.15418666,1240.755105
7.5100,207.0398682,27.02502069,1240.737049
7.5150,206.8607305,26.89502863,1240.71988
7.5200,206.6676063,26.76354829,1240.703495
7.5250,206.4601116,26.63188437,1240.688358
7.5300,206.2361852,26.49845564,1240.674054
7.5350,205.9954669,26.36363873,1240.660685
7.5400,205.73804,26.22574881,1240.647993
7.5450,205.4640713,26.08560839,1240.636262
7.5500,205.1732054,25.94351739,1240.625626
7.5550,204.8657435,25.79830881,1240.615848
7.5600,204.5416913,25.65012432,1240.607062
7.5650,204.2020684,25.4980961,1240.599181
7.5700,203.8486955,25.34156633,1240.592093
7.5750,203.4823498,25.17996075,1240.585683
7.5800,203.1051247,25.0131244,1240.580046
7.5850,202.7173359,24.8402824,1240.575079
7.5900,202.3205695,24.66020611,1240.570499
7.5950,201.9159239,24.47252886,1240.566234
7.6000,201.504443,24.27593242,1240.562041
7.6050,201.0875437,24.07018132,1240.557878
7.6100,200.6672284,23.85488869,1240.553703
7.6150,200.2459342,23.6297551,1240.549489
7.6200,199.8263376,23.39355896,1240.544867
7.6250,199.4097343,23.14781908,1240.540233
7.6300,198.9952922,22.89089271,1240.535279
7.6350,198.5833023,22.62211704,1240.529698
7.6400,198.1749555,22.34188467,1240.523674
7.6450,197.7705032,22.05060969,1240.517204
7.6500,197.370807,21.74703434,1240.510001
7.6550,196.9762527,21.4318121,1240.502213
7.6600,196.5872274,21.10530892,1240.493807
7.6650,196.2031273,20.76705307,1240.484714
7.6700,195.8239061,20.41767971,1240.474986
7.6750,195.449852,20.05776313,1240.464792
7.6800,195.0799787,19.68852029,1240.454354
7.6850,194.7156746,19.31124686,1240.443804
7.6900,194.3570022,18.92710528,1240.433351
7.6950,194.0043145,18.53749303,1240.423303
7.7000,193.6577944,18.14469505,1240.414052
7.7050,193.3159537,17.74888822,1240.405569
7.7100,192.9790542,17.35079462,1240.397966
7.7150,192.6467261,16.95139899,1240.391357
7.7200,192.3193508,16.55105491,1240.38577
7.7250,191.9967011,16.15149429,1240.381549
7.7300,191.6792525,15.75318744,1240.378642
7.7350,191.3678454,15.35590954,1240.376967
7.7400,191.062294,14.96066341,1240.376713
7.7450,190.7642157,14.56768579,1240.377832
7.7500,190.4745825,14.17673144,1240.380254
7.7550,190.193317,13.78789712,1240.383898
7.7600,189.9224433,13.40068487,1240.388564
7.7650,189.6637847,13.01529362,1240.394243
7.7700,189.4160317,12.6321074,1240.401091
7.7750,189.1807645,12.25029077,1240.408719
7.7800,188.9590087,11.87134904,1240.417435
7.7850,188.749861,11.49354559,1240.426918
7.7900,188.5525586,11.11746852,1240.437232
7.7950,188.3659079,10.74230058,1240.448281
7.8000,188.1883696,10.36777725,1240.460064
7.8050,188.0190561,9.994007167,1240.472609
7.8100,187.8580539,9.620705984,1240.48589
7.8150,187.7051662,9.249558921,1240.500246
7.8200,187.5592884,8.880315653,1240.515698
7.8250,187.4192162,8.512330612,1240.532159
7.8300,187.2864536,8.145738346,1240.549497
7.8350,187.1587426,7.780324221,1240.567914
7.8400,187.0362671,7.416681154,1240.587484
7.8450,186.9193685,7.053840456,1240.60795
7.8500,186.8075242,6.692321191,1240.629456
7.8550,186.7005747,6.331581147,1240.651928
7.8600,186.5993145,5.971002672,1240.675306
7.8650,186.5037355,5.610394224,1240.699596
7.8700,186.4142893,5.248675508,1240.724606
7.8750,186.3328259,4.88552291,1240.750265
7.8800,186.2584566,4.519896023,1240.77641
7.8850,186.1928923,4.15153869,1240.802971
7.8900,186.1373783,3.779897468,1240.829828
7.8950,186.0923468,3.404511586,1240.856894
7.9000,186.05945,3.024487522,1240.883932
7.9050,186.039378,2.640461888,1240.910936
7.9100,186.0325921,2.251921406,1240.937803
7.9150,186.0385288,1.858467083,1240.96446
7.9200,186.0570857,1.461300484,1240.991099
7.9250,186.0889855,1.059672018,1241.017513
7.9300,186.1328503,0.6549546176,1241.043891
7.9350,186.1892711,0.2476787831,1241.07035
7.9400,186.2572699,-0.1610322034,1241.09714
7.9450,186.3371261,-0.5704879689,1241.124276
7.9500,186.427314,-0.9789780546,1241.152086
7.9550,186.5284562,-1.38635437,1241.180567
7.9600,186.6387394,-1.790831642,1241.210036
7.9650,186.7579004,-2.192142631,1241.24047
7.9700,186.8861456,-2.589231684,1241.272057
7.9750,187.0211443,-2.980300826,1241.305096
7.9800,187.1645066,-3.366388012,1241.339319
7.9850,187.3143913,-3.746362684,1241.374962
7.9900,187.4697673,-4.120678523,1241.411961
7.9950,187.6309526,-4.487934735,1241.4505
8.0000,187.796712,-4.848167106,1241.490608
8.0050,187.9677611,-5.200584763,1241.532369
8.0100,188.1438506,-5.545790977,1241.575617
8.0150,188.3240666,-5.882421858,1241.620649
8.0200,188.5087411,-6.210767354,1241.667351
8.0250,188.6976839,-6.530464752,1241.715699
8.0300,188.8909342,-6.841245363,1241.765796
8.0350,189.0889248,-7.142020937,1241.81776
8.0400,189.2912068,-7.433508535,1241.871351
8.0450,189.4975971,-7.71504194,1241.926707
8.0500,189.7073998,-7.985920232,1241.983904
8.0550,189.9214335,-8.246020271,1242.042882
8.0600,190.1382983,-8.494762343,1242.103724
8.0650,190.3568959,-8.731992326,1242.166455
8.0700,190.5778548,-8.956841993,1242.231146
8.0750,190.7999633,-9.169786712,1242.297765
8.0800,191.0210903,-9.371864021,1242.366207
8.0850,191.242142,-9.56228011,1242.436498
8.0900,191.4623659,-9.740767808,1242.508667
8.0950,191.6807012,-9.907594092,1242.582631
8.1000,191.8973938,-10.06403547,1242.658185
8.1050,192.1112793,-10.21039361,1242.735326
8.1100,192.3215785,-10.34697763,1242.813985
8.1150,192.5268222,-10.47551747,1242.893935
8.1200,192.7278872,-10.59591105,1242.975164
8.1250,192.9247809,-10.70843544,1243.05753
8.1300,193.1160383,-10.81435061,1243.141016
8.1350,193.303267,-10.91256856,1243.225664
8.1400,193.4855366,-11.00431275,1243.31123
8.1450,193.6625693,-11.08899994,1243.397889
8.1500,193.8354207,-11.16833202,1243.48528
8.1550,194.0037673,-11.24223603,1243.573475
8.1600,194.1675129,-11.31110458,1243.662258
8.1650,194.3258128,-11.37577732,1243.751557
8.1700,194.4786352,-11.43616788,1243.841269
8.1750,194.6249937,-11.49365341,1243.931273
8.1800,194.7661717,-11.54820038,1244.021441
8.1850,194.9010834,-11.59979576,1244.111715
8.1900,195.0294778,-11.6493796,1244.20189
8.1950,195.1504519,-11.69787099,1244.291872
8.2000,195.2630098,-11.74424828,1244.381766
8.2050,195.3677837,-11.7899509,1244.471369
8.2100,195.4633855,-11.83494833,1244.560665
8.2150,195.5501771,-11.87915968,1244.649628
8.2200,195.6286607,-11.92303415,1244.738082
8.2250,195.6978669,-11.96735607,1244.825973
8.2300,195.7573942,-12.0128979,1244.913243
8.2350,195.8066509,-12.05985516,1244.999723
8.2400,195.8467274,-12.10890215,1245.085293
8.2450,195.8757818,-12.160984,1245.169887
8.2500,195.8943946,-12.21558799,1245.253516
8.2550,195.9019865,-12.27208787,1245.336322
8.2600,195.8994329,-12.33168058,1245.418154
8.2650,195.8865237,-12.39159267,1245.499424
8.2700,195.8634347,-12.45195694,1245.580138
8.2750,195.8311927,-12.51428897,1245.660065
8.2800,195.7892998,-12.57612717,1245.739542
8.2850,195.7385253,-12.63796609,1245.818545
8.2900,195.6806509,-12.69741844,1245.897369
8.2950,195.6150388,-12.75436127,1245.976121
8.3000,195.5435543,-12.80927142,1246.054649
8.3050,195.4667443,-12.86108315,1246.133044
8.3100,195.3838518,-12.90871844,1246.211618
8.3150,195.2975526,-12.95209823,1246.29024
8.3200,195.2078861,-12.9897893,1246.369254
8.3250,195.1168053,-13.02170876,1246.448511
8.3300,195.024331,-13.04726352,1246.528149
8.3350,194.9311432,-13.06645684,1246.608117
8.3400,194.838524,-13.07841964,1246.688621
8.3450,194.7476278,-13.08322211,1246.76951
8.3500,194.6589914,-13.08013038,1246.850882
8.3550,194.5737647,-13.0689068,1246.932668
8.3600,194.4929639,-13.05046179,1247.014688
8.3650,194.4170009,-13.02370196,1247.09709
8.3700,194.3464263,-12.98994025,1247.179558
8.3750,194.2820081,-12.948712,1247.262188
8.3800,194.2252467,-12.89902681,1247.345146
8.3850,194.1763092,-12.84132814,1247.42828
8.3900,194.1348836,-12.77603956,1247.511546
8.3950,194.1009539,-12.70208554,1247.59523
8.4000,194.0748317,-12.61891031,1247.679357
8.4050,194.0559242,-12.52681671,1247.764015
8.4100,194.0442855,-12.42478676,1247.849311
8.4150,194.0408861,-12.31330447,1247.935126
8.4200,194.0442159,-12.1921919,1248.021617
8.4250,194.0539981,-12.06149398,1248.108776
8.4300,194.0695747,-11.92073812,1248.196779
8.4350,194.0890666,-11.77147484,1248.285508
8.4400,194.1125375,-11.61339286,1248.375034
8.4450,194.1380229,-11.44708292,1248.46542
8.4500,194.1650346,-11.27347104,1248.556587
8.4550,194.1930477,-11.0928235,1248.648549
8.4600,194.2202527,-10.90552326,1248.741481
8.4650,194.246084,-10.71201683,1248.835418
8.4700,194.2688172,-10.51334269,1248.93045
8.4750,194.2883209,-10.30997525,1249.026446
8.4800,194.3028877,-10.10062917,1249.123832
8.4850,194.3135592,-9.888206695,1249.222046
8.4900,194.3185949,-9.670902648,1249.321566
8.4950,194.3183185,-9.449289115,1249.422137
8.5000,194.3137842,-9.226174719,1249.523314
8.5050,194.3034834,-9.001094479,1249.625175
8.5100,194.2880934,-8.774966883,1249.727479
8.5150,194.2669227,-8.548137936,1249.830142
8.5200,194.2373965,-8.321954752,1249.933106
8.5250,194.1993035,-8.096701105,1250.036184
8.5300,194.1536895,-7.871737171,1250.139425
8.5350,194.0996319,-7.647841491,1250.242715
8.5400,194.0366459,-7.425690148,1250.345882
8.5450,193.9655639,-7.204606239,1250.449006
8.5500,193.8873247,-6.985786925,1250.55185
8.5550,193.801171,-6.768800039,1250.654524
8.5600,193.70753,-6.553321079,1250.757059
8.5650,193.606976,-6.340343865,1250.859288
8.5700,193.4997678,-6.129802497,1250.961185
8.5750,193.3865365,-5.920677975,1251.062923
8.5800,193.2677999,-5.713136559,1251.164499
8.5850,193.1445843,-5.506484137,1251.265893
8.5900,193.0161083,-5.301701259,1251.367031
8.5950,192.8826268,-5.09788257,1251.46814
8.6000,192.7439742,-4.894903865,1251.569304
8.6050,192.6004929,-4.692126038,1251.670695
8.6100,192.4534582,-4.48936929,1251.772204
8.6150,192.30303,-4.287341223,1251.873628
8.6200,192.1501294,-4.084912989,1251.975123
8.6250,191.9958821,-3.881536084,1252.076658
8.6300,191.8410306,-3.677101569,1252.178172
8.6350,191.6865909,-3.470666548,1252.279747
8.6400,191.5318955,-3.261871482,1252.381423
8.6450,191.3772974,-3.050405805,1252.483267
8.6500,191.2235956,-2.837496839,1252.584954
8.6550,191.0700604,-2.622396264,1252.686837
8.6600,190.9179065,-2.403497912,1252.789031
8.6650,190.7657272,-2.181666788,1252.891564
8.6700,190.6139337,-1.957315949,1252.994387
8.6750,190.4618838,-1.729836117,1253.09759
8.6800,190.309659,-1.499714223,1253.201039
8.6850,190.1555959,-1.265951977,1253.305075
8.6900,190.0005736,-1.028665804,1253.409583
8.6950,189.8435236,-0.7889305032,1253.514438
8.7000,189.6840572,-0.5463675855,1253.619701
8.7050,189.5217909,-0.3012418131,1253.725324
8.7100,189.3560919,-0.05435559318,1253.83133
8.7150,189.1858876,0.1949636899,1253.937911
8.7200,189.010425,0.4452165991,1254.044899
8.7250,188.8289732,0.6960020609,1254.15242
8.7300,188.6405049,0.9475843804,1254.260589
8.7350,188.4446705,1.199909806,1254.369426
8.7400,188.2400689,1.452261646,1254.479145
8.7450,188.0273267,1.704123029,1254.589532
8.7500,187.8048559,1.955493896,1254.700812
8.7550,187.5717758,2.205810134,1254.812995
8.7600,187.3291477,2.454697348,1254.925895
8.7650,187.0776531,2.702779488,1255.039586
8.7700,186.8183116,2.949385742,1255.15377
8.7750,186.550794,3.195267773,1255.268803
8.7800,186.2753472,3.438509432,1255.384148
8.7850,185.9906856,3.679979282,1255.500222
8.7900,185.6968869,3.918347361,1255.616668
8.7950,185.3938899,4.153740543,1255.733648
8.8000,185.0808872,4.387258035,1255.851391
8.8050,184.7588571,4.61915394,1255.969838
8.8100,184.4278443,4.849757476,1256.089067
8.8150,184.0886582,5.078508259,1256.208932
8.8200,183.7440971,5.306800629,1256.329395
8.8250,183.3944578,5.534482582,1256.450457
8.8300,183.0394824,5.761470345,1256.572089
8.8350,182.6806311,5.98828404,1256.694386
8.8400,182.3190111,6.216615102,1256.817543
8.8450,181.9551563,6.446352356,1256.941421
8.8500,181.5893553,6.67840262,1257.066199
8.8550,181.2234642,6.912637928,1257.191667
8.8600,180.8578255,7.149429108,1257.317861
8.8650,180.4925268,7.388699445,1257.444824
8.8700,180.1286976,7.630767367,1257.57253
8.8750,179.7659338,7.874981707,1257.700855
8.8800,179.4039839,8.121463745,1257.829971
8.8850,179.0425928,8.369958007,1257.959875
8.8900,178.6822127,8.621025684,1258.090688
8.8950,178.3244198,8.873944835,1258.221979
8.9000,177.9709092,9.130557328,1258.353899
8.9050,177.6214239,9.389372155,1258.486162
8.9100,177.2759546,9.651300842,1258.618958
8.9150,176.9348389,9.917040863,1258.752454
8.9200,176.5978826,10.18650943,1258.886617
8.9250,176.2640951,10.45947573,1259.021601
8.9300,175.9343317,10.73569219,1259.157141
8.9350,175.6074437,11.01517946,1259.29337
8.9400,175.2842602,11.29740309,1259.430021
8.9450,174.9653705,11.5820625,1259.566951
8.9500,174.6502008,11.86988579,1259.704418
8.9550,174.3392063,12.15962475,1259.842012
8.9600,174.0328841,12.45159179,1259.979713
8.9650,173.7309258,12.74602789,1260.117587
8.9700,173.4327445,13.04309792,1260.255701
8.9750,173.1381672,13.34233581,1260.393968
8.9800,172.8468234,13.64307327,1260.532358
8.9850,172.5588274,13.94471233,1260.670757
8.9900,172.272931,14.2481589,1260.809623
8.9950,171.9902414,14.55295606,1260.948682
9.0000,171.7099781,14.85981192,1261.088288
9.0050,171.4322035,15.16908177,1261.228507
9.0100,171.1557969,15.47984598,1261.369274
9.0150,170.8812272,15.79262268,1261.510648
9.0200,170.6072633,16.1077957,1261.652892
9.0250,170.3322858,16.42499525,1261.796148
9.0300,170.0555035,16.74356453,1261.940336
9.0350,169.7751296,17.06312739,1262.085716
9.0400,169.4910837,17.38349683,1262.23217
9.0450,169.2022648,17.70407767,1262.379872
9.0500,168.9085126,18.02642067,1262.529307
9.0550,168.6102835,18.35000798,1262.680232
9.0600,168.3059458,18.67533618,1262.833135
9.0650,167.9950808,19.0020819,1262.987949
9.0700,167.6770614,19.3318128,1263.145343
9.0750,167.35121,19.66307474,1263.304896
9.0800,167.018555,19.9968902,1263.466787
9.0850,166.6781217,20.33411628,1263.631536
9.0900,166.3319924,20.673943,1263.798614
9.0950,165.979587,21.01666885,1263.968202
9.1000,165.6209331,21.36274136,1264.140475
9.1050,165.2569345,21.71171338,1264.315186
9.1100,164.8872334,22.06338303,1264.492389
9.1150,164.5112329,22.41696365,1264.671927
9.1200,164.1275117,22.77269629,1264.854234
9.1250,163.73667,23.13050994,1265.039163
9.1300,163.3393081,23.49056286,1265.226684
9.1350,162.9349386,23.8511464,1265.416405
9.1400,162.523392,24.2125399,1265.608602
9.1450,162.1041498,24.57314581,1265.803007
9.1500,161.6766563,24.93253901,1265.999657
9.1550,161.2398081,25.29076538,1266.19876
9.1600,160.7941007,25.64746398,1266.400302
9.1650,160.3392911,26.00283361,1266.604336
9.1700,159.8756176,26.35677967,1266.81087
9.1750,159.4038654,26.70969591,1267.019937
9.1800,158.9238025,27.06155079,1267.231556
9.1850,158.4359837,27.41349977,1267.446015
9.1900,157.9412393,27.76570273,1267.663103
9.1950,157.4391765,28.11877177,1267.883039
9.2000,156.9298388,28.47273223,1268.105933
9.2050,156.4144887,28.82893373,1268.331829
9.2100,155.8942958,29.18739622,1268.560456
9.2150,155.3689451,29.54801229,1268.791961
9.2200,154.8399647,29.91062981,1269.025972
9.2250,154.3078943,30.2755982,1269.262387
9.2300,153.7722171,30.64309524,1269.501571
9.2350,153.2339972,31.0126001,1269.743069
9.2400,152.6938908,31.38447499,1269.98699
9.2450,152.1517083,31.7580011,1270.233089
9.2500,151.6070385,32.13266779,1270.481382
9.2550,151.060344,32.50949424,1270.732078
9.2600,150.5103151,32.8870322,1270.98512
9.2650,149.9586701,33.26541905,1271.240021
9.2700,149.4065884,33.64509414,1271.496712
9.2750,148.8547437,34.02602223,1271.755076
9.2800,148.3023392,34.40900669,1272.015571
9.2850,147.7507013,34.79304519,1272.277567
9.2900,147.200364,35.17808428,1272.540941
9.2950,146.6509987,35.56427738,1272.80584
9.3000,146.1027252,35.95118117,1273.072096
9.3050,145.5546979,36.33815915,1273.339668
9.3100,145.0078295,36.72629625,1273.608809
9.3150,144.4611821,37.11500511,1273.879411
9.3200,143.9152938,37.50460322,1274.151524
9.3250,143.3717376,37.89538828,1274.424735
9.3300,142.8311726,38.28752377,1274.698923
9.3350,142.295288,38.68038193,1274.973348
9.3400,141.7638552,39.07380568,1275.248046
9.3450,141.237768,39.46781595,1275.522553
9.3500,140.7160825,39.86126852,1275.796807
9.3550,140.1979174,40.25347695,1276.070772
9.3600,139.6835845,40.64318678,1276.343935
9.3650,139.1727836,41.02943786,1276.616074
9.3700,138.6648855,41.41028281,1276.886739
9.3750,138.160222,41.78571818,1277.155833
9.3800,137.6574427,42.15454298,1277.42342
9.3850,137.1565114,42.51537365,1277.688903
9.3900,136.6560355,42.86780626,1277.952597
9.3950,136.1555359,43.21145469,1278.214501
9.4000,135.6540908,43.54523502,1278.474493
9.4050,135.1512592,43.86841206,1278.732557
9.4100,134.6461895,44.18121448,1278.989037
9.4150,134.1392566,44.48491689,1279.244192
9.4200,133.6308673,44.77856657,1279.497541
9.4250,133.1206384,45.06298336,1279.749477
9.4300,132.6081147,45.33810425,1280.000023
9.4350,132.0927668,45.60463658,1280.249647
9.4400,131.5740594,45.86167713,1280.498162
9.4450,131.0519966,46.11138875,1280.74636
9.4500,130.526107,46.35371955,1280.994443
9.4550,129.9967235,46.58864513,1281.242229
9.4600,129.4628553,46.81726569,1281.490426
9.4650,128.9242624,47.04032866,1281.73949
9.4700,128.3803079,47.25822113,1281.989731
9.4750,127.8298105,47.47261267,1282.242233
9.4800,127.274094,47.68388196,1282.496662
9.4850,126.7130255,47.89213196,1282.7532
9.4900,126.1472792,48.09773989,1283.011888
9.4950,125.5765428,48.30153758,1283.273179
9.5000,125.0009244,48.50364438,1283.537134
9.5050,124.420468,48.70457983,1283.804007
9.5100,123.8352486,48.90473173,1284.073973
9.5150,123.2455957,49.1053505,1284.347429
9.5200,122.6512797,49.30557169,1284.624112
9.5250,122.0519443,49.50645231,1284.904694
9.5300,121.4478496,49.7081917,1285.189104
9.5350,120.8388545,49.91060244,1285.477502
9.5400,120.224784,50.11393685,1285.769989
9.5450,119.6047166,50.31826737,1286.067028
9.5500,118.9802661,50.52410032,1286.368174
9.5550,118.3508308,50.72986128,1286.673064
9.5600,117.716452,50.9357652,1286.981866
9.5650,117.0778078,51.14126435,1287.294242
9.5700,116.4328397,51.34543345,1287.610631
9.5750,115.7822475,51.54817973,1287.930788
9.5800,115.1274112,51.7494488,1288.254182
9.5850,114.4666292,51.94996172,1288.581831
9.5900,113.8006584,52.14997812,1288.913637
9.5950,113.1295156,52.34990871,1289.249726
9.6000,112.4541363,52.54990256,1289.589855
9.6050,111.7748317,52.75091882,1289.934372
9.6100,111.0920107,52.95313731,1290.28316
9.6150,110.4074574,53.15720702,1290.635948
9.6200,109.7221489,53.36359025,1290.992363
9.6250,109.0351926,53.57215649,1291.352797
9.6300,108.3481623,53.78288146,1291.716496
9.6350,107.6609767,53.99597987,1292.083589
9.6400,106.973742,54.21254981,1292.454444
9.6450,106.2868008,54.43248016,1292.828911
9.6500,105.6024429,54.65555848,1293.205812
9.6550,104.92074,54.88315419,1293.58578
9.6600,104.2438593,55.1151407,1293.967722
9.6650,103.5717246,55.35239089,1294.352051
9.6700,102.9055639,55.5962751,1294.738591
9.6750,102.2462451,55.84737342,1295.127215
9.6800,101.594067,56.10508591,1295.517493
9.6850,100.9500153,56.37085777,1295.909598
9.6900,100.3148978,56.64472529,1296.303154
9.6950,99.68986523,56.92683516,1296.697704
9.7000,99.07539807,57.21819711,1297.093354
9.7050,98.47175998,57.51904175,1297.489949
9.7100,97.87934653,57.82882144,1297.887134
9.7150,97.29782195,58.14671934,1298.284796
9.7200,96.72747193,58.47280445,1298.682776
9.7250,96.16705948,58.80661089,1299.081441
9.7300,95.61753758,59.14679672,1299.479765
9.7350,95.07885818,59.4938572,1299.877969
9.7400,94.54990067,59.847095,1300.276262
9.7450,94.03137662,60.20460152,1300.673398
9.7500,93.52307386,60.56534329,1301.068836
9.7550,93.02287547,60.92839312,1301.463244
9.7600,92.53172493,61.29187856,1301.855142
9.7650,92.04837036,61.652952,1302.243802
9.7700,91.57223636,62.0108782,1302.629237
9.7750,91.10325748,62.36312393,1303.010209
9.7800,90.64031334,62.70822164,1303.38655
9.7850,90.18266118,63.04501037,1303.758065
9.7900,89.72909791,63.37278637,1304.124987
9.7950,89.27892673,63.68991627,1304.48673
9.8000,88.83122486,63.99651787,1304.843692
9.8050,88.38584503,64.29166682,1305.195519
9.8100,87.94213649,64.57398871,1305.541902
9.8150,87.50004889,64.84338984,1305.882703
9.8200,87.05897706,65.10047789,1306.218431
9.8250,86.61774838,65.34431329,1306.549325
9.8300,86.17686983,65.57556509,1306.875238
9.8350,85.73683403,65.79497149,1307.196285
9.8400,85.29602088,66.0027479,1307.513365
9.8450,84.85561084,66.19938918,1307.826045
9.8500,84.41462372,66.3846117,1308.13466
9.8550,83.97355436,66.55958683,1308.439611
9.8600,83.53342687,66.72594882,1308.740922
9.8650,83.09302726,66.88348154,1309.039217
9.8700,82.65344084,67.032788,1309.334179
9.8750,82.21396996,67.17468496,1309.626467
9.8800,81.77470141,67.30958613,1309.91614
9.8850,81.33659873,67.43842526,1310.203103
9.8900,80.89904703,67.55962124,1310.486796
9.8950,80.46362371,67.67478007,1310.766938
9.9000,80.02986974,67.78339639,1311.043444
9.9050,79.59938329,67.88551802,1311.315322
9.9100,79.17221423,67.98199876,1311.582817
9.9150,78.74785659,68.07187427,1311.84564
9.9200,78.32692892,68.15495007,1312.103249
9.9250,77.91043975,68.23216851,1312.355371
9.9300,77.4981964,68.30376325,1312.602167
9.9350,77.0919724,68.3703933,1312.842911
9.9400,76.69322489,68.43080644,1313.07597
9.9450,76.30206865,68.48546234,1313.301525
9.9500,75.91771773,68.53397448,1313.519861
9.9550,75.54113065,68.57612857,1313.73028
9.9600,75.17051364,68.61213028,1313.934087
9.9650,74.80516527,68.64118232,1314.131256
9.9700,74.44441419,68.66218957,1314.321901
9.9750,74.08609382,68.67507914,1314.507452
9.9800,73.73006427,68.68117212,1314.688806
9.9850,73.37544836,68.67832805,1314.865549
9.9900,73.02148231,68.66794865,1315.038856
9.9950,72.66773527,68.64983566,1315.208993
10.0000,72.31391178,68.62432815,1315.376513
10.0050,71.95870288,68.59157645,1315.542511
10.0100,71.60192107,68.55307755,1315.707768
10.0150,71.24204545,68.50879876,1315.873546
10.0200,70.87875455,68.45978092,1316.040568
10.0250,70.51161124,68.40603536,1316.209182
10.0300,70.1402652,68.34958908,1316.380701
10.0350,69.76405729,68.29055355,1316.555631
10.0400,69.38288048,68.22861704,1316.73387
10.0450,68.99602884,68.16427894,1316.916204
10.0500,68.60317908,68.09875917,1317.103563
10.0550,68.20558393,68.03221414,1317.295187
10.0600,67.80179481,67.96534322,1317.492589
10.0650,67.39238428,67.89905314,1317.695732
10.0700,66.97836218,67.83352819,1317.904013
10.0750,66.55999812,67.77013081,1318.118007
10.0800,66.13829407,67.70938061,1318.337264
10.0850,65.71410477,67.65175652,1318.561431
10.0900,65.28812652,67.59757043,1318.790055
10.0950,64.86148663,67.54750758,1319.022934
10.1000,64.43389215,67.50114072,1319.260061
10.1050,64.00600004,67.45977355,1319.501577
10.1100,63.57808092,67.42509913,1319.748204
10.1150,63.15040057,67.39731061,1319.999781
10.1200,62.72331135,67.37805471,1320.256885
10.1250,62.29946211,67.36891967,1320.518439
10.1300,61.87805406,67.36996375,1320.785167
10.1350,61.45877197,67.3815746,1321.057441
10.1400,61.04380699,67.40498601,1321.334432
10.1450,60.63247278,67.44104267,1321.617002
10.1500,60.22492634,67.49138177,1321.905884
10.1550,59.82150963,67.55640254,1322.200993
10.1600,59.42192803,67.63551152,1322.50243
10.1650,59.0266293,67.72921816,1322.810088
10.1700,58.63664267,67.83789674,1323.123393
10.1750,58.25161583,67.96028565,1323.44203
10.1800,57.87052057,68.095518,1323.766275
10.1850,57.49315489,68.24197753,1324.095469
10.1900,57.11970797,68.39871708,1324.428965
10.1950,56.7485766,68.56401052,1324.767266
10.2000,56.37922084,68.73645361,1325.109973
10.2050,56.01184811,68.91577626,1325.456639
10.2100,55.64636129,69.09913907,1325.80583
10.2150,55.28242616,69.28576623,1326.157391
10.2200,54.91861703,69.47369291,1326.511384
10.2250,54.55497999,69.66103823,1326.866714
10.2300,54.19154288,69.84640674,1327.22248
10.2350,53.82668016,70.02740703,1327.578491
10.2400,53.45889889,70.20312281,1327.935383
10.2450,53.08829059,70.3726538,1328.292604
10.2500,52.71476005,70.5348379,1328.649414
10.2550,52.33745159,70.68854008,1329.005765
10.2600,51.95645313,70.8327182,1329.361054
10.2650,51.5734384,70.9672565,1329.713845
10.2700,51.18675601,71.09128552,1330.064881
10.2750,50.79779697,71.20436421,1330.4128
10.2800,50.40674242,71.30498595,1330.75657
10.2850,50.01319073,71.39393004,1331.096883
10.2900,49.61734263,71.47007119,1331.433044
10.2950,49.21920681,71.53248784,1331.764558
10.3000,48.81906224,71.58027364,1332.090766
10.3050,48.41637352,71.61276993,1332.411591
10.3100,48.01214196,71.62886649,1332.725819
10.3150,47.60774333,71.62847146,1333.03204
10.3200,47.20249273,71.60991059,1333.329986
10.3250,46.79654335,71.57325487,1333.619678
10.3300,46.38996681,71.51776405,1333.9008
10.3350,45.98347125,71.44313768,1334.172497
10.3400,45.57849373,71.34942109,1334.433844
10.3450,45.17494851,71.23791706,1334.685463
10.3500,44.773929,71.10772751,1334.926059
10.3550,44.37610361,70.95972051,1335.155585
10.3600,43.98272761,70.79357112,1335.372771
10.3650,43.59366639,70.60948703,1335.577829
10.3700,43.20904577,70.40864242,1335.771359
10.3750,42.82924935,70.19014218,1335.952587
10.3800,42.45480235,69.95464135,1336.121462
10.3850,42.08611417,69.70301696,1336.278288
10.3900,41.72427057,69.4369285,1336.423149
10.3950,41.37049398,69.15951688,1336.55666
10.4000,41.02519131,68.87164074,1336.679174
10.4050,40.6894213,68.57504107,1336.79075
10.4100,40.36451926,68.27217518,1336.89164
10.4150,40.05126473,67.96559652,1336.982533
10.4200,39.75190377,67.65708036,1337.062704
10.4250,39.4664988,67.34720198,1337.132355
10.4300,39.19688456,67.03844554,1337.191199
10.4350,38.94399816,66.73243674,1337.239362
10.4400,38.70830283,66.42998624,1337.276831
10.4450,38.4899429,66.13203861,1337.304244
10.4500,38.29065656,65.83960293,1337.320471
10.4550,38.11059382,65.553413,1337.325854
10.4600,37.94982342,65.27363912,1337.320388
10.4650,37.80919694,65.00058703,1337.303482
10.4700,37.68777864,64.73531628,1337.276439
10.4750,37.58623026,64.47817783,1337.238911
10.4800,37.50519732,64.22900332,1337.190388
10.4850,37.44497042,63.98845894,1337.130791
10.4900,37.40478169,63.75743954,1337.061403
10.4950,37.38472284,63.53486074,1336.981429
10.5000,37.38502743,63.32137159,1336.891088
10.5050,37.40432849,63.11493993,1336.790465
10.5100,37.44145493,62.91567033,1336.680614
10.5150,37.49683855,62.72379933,1336.561119
10.5200,37.57031163,62.53803867,1336.431369
10.5250,37.66155712,62.35710897,1336.291012
10.5300,37.76876382,62.18009652,1336.141125
10.5350,37.89200992,62.00697901,1335.981596
10.5400,38.0320328,61.83696156,1335.811192
10.5450,38.18731049,61.6693676,1335.630678
10.5500,38.35764393,61.50325528,1335.439832
10.5550,38.54216518,61.33809455,1335.239023
10.5600,38.73953898,61.17161993,1335.028207
10.5650,38.94892785,61.00324206,1334.807905
10.5700,39.16995851,60.83232802,1334.578038
10.5750,39.40276525,60.65851877,1334.338404
10.5800,39.64511781,60.47884746,1334.089353
10.5850,39.89641478,60.29241135,1333.831149
10.5900,40.15519939,60.09780756,1333.564303
10.5950,40.42050309,59.89481016,1333.289483
10.6000,40.69153238,59.68250693,1333.006935
10.6050,40.96866735,59.46024074,1332.716015
10.6100,41.25032918,59.22705775,1332.417417
10.6150,41.53443188,58.98260535,1332.112945
10.6200,41.82166188,58.72816299,1331.802535
10.6250,42.11281278,58.46306078,1331.485103
10.6300,42.40745413,58.18798957,1331.161438
10.6350,42.70474613,57.90277905,1330.8321
10.6400,43.00436137,57.60836394,1330.497715
10.6450,43.30686459,57.3038531,1330.157556
10.6500,43.61211041,56.99048864,1329.812085
10.6550,43.91998773,56.66877781,1329.461681
10.6600,44.23004212,56.33890825,1329.106738
10.6650,44.54387323,56.00156495,1328.74638
10.6700,44.86086182,55.65645177,1328.380998
10.6750,45.18150305,55.3046354,1328.010729
10.6800,45.50481986,54.94745376,1327.637072
10.6850,45.83183752,54.58636059,1327.259705
10.6900,46.16236653,54.22128383,1326.878966
10.6950,46.49599911,53.85196236,1326.494967
10.7000,46.83416784,53.48018031,1326.107443
10.7050,47.17588822,53.10573115,1325.71712
10.7100,47.52072388,52.72811276,1325.32425
10.7150,47.86963124,52.3480126,1324.928519
10.7200,48.22164742,51.96551398,1324.530776
10.7250,48.57617529,51.58164123,1324.132072
10.7300,48.93286278,51.19609223,1323.732678
10.7350,49.29062838,50.80976916,1323.333735
10.7400,49.64923642,50.42271125,1322.935506
10.7450,50.01041306,50.0365769,1322.537297
10.7500,50.37323402,49.65183349,1322.140118
10.7550,50.73749474,49.26883728,1321.744153
10.7600,51.10377205,48.88848513,1321.349257
10.7650,51.47146677,48.51066605,1320.955729
10.7700,51.84066898,48.13485465,1320.56332
10.7750,52.21206157,47.76184975,1320.171764
10.7800,52.58478882,47.39121499,1319.781272
10.7850,52.95831671,47.02381835,1319.392685
10.7900,53.33327767,46.65924772,1319.005303
10.7950,53.70881847,46.29646983,1318.619259
10.8000,54.08472898,45.93528977,1318.234503
10.8050,54.46036573,45.57527689,1317.851303
10.8100,54.83515338,45.21576235,1317.469779
10.8150,55.2079383,44.85508497,1317.090074
10.8200,55.57740411,44.49286598,1316.713106
10.8250,55.94205558,44.12833416,1316.339406
10.8300,56.30133154,43.760766,1315.96922
10.8350,56.65380613,43.38995654,1315.603412
10.8400,56.99772313,43.01548479,1315.242988
10.8450,57.33333783,42.63704715,1314.887679
10.8500,57.66017924,42.25491833,1314.537613
10.8550,57.97836285,41.86801709,1314.192325
10.8600,58.28847277,41.47854552,1313.852087
10.8650,58.58953734,41.08569941,1313.517322
10.8700,58.88176956,40.68898604,1313.187692
10.8750,59.16379234,40.28816664,1312.864007
10.8800,59.43606439,39.88494809,1312.546545
10.8850,59.69921684,39.47992792,1312.235033
10.8900,59.95373749,39.07344161,1311.929121
10.8950,60.20012926,38.66488093,1311.628177
10.9000,60.43763422,38.25444208,1311.332668
10.9050,60.6655047,37.8420353,1311.043176
10.9100,60.88397035,37.42780053,1310.759585
10.9150,61.09391652,37.01172866,1310.480988
10.9200,61.29468773,36.59277941,1310.207496
10.9250,61.48598278,36.17039878,1309.939133
10.9300,61.66769632,35.74434001,1309.675679
10.9350,61.84016401,35.31471083,1309.417061
10.9400,62.0029602,34.88099745,1309.163311
10.9450,62.15606946,34.44392435,1308.914768
10.9500,62.29906875,34.00351056,1308.671857
10.9550,62.43272401,33.56120581,1308.434492
10.9600,62.55765131,33.11859647,1308.202914
10.9650,62.6741204,32.67676452,1307.977371
10.9700,62.78384382,32.23546502,1307.756594
10.9750,62.88634658,31.79717934,1307.541623
10.9800,62.98384626,31.3617352,1307.330908
10.9850,63.07540942,30.92951861,1307.125142
10.9900,63.16144346,30.50044092,1306.923907
10.9950,63.2437195,30.0747842,1306.726358
11.0000,63.32154477,29.65222556,1306.532768
11.0050,63.3955004,29.23290063,1306.342897
11.0100,63.4673866,28.81774856,1306.155943
11.0150,63.53611176,28.40606339,1305.97237
11.0200,63.60193603,27.99718974,1305.791803
11.0250,63.66659529,27.59263893,1305.613669
11.0300,63.7307611,27.1924415,1305.437472
11.0350,63.79618367,26.7962895,1305.262135
11.0400,63.86312127,26.40544288,1305.087884
11.0450,63.93113347,26.0183859,1304.91441
11.0500,64.00078191,25.6345028,1304.741321
11.0550,64.07247849,25.25467368,1304.56848
11.0600,64.14688077,24.87901038,1304.395648
11.0650,64.22494762,24.50741311,1304.222225
11.0700,64.30702435,24.1399822,1304.048079
11.0750,64.39359899,23.77577284,1303.87264
11.0800,64.4842284,23.41494255,1303.696374
11.0850,64.57890874,23.0558715,1303.518662
11.0900,64.67766328,22.69923765,1303.339634
11.0950,64.780251,22.34471583,1303.159334
11.1000,64.88669712,21.99226189,1302.977781
11.1050,64.99706328,21.64172523,1302.794976
11.1100,65.11123547,21.29263652,1302.610887
11.1150,65.22885163,20.94541221,1302.425912
11.1200,65.35048899,20.59954396,1302.239406
11.1250,65.47643668,20.25715117,1302.052024
11.1300,65.60749269,19.91836558,1301.863293
11.1350,65.7443156,19.58343237,1301.672792
11.1400,65.88655125,19.2516228,1301.480709
11.1450,66.03393412,18.92323769,1301.287201
11.1500,66.18584228,18.59776872,1301.092728
11.1550,66.34279829,18.27695931,1300.89736
11.1600,66.50291774,17.96020127,1300.702077
11.1650,66.66632899,17.64681731,1300.506473
11.1700,66.83363266,17.3383182,1300.310447
11.1750,67.00437474,17.03416533,1300.114044
11.1800,67.17953771,16.73396141,1299.916616
11.1850,67.35909469,16.43790794,1299.718121
11.1900,67.54369605,16.14504475,1299.518014
11.1950,67.73209003,15.85646362,1299.317391
11.2000,67.92460781,15.57142805,1299.115871
11.2050,68.12247117,15.28957958,1298.912699
11.2100,68.32598954,15.01068172,1298.707755
11.2150,68.53552588,14.73460172,1298.500984
11.2200,68.75032247,14.46081353,1298.292659
11.2250,68.96990504,14.19061643,1298.083407
11.2300,69.19392674,13.92169437,1297.872819
11.2350,69.42109484,13.65305542,1297.661255
11.2400,69.65145308,13.38548423,1297.448818
11.2450,69.88414724,13.11766234,1297.235381
11.2500,70.11852641,12.84925162,1297.021199
11.2550,70.35454486,12.57900398,1296.805966
11.2600,70.59143942,12.3053443,1296.589598
11.2650,70.82904605,12.02819524,1296.372098
11.2700,71.06625585,11.74795541,1296.154065
11.2750,71.30491768,11.46307444,1295.93415
11.2800,71.5428446,11.17412099,1295.713694
11.2850,71.78161834,10.88000731,1295.491677
11.2900,72.02122407,10.58243094,1295.268585
11.2950,72.26067069,10.28056993,1295.044751
11.3000,72.50087144,9.976015394,1294.820078
11.3050,72.74230704,9.668500378,1294.594275
11.3100,72.98443147,9.358573532,1294.367572
11.3150,73.22806502,9.046374612,1294.139458
11.3200,73.47404311,8.731790145,1293.909318
11.3250,73.72106107,8.414397875,1293.677659
11.3300,73.96960681,8.093689833,1293.444168
11.3350,74.22056778,7.769447485,1293.208269
11.3400,74.47346575,7.440717748,1292.969967
11.3450,74.72829241,7.107167823,1292.729256
11.3500,74.98587572,6.769096566,1292.485697
11.3550,75.24660129,6.425409025,1292.238975
11.3600,75.50982543,6.076720066,1291.989486
11.3650,75.77492854,5.722487038,1291.737456
11.3700,76.04245265,5.363115322,1291.482494
11.3750,76.31035858,4.999205337,1291.225849
11.3800,76.57961044,4.631816774,1290.967109
11.3850,76.84935613,4.259918617,1290.706518
11.3900,77.12019124,3.883751861,1290.443831
11.3950,77.39062629,3.503269307,1290.179974
11.4000,77.66049317,3.119139538,1289.915228
11.4050,77.93011863,2.732417507,1289.649647
11.4100,78.20003077,2.343302117,1289.383159
11.4150,78.47063884,1.95217892,1289.115808
11.4200,78.74199309,1.560415155,1288.84811
11.4250,79.01449272,1.168151828,1288.579994
11.4300,79.28713067,0.7762448207,1288.312248
11.4350,79.55882221,0.3845367093,1288.045555
11.4400,79.830522,-0.00561115494,1287.779726
11.4450,80.10153411,-0.3937123545,1287.515245
11.4500,80.37176192,-0.7796179241,1287.252008
11.4550,80.63949969,-1.163738691,1286.990786
11.4600,80.9063508,-1.546208952,1286.730754
11.4650,81.17179916,-1.926084192,1286.472315
11.4700,81.43585485,-2.304281418,1286.215333
11.4750,81.69824944,-2.679878414,1285.960012
11.4800,81.95900715,-3.051790564,1285.706597
11.4850,82.21861779,-3.418952455,1285.455015
11.4900,82.47668656,-3.780550039,1285.205505
11.4950,82.73411373,-4.13775276,1284.957414
11.5000,82.9924848,-4.489815105,1284.71016
11.5050,83.25180159,-4.835965091,1284.46379
11.5100,83.51093217,-5.176557937,1284.218835
11.5150,83.76926927,-5.512864598,1283.975285
11.5200,84.02704463,-5.844546334,1283.733138
11.5250,84.28349735,-6.17276762,1283.492726
11.5300,84.5378903,-6.497848704,1283.254391
11.5350,84.79158791,-6.819673685,1283.017625
11.5400,85.04430849,-7.139314747,1282.78244
11.5450,85.29647257,-7.45607943,1282.548929
11.5500,85.54837781,-7.770239634,1282.316863
11.5550,85.79913999,-8.082420393,1282.086506
11.5600,86.05108423,-8.391388313,1281.856994
11.5650,86.30376689,-8.697498152,1281.628361
11.5700,86.5581443,-9.000915693,1281.400121
11.5750,86.81273879,-9.300707064,1281.172991
11.5800,87.06879187,-9.597495821,1280.946177
11.5850,87.32530391,-9.890698539,1280.720022
11.5900,87.58115777,-10.1817998,1280.494621
11.5950,87.83642892,-10.47053801,1280.269755
11.6000,88.09083052,-10.75842084,1280.045241
11.6050,88.34435274,-11.04414739,1279.821238
11.6100,88.59717833,-11.33077018,1279.597162
11.6150,88.84869299,-11.61817419,1279.37334
11.6200,89.09745991,-11.90573546,1279.15066
11.6250,89.34312611,-12.19413688,1278.929209
11.6300,89.58627562,-12.48235748,1278.708874
11.6350,89.82637165,-12.76962374,1278.490135
11.6400,90.0645655,-13.05544651,1278.272672
11.6450,90.3001322,-13.33937879,1278.056712
11.6500,90.53292397,-13.62071537,1277.842488
11.6550,90.76153754,-13.8994762,1277.630428
11.6600,90.98544239,-14.17676504,1277.420565
11.6650,91.2039824,-14.45143818,1277.2132
11.6700,91.41647412,-14.72379357,1277.0085
11.6750,91.62297689,-14.99365874,1276.806325
11.6800,91.82237342,-15.26083066,1276.607052
11.6850,92.01570474,-15.52396969,1276.410463
11.6900,92.2025644,-15.78318022,1276.216659
11.6950,92.38464423,-16.03598072,1276.025333
11.7000,92.56184562,-16.28341373,1275.836319
11.7050,92.73386108,-16.5245929,1275.649974
11.7100,92.90077412,-16.75800204,1275.466402
11.7150,93.06183577,-16.983503,1275.285869
11.7200,93.21792783,-17.19989446,1275.1081
11.7250,93.36811392,-17.4081759,1274.933375
11.7300,93.51401345,-17.60735749,1274.761185
11.7350,93.656751,-17.79760369,1274.591055
11.7400,93.79532683,-17.97919282,1274.42343
11.7450,93.93050793,-18.15279135,1274.257992
11.7500,94.06246701,-18.31750933,1274.095011
11.7550,94.19252123,-18.47466861,1273.933897
11.7600,94.32083967,-18.62437145,1273.774715
11.7650,94.44830163,-18.76623014,1273.617334
11.7700,94.57451205,-18.89986064,1273.462122
11.7750,94.70103168,-19.02557206,1273.308564
11.7800,94.82789352,-19.14375202,1273.15655
11.7850,94.95492101,-19.25601569,1273.006023
11.7900,95.08316898,-19.36237318,1272.856621
11.7950,95.212957,-19.46262054,1272.708158
11.8000,95.34332327,-19.55683053,1272.560885
11.8050,95.47471112,-19.64597139,1272.414583
11.8100,95.6080707,-19.72943209,1272.268728
11.8150,95.74564449,-19.80754929,1272.122408
11.8200,95.88725993,-19.88098797,1271.975529
11.8250,96.03434661,-19.94962783,1271.827468
11.8300,96.18766049,-20.01208012,1271.678169
11.8350,96.34776992,-20.0684321,1271.527355
11.8400,96.51412978,-20.11818045,1271.375255
11.8450,96.68726569,-20.16157364,1271.221673
11.8500,96.86631627,-20.1993654,1271.066812
11.8550,97.0517069,-20.23235211,1270.910294
11.8600,97.24077988,-20.26088344,1270.753074
11.8650,97.43344124,-20.28561172,1270.595146
11.8700,97.62811039,-20.3078834,1270.436819
11.8750,97.82488515,-20.32836365,1270.277913
11.8800,98.02229547,-20.3485369,1270.118822
11.8850,98.21963805,-20.36869462,1269.9598
11.8900,98.41707811,-20.38969944,1269.800604
11.8950,98.61340326,-20.41111093,1269.641858
11.9000,98.80823776,-20.43374868,1269.483717
11.9050,98.99941128,-20.45855713,1269.326807
11.9100,99.18547621,-20.48295621,1269.172153
11.9150,99.36673957,-20.50715086,1269.019748
11.9200,99.54257825,-20.5314909,1268.869646
11.9250,99.71279453,-20.55586161,1268.721941
11.9300,99.87534928,-20.58061365,1268.577247
11.9350,100.029393,-20.60670877,1268.435489
11.9400,100.1715374,-20.63379892,1268.297791
11.9450,100.3026589,-20.66228312,1268.163757
11.9500,100.4213424,-20.6921185,1268.033767
11.9550,100.5287383,-20.7239205,1267.907288
11.9600,100.6249871,-20.75724116,1267.784365
11.9650,100.7103598,-20.79120486,1267.665099
11.9700,100.7851374,-20.8257689,1267.549518
11.9750,100.8504171,-20.85908231,1267.437559
11.9800,100.9077535,-20.89152377,1267.328742
11.9850,100.9577903,-20.92145863,1267.223019
11.9900,101.0009522,-20.94827433,1267.120271
11.9950,101.0382596,-20.97190275,1267.020052
12.0000,101.0706907,-20.99061893,1266.922327
12.0050,101.0976189,-21.00562956,1266.82697
12.0100,101.118823,-21.01736238,1266.733806
12.0150,101.1353941,-21.02645399,1266.642354
12.0200,101.1471674,-21.03441579,1266.552407
12.0250,101.1534723,-21.04215995,1266.463893
12.0300,101.152718,-21.05134771,1266.377105
12.0350,101.1449574,-21.06208157,1266.292065
12.0400,101.1304086,-21.07418537,1266.208707
12.0450,101.1087868,-21.08835143,1266.12709
12.0500,101.080027,-21.10542452,1266.04717
12.0550,101.0434712,-21.12391206,1265.969247
12.0600,101.0005283,-21.14351784,1265.892849
12.0650,100.9509669,-21.16563799,1265.817814
12.0700,100.8954092,-21.18899692,1265.744079
12.0750,100.8340619,-21.21419841,1265.671389
12.0800,100.767608,-21.24172929,1265.599483
12.0850,100.6975616,-21.27036255,1265.527893
12.0900,100.6223868,-21.30035302,1265.457188
12.0950,100.5431328,-21.33114265,1265.387034
12.1000,100.4608656,-21.36183846,1265.317249
12.1050,100.3767136,-21.39273358,1265.247233
12.1100,100.2922561,-21.42292642,1265.176582
12.1150,100.206134,-21.45050059,1265.106078
12.1200,100.1202848,-21.47401487,1265.035363
12.1250,100.0337953,-21.49312676,1264.964719
12.1300,99.94801877,-21.50809403,1264.893585
12.1350,99.86195111,-21.51782678,1264.822513
12.1400,99.77556941,-21.52260697,1264.751385
12.1450,99.68850225,-21.52231476,1264.680291
12.1500,99.60083146,-21.51617479,1264.609234
12.1550,99.51187923,-21.50465088,1264.538455
12.1600,99.42250232,-21.48871806,1264.46745
12.1650,99.33215845,-21.46761054,1264.396454
12.1700,99.24069603,-21.44183437,1264.325604
12.1750,99.14707419,-21.41176616,1264.255255
12.1800,99.05244127,-21.37689054,1264.185161
12.1850,98.95604436,-21.33820071,1264.115333
12.1900,98.85882749,-21.29497299,1264.045678
12.1950,98.76026666,-21.2490147,1263.976074
12.2000,98.65966304,-21.1996594,1263.906677
12.2050,98.55740651,-21.14773336,1263.837305
12.2100,98.45376178,-21.09402503,1263.767656
12.2150,98.34804022,-21.03845799,1263.697928
12.2200,98.23977583,-20.98154984,1263.628276
12.2250,98.12978922,-20.92286691,1263.558377
12.2300,98.01760542,-20.86189712,1263.488489
12.2350,97.9038432,-20.79898467,1263.418467
12.2400,97.79072862,-20.73359719,1263.34766
12.2450,97.67747582,-20.6650578,1263.276498
12.2500,97.56491547,-20.59398528,1263.20469
12.2550,97.45246333,-20.51868943,1263.132665
12.2600,97.34161098,-20.44006565,1263.059697
12.2650,97.23186945,-20.35831038,1262.985961
12.2700,97.12298674,-20.27401351,1262.911475
12.2750,97.01642441,-20.18891654,1262.835437
12.2800,96.9132302,-20.10295474,1262.757672
12.2850,96.81389431,-20.01726391,1262.677899
12.2900,96.72000831,-19.93210485,1262.595656
12.2950,96.6341099,-19.8478754,1262.510158
12.3000,96.5566964,-19.76621201,1262.421054
12.3050,96.49097201,-19.68643981,1262.327547
12.3100,96.43977284,-19.60952617,1262.228814
12.3150,96.40528473,-19.53579548,1262.123979
12.3200,96.38804476,-19.46436418,1262.013272
12.3250,96.39063763,-19.3968685,1261.895599
12.3300,96.41517921,-19.33311089,1261.770293
12.3350,96.46247116,-19.27425926,1261.637023
12.3400,96.53258901,-19.22164424,1261.495611
12.3450,96.62570046,-19.17571738,1261.345872
12.3500,96.7415634,-19.13733048,1261.187926
12.3550,96.88057014,-19.10809453,1261.021477
12.3600,97.04083797,-19.08890542,1260.847049
12.3650,97.22129574,-19.07926526,1260.665245
12.3700,97.42229911,-19.08139552,1260.475616
12.3750,97.64220367,-19.09486359,1260.27903
12.3800,97.88091293,-19.11956365,1260.075565
12.3850,98.13711843,-19.15663273,1259.865733
12.3900,98.41199493,-19.20589592,1259.649315
12.3950,98.70481137,-19.26875105,1259.426557
12.4000,99.0154532,-19.34498494,1259.19763
12.4050,99.34311117,-19.43387331,1258.96325
12.4100,99.68805341,-19.53590849,1258.723479
12.4150,100.0510664,-19.65222786,1258.478057
12.4200,100.4313223,-19.78353449,1258.227329
12.4250,100.8302822,-19.92986442,1257.970991
12.4300,101.2477589,-20.09006558,1257.709424
12.4350,101.6839584,-20.26481242,1257.442673
12.4400,102.1395282,-20.45355654,1257.170724
12.4450,102.6134275,-20.65653399,1256.89406
12.4500,103.1069411,-20.87462182,1256.612368
12.4550,103.618139,-21.105259,1256.32661
12.4600,104.1451431,-21.34817663,1256.03747
12.4650,104.6859936,-21.60351899,1255.74553
12.4700,105.237769,-21.86970395,1255.451917
12.4750,105.7993345,-22.14522354,1255.157178
12.4800,106.3675814,-22.43129909,1254.861948
12.4850,106.942199,-22.72704032,1254.566443
12.4900,107.5208216,-23.03233736,1254.271324
12.4950,108.1020763,-23.34496045,1253.977252
12.5000,108.6840973,-23.66500485,1253.684789
12.5050,109.2661412,-23.99101433,1253.394252
12.5100,109.8463974,-24.32174802,1253.106346
12.5150,110.4218241,-24.65585912,1252.822033
12.5200,110.9923452,-24.99268879,1252.541317
12.5250,111.5561547,-25.3310486,1252.264869
12.5300,112.112387,-25.67096657,1251.992885
12.5350,112.659518,-26.01093873,1251.725805
12.5400,113.1957378,-26.35107493,1251.464061
12.5450,113.721525,-26.69043957,1251.207431
12.5500,114.2348333,-27.02883338,1250.956337
12.5550,114.7359805,-27.36641138,1250.710539
12.5600,115.2230221,-27.70191949,1250.470631
12.5650,115.6969427,-28.03539541,1250.236133
12.5700,116.1582083,-28.36576453,1250.006966
12.5750,116.6063404,-28.69345901,1249.783135
12.5800,117.0400947,-29.01707479,1249.564812
12.5850,117.4609067,-29.33642156,1249.351585
12.5900,117.8677204,-29.65129666,1249.143606
12.5950,118.2587278,-29.9615508,1248.941189
12.6000,118.6366361,-30.26660972,1248.743528
12.6050,119.0011948,-30.56690454,1248.550566
12.6100,119.3535399,-30.86261237,1248.361786
12.6150,119.6940326,-31.15283139,1248.177224
12.6200,120.0237107,-31.43896453,1247.996242
12.6250,120.3436551,-31.7207417,1247.818661
12.6300,120.654988,-31.99812918,1247.644118
12.6350,120.9584028,-32.27140523,1247.472302
12.6400,121.2556738,-32.54167247,1247.302685
12.6450,121.5470969,-32.80895668,1247.135202
12.6500,121.83418,-33.07358666,1246.969492
12.6550,122.1183805,-33.33548352,1246.805188
12.6600,122.399165,-33.59651576,1246.642418
12.6650,122.6785437,-33.85669539,1246.48063
12.6700,122.9566598,-34.11783302,1246.31984
12.6750,123.2358156,-34.37941798,1246.159489
12.6800,123.5154243,-34.64253761,1245.999777
12.6850,123.7955893,-34.90856421,1245.840592
12.6900,124.0744537,-35.17703377,1245.682512
12.6950,124.3527728,-35.44818354,1245.525279
12.7000,124.6311,-35.72436887,1245.368679
12.7050,124.9103841,-36.00525978,1245.212516
12.7100,125.1907922,-36.29113537,1245.056765
12.7150,125.4734569,-36.58070802,1244.901339
12.7200,125.7593833,-36.87397052,1244.746084
12.7250,126.047555,-37.16990707,1244.591386
12.7300,126.3384232,-37.46886861,1244.437236
12.7350,126.6317516,-37.76949604,1244.283736
12.7400,126.9278954,-38.07169236,1244.130996
12.7450,127.2276831,-38.37488077,1243.97888
12.7500,127.5307375,-38.67764357,1243.827561
12.7550,127.837947,-38.98097122,1243.676921
12.7600,128.1505094,-39.28272052,1243.526928
12.7650,128.4692461,-39.58301775,1243.377525
12.7700,128.7967562,-39.88073061,1243.228219
12.7750,129.1345346,-40.17603765,1243.07864
12.7800,129.4824884,-40.46592849,1242.929105
12.7850,129.8404329,-40.74876383,1242.779797
12.7900,130.207998,-41.02360655,1242.630843
12.7950,130.5867615,-41.29049039,1242.481851
12.8000,130.9780826,-41.54750841,1242.332689
12.8050,131.3834337,-41.79386117,1242.183033
12.8100,131.8026444,-42.02833841,1242.032889
12.8150,132.2368519,-42.25075412,1241.882015
12.8200,132.685303,-42.45998298,1241.730591
12.8250,133.1476977,-42.65557233,1241.578682
12.8300,133.6233166,-42.83711665,1241.42638
12.8350,134.1122786,-43.0051465,1241.273597
12.8400,134.6139527,-43.15959341,1241.120393
12.8450,135.1258874,-43.30086742,1240.967286
12.8500,135.6483647,-43.42888639,1240.814154
12.8550,136.1787511,-43.54335945,1240.661559
12.8600,136.7148427,-43.64561936,1240.509759
12.8650,137.2537495,-43.73591707,1240.359296
12.8700,137.7930077,-43.81535877,1240.210462
12.8750,138.3294921,-43.88348962,1240.063797
12.8800,138.8619237,-43.94370465,1239.919267
12.8850,139.3881501,-43.99648407,1239.777222
12.8900,139.9072499,-44.04322455,1239.637682
12.8950,140.4181859,-44.08542248,1239.500774
12.9000,140.9180647,-44.12414376,1239.367005
12.9050,141.4049288,-44.16096094,1239.236425
12.9100,141.8767523,-44.19567321,1239.109473
12.9150,142.3327277,-44.23046599,1238.986106
12.9200,142.773274,-44.26522429,1238.866222
12.9250,143.1980347,-44.29983506,1238.749823
12.9300,143.606002,-44.3353184,1238.637019
12.9350,143.9983971,-44.37174249,1238.527621
12.9400,144.3745623,-44.40833341,1238.42174
12.9450,144.736486,-44.44515607,1238.319148
12.9500,145.0837483,-44.48203164,1238.219887
12.9550,145.4164934,-44.51959124,1238.123936
12.9600,145.736358,-44.55510331,1238.031198
12.9650,146.0438059,-44.58900819,1237.941611
12.9700,146.3381408,-44.61864488,1237.855478
12.9750,146.6183926,-44.64573577,1237.77295
12.9800,146.8850297,-44.66849295,1237.694114
12.9850,147.1381768,-44.68614738,1237.619091
12.9900,147.3805093,-44.6998892,1237.54729
12.9950,147.6126679,-44.70810498,1237.47891
13.0000,147.8329283,-44.71035621,1237.414129
13.0050,148.0410655,-44.70615546,1237.35302
13.0100,148.2374111,-44.6972161,1237.295431
13.0150,148.4212651,-44.68301411,1237.241473
13.0200,148.5931809,-44.6638681,1237.190983
13.0250,148.7543191,-44.64080766,1237.143635
13.0300,148.9052291,-44.61417019,1237.099281
13.0350,149.0482283,-44.58502745,1237.057564
13.0400,149.183439,-44.55369899,1237.018408
13.0450,149.3121271,-44.5198764,1236.981667
13.0500,149.4347221,-44.4852545,1236.947235
13.0550,149.5523227,-44.44891357,1236.914873
13.0600,149.6646606,-44.41196458,1236.884689
13.0650,149.772826,-44.37331417,1236.856579
13.0700,149.8760452,-44.33352354,1236.830556
13.0750,149.9731431,-44.29242071,1236.806958
13.0800,150.0660192,-44.25098217,1236.785446
13.0850,150.1526055,-44.20878557,1236.766398
13.0900,150.2326242,-44.16677707,1236.749834
13.0950,150.3042666,-44.12456011,1236.736012
13.1000,150.3650765,-44.08212031,1236.725387
13.1050,150.4125948,-44.03939825,1236.718418
13.1100,150.4453056,-43.99696802,1236.715332
13.1150,150.4621084,-43.95507182,1236.716242
13.1200,150.4616291,-43.91330804,1236.72135
13.1250,150.4426982,-43.87285803,1236.730776
13.1300,150.4035909,-43.83414383,1236.744622
13.1350,150.3436326,-43.79521495,1236.763126
13.1400,150.2628095,-43.75690227,1236.786101
13.1450,150.1611926,-43.71952933,1236.813491
13.1500,150.0372332,-43.68418572,1236.845386
13.1550,149.8919943,-43.65344094,1236.881437
13.1600,149.7263253,-43.62694356,1236.921674
13.1650,149.5401994,-43.60693261,1236.965991
13.1700,149.3339771,-43.59482856,1237.014285
13.1750,149.1084216,-43.59342788,1237.066478
13.1800,148.8625522,-43.60262014,1237.122871
13.1850,148.59699,-43.62328857,1237.183359
13.1900,148.3116394,-43.65832016,1237.247926
13.1950,148.0065041,-43.70835643,1237.316623
13.2000,147.6825146,-43.77441761,1237.389396
13.2050,147.3405513,-43.85640002,1237.466379
13.2100,146.9825903,-43.95494821,1237.54732
13.2150,146.6099583,-44.06933876,1237.632223
13.2200,146.2226061,-44.20024297,1237.721171
13.2250,145.8231103,-44.34549312,1237.813995
13.2300,145.4141793,-44.50504055,1237.910435
13.2350,144.9968132,-44.67734127,1238.010454
13.2400,144.5743573,-44.86155779,1238.11369
13.2450,144.1481275,-45.05593007,1238.219983
13.2500,143.7206148,-45.25891919,1238.328947
13.2550,143.2931394,-45.46911558,1238.440477
13.2600,142.8678084,-45.68586255,1238.554076
13.2650,142.4458765,-45.90667987,1238.669602
13.2700,142.0301172,-46.13096219,1238.786475
13.2750,141.6220706,-46.35668376,1238.904347
13.2800,141.224169,-46.58250106,1239.022615
13.2850,140.8400176,-46.80713778,1239.140527
13.2900,140.4704205,-47.02967667,1239.257858
13.2950,140.1160149,-47.24884343,1239.374387
13.3000,139.7789659,-47.46383786,1239.489653
13.3050,139.461218,-47.67466891,1239.603126
13.3100,139.1625597,-47.87976957,1239.714797
13.3150,138.8838728,-48.08053223,1239.82437
13.3200,138.625315,-48.27656287,1239.931639
13.3250,138.3879124,-48.46747414,1240.036444
13.3300,138.1705353,-48.6537171,1240.138884
13.3350,137.9725319,-48.83405867,1240.239053
13.3400,137.7940522,-49.00858693,1240.33684
13.3450,137.6340315,-49.17810411,1240.432344
13.3500,137.4904883,-49.34029402,1240.525918
13.3550,137.3638909,-49.49597501,1240.617628
13.3600,137.2539944,-49.64552968,1240.707329
13.3650,137.1594893,-49.78848127,1240.795319
13.3700,137.0785502,-49.92498475,1240.881999
13.3750,137.0110669,-50.05537709,1240.967231
13.3800,136.9559846,-50.17937262,1241.051329
13.3850,136.9120764,-50.29754664,1241.134473
13.3900,136.8781756,-50.408668,1241.216983
13.3950,136.8526941,-50.51323585,1241.299211
13.4000,136.8350276,-50.61135671,1241.381205
13.4050,136.8232311,-50.70355411,1241.463281
13.4100,136.8171785,-50.78996909,1241.545483
13.4150,136.8157363,-50.87112297,1241.627964
13.4200,136.8177775,-50.94740214,1241.710993
13.4250,136.8228188,-51.01911521,1241.794622
13.4300,136.8315622,-51.08609249,1241.878783
13.4350,136.8420746,-51.14998397,1241.963714
13.4400,136.8543819,-51.2109653,1242.049432
13.4450,136.8685617,-51.26862752,1242.135941
13.4500,136.8840319,-51.32404566,1242.223313
13.4550,136.901038,-51.37607389,1242.31165
13.4600,136.9196445,-51.42642791,1242.400628
13.4650,136.9396649,-51.47401138,1242.490474
13.4700,136.962287,-51.51904342,1242.580845
13.4750,136.9872625,-51.56115174,1242.671788
13.4800,137.0163192,-51.60013082,1242.762981
13.4850,137.0482846,-51.63736028,1242.854552
13.4900,137.0839781,-51.670753,1242.946534
13.4950,137.1244568,-51.7011266,1243.038596
13.5000,137.1691278,-51.72764201,1243.130856
13.5050,137.2200398,-51.7517018,1243.222835
13.5100,137.2756557,-51.77295813,1243.314841
13.5150,137.3353469,-51.79093324,1243.407022
13.5200,137.4003254,-51.80617786,1243.499064
13.5250,137.4693262,-51.81960093,1243.591209
13.5300,137.5411052,-51.83120833,1243.683667
13.5350,137.6161675,-51.84039639,1243.776387
13.5400,137.6939662,-51.84718163,1243.869333
13.5450,137.774158,-51.85254765,1243.962541
13.5500,137.8562354,-51.85636564,1244.056131
13.5550,137.9416724,-51.85744509,1244.14976
13.5600,138.0300717,-51.85563207,1244.243541
13.5650,138.1212793,-51.85118834,1244.337472
13.5700,138.2148317,-51.84439717,1244.431578
13.5750,138.3115558,-51.83401363,1244.52571
13.5800,138.4108064,-51.82138114,1244.619972
13.5850,138.5119192,-51.80592284,1244.714436
13.5900,138.6145503,-51.7866704,1244.809129
13.5950,138.7187926,-51.7650572,1244.903862
13.6000,138.8244317,-51.74065935,1244.998743
13.6050,138.9304635,-51.71359054,1245.093829
13.6100,139.0368596,-51.68356695,1245.189141
13.6150,139.1431329,-51.65017944,1245.284608
13.6200,139.2485079,-51.61418315,1245.380381
13.6250,139.3520406,-51.57523798,1245.476609
13.6300,139.4535185,-51.53298541,1245.573279
13.6350,139.5519891,-51.48914127,1245.670438
13.6400,139.6468223,-51.44380602,1245.768165
13.6450,139.7383615,-51.39660089,1245.866371
13.6500,139.8269267,-51.34773882,1245.965104
13.6550,139.9109594,-51.29795165,1246.064414
13.6600,139.9898894,-51.24627791,1246.164599
13.6650,140.0637004,-51.19440036,1246.265517
13.6700,140.1333612,-51.14180764,1246.367049
13.6750,140.1973363,-51.08828227,1246.469549
13.6800,140.2557684,-51.03384138,1246.572961
13.6850,140.3089532,-50.97769319,1246.677219
13.6900,140.3568357,-50.92030922,1246.782236
13.6950,140.3992722,-50.86084034,1246.888049
13.7000,140.4361931,-50.79911371,1246.994683
13.7050,140.4679482,-50.73423819,1247.10203
13.7100,140.4944249,-50.66733179,1247.210078
13.7150,140.5151297,-50.59723027,1247.318962
13.7200,140.5300395,-50.5241731,1247.428587
13.7250,140.5395611,-50.4474032,1247.538867
13.7300,140.543378,-50.36713295,1247.649835
13.7350,140.5420007,-50.28348992,1247.761349
13.7400,140.5351585,-50.19609971,1247.873502
13.7450,140.5214861,-50.10505157,1247.986517
13.7500,140.5021474,-50.0092716,1248.100334
13.7550,140.4762206,-49.90848543,1248.215019
13.7600,140.4444888,-49.80210289,1248.330585
13.7650,140.40804,-49.69118564,1248.446666
13.7700,140.3664947,-49.57489814,1248.563557
13.7750,140.3200025,-49.45180423,1248.681206
13.7800,140.2691772,-49.32252637,1248.799553
13.7850,140.2141304,-49.18636652,1248.918651
13.7900,140.1554306,-49.04331071,1249.038381
13.7950,140.0927396,-48.89229204,1249.158902
