type,name,time_units,begin_time,frequency,count,units
signal_3d,"Noraxon MyoMotion-Trajectories-Radial styloid process RT","s",0.0000,200,5172,"mm"

time,x,y,z
0.0000,176.8245404,48.43772115,985.4766105
0.0050,176.7182289,48.46367806,985.4905649
0.0100,176.6119031,48.48956506,985.5045338
0.0150,176.5055632,48.51538214,985.5185169
0.0200,176.3897516,48.54324274,985.5337927
0.0250,176.2648889,48.57294427,985.5503086
0.0300,176.1314881,48.60422842,985.5679956
0.0350,175.9901314,48.63678314,985.5867694
0.0400,175.8414485,48.67025175,985.606533
0.0450,175.6860982,48.70424942,985.627181
0.0500,175.5247583,48.73838131,985.6486029
0.0550,175.3581236,48.77226121,985.6706865
0.0600,175.1869102,48.80552779,985.6933187
0.0650,175.0118561,48.83785484,985.7163865
0.0700,174.8337169,48.86895385,985.7397768
0.0750,174.6532648,48.89856985,985.7633752
0.0800,174.471292,48.92647995,985.7870649
0.0850,174.2886184,48.95250236,985.8107265
0.0900,174.1061014,48.97651056,985.8342398
0.0950,173.9246377,48.99844267,985.8574856
0.1000,173.7451471,49.01830098,985.8803493
0.1050,173.5685486,49.03613969,985.9027217
0.1100,173.3957414,49.05204501,985.9245
0.1150,173.2275931,49.06611478,985.9455857
0.1200,173.0649308,49.07844227,985.9658839
0.1250,172.9085358,49.08910623,985.9853021
0.1300,172.7591412,49.09816687,986.0037516
0.1350,172.6174253,49.10566214,986.021149
0.1400,172.4839973,49.11160307,986.0374161
0.1450,172.3593762,49.11597346,986.0524815
0.1500,172.2439648,49.11873752,986.0662832
0.1550,171.9888758,49.13929626,986.0978885
0.1600,171.7441603,49.1572596,986.1280252
0.1650,171.5107289,49.17410515,986.1568185
0.1700,171.287597,49.18882747,986.1841436
0.1750,171.0749478,49.20168248,986.2098717
0.1800,170.8717555,49.21356204,986.2344966
0.1850,170.6791842,49.22466397,986.2578467
0.1900,170.4968577,49.23354902,986.2797782
0.1950,170.3235295,49.2417068,986.3004611
0.2000,170.1591027,49.24872357,986.3200496
0.2050,170.0031181,49.25529569,986.33866
0.2100,169.8553753,49.26098809,986.3561699
0.2150,169.7161876,49.26619347,986.372644
0.2200,169.5846433,49.27259084,986.3884715
0.2250,169.4591479,49.27939181,986.4035237
0.2300,169.3403214,49.28598423,986.4177551
0.2350,169.2274947,49.29268701,986.4314911
0.2400,169.1188184,49.30016184,986.4446005
0.2450,169.017332,49.3083636,986.457019
0.2500,168.9207183,49.3182851,986.4691718
0.2550,168.8288576,49.32979451,986.4809021
0.2600,168.7423474,49.34389515,986.4923658
0.2650,168.6591227,49.35992022,986.5037495
0.2700,168.5794708,49.37816485,986.5149892
0.2750,168.5024446,49.3982004,986.5261907
0.2800,168.4261488,49.41979863,986.5373843
0.2850,168.3512589,49.4435709,986.5487947
0.2900,168.2777647,49.46923534,986.5604931
0.2950,168.2056276,49.49673391,986.5724325
0.3000,168.1348491,49.5261413,986.5844788
0.3050,168.065335,49.5555905,986.5964767
0.3100,167.9962041,49.58634759,986.6088244
0.3150,167.9281081,49.61763866,986.6211612
0.3200,167.8621939,49.65029746,986.6334249
0.3250,167.7971747,49.68393619,986.6458059
0.3300,167.7344319,49.71895195,986.6581523
0.3350,167.6738641,49.7551641,986.6707337
0.3400,167.6158813,49.79257628,986.683295
0.3450,167.5595912,49.83019995,986.6958287
0.3500,167.5055033,49.86897443,986.7082587
0.3550,167.4548684,49.90702912,986.7201764
0.3600,167.4053084,49.9448879,986.7321507
0.3650,167.3592555,49.98260664,986.7438931
0.3700,167.3149517,50.01989593,986.7555013
0.3750,167.2727601,50.05704776,986.7668214
0.3800,167.2328928,50.09332296,986.7776645
0.3850,167.1944602,50.12763932,986.7881205
0.3900,167.1580896,50.16123425,986.7982815
0.3950,167.1228024,50.19438157,986.8081461
0.4000,167.0888172,50.22797255,986.8179339
0.4050,167.0556029,50.25987485,986.8272634
0.4100,167.0230597,50.2908715,986.8362616
0.4150,166.9914044,50.32127773,986.8449763
0.4200,166.9603885,50.34976926,986.8532745
0.4250,166.9287,50.37774715,986.8613575
0.4300,166.8966152,50.40431602,986.8692313
0.4350,166.8647096,50.42876952,986.876534
0.4400,166.8322607,50.45262388,986.8839439
0.4450,166.800084,50.47456425,986.8909452
0.4500,166.7686227,50.49598814,986.8977908
0.4550,166.7375843,50.5161832,986.904311
0.4600,166.707595,50.53597678,986.9105337
0.4650,166.6784821,50.5547593,986.9164523
0.4700,166.651306,50.57357241,986.922016
0.4750,166.6255792,50.59173957,986.9274553
0.4800,166.6009181,50.60920269,986.9325034
0.4850,166.5783034,50.62575876,986.9370987
0.4900,166.5556602,50.64176297,986.9415057
0.4950,166.534081,50.65685015,986.9455535
0.5000,166.5140176,50.67045764,986.9491541
0.5050,166.494238,50.68427603,986.9527492
0.5100,166.4754758,50.69797042,986.95617
0.5150,166.4570127,50.71123369,986.9594713
0.5200,166.4391597,50.72326893,986.9624892
0.5250,166.4235678,50.73559414,986.9654121
0.5300,166.4093143,50.74797743,986.9681257
0.5350,166.3948219,50.76006072,986.9706549
0.5400,166.3820313,50.77190919,986.9729781
0.5450,166.3692318,50.78343102,986.9752147
0.5500,166.3576641,50.7942033,986.9771183
0.5550,166.3464279,50.80471005,986.9788313
0.5600,166.3351743,50.81405092,986.9804153
0.5650,166.3255483,50.82397411,986.9817323
0.5700,166.3167049,50.83159574,986.982758
0.5750,166.3084836,50.83865818,986.9836086
0.5800,166.3028747,50.84440713,986.9839928
0.5850,166.300458,50.84923194,986.9838722
0.5900,166.3005882,50.8538492,986.9834438
0.5950,166.3033186,50.85617659,986.9823067
0.6000,166.3092082,50.85780905,986.980724
0.6050,166.3184755,50.85830231,986.9785884
0.6100,166.3314369,50.856948,986.975701
0.6150,166.3477556,50.85521857,986.9723245
0.6200,166.3675516,50.8510265,986.9680113
0.6250,166.3921843,50.84582466,986.9631223
0.6300,166.4194765,50.83794224,986.9574604
0.6350,166.4497802,50.82774388,986.9510262
0.6400,166.4836453,50.81546359,986.943833
0.6450,166.5204681,50.80145584,986.9361502
0.6500,166.5603859,50.78524889,986.9277829
0.6550,166.6030193,50.76789857,986.9190075
0.6600,166.6485502,50.74878726,986.9095833
0.6650,166.695549,50.72772197,986.8997692
0.6700,166.7449461,50.70399292,986.8892471
0.6750,166.7968292,50.67839484,986.8781321
0.6800,166.8518899,50.64985373,986.8663014
0.6850,166.9085377,50.61848377,986.8538351
0.6900,166.9683054,50.58486632,986.8406416
0.6950,167.0292137,50.54809157,986.8268859
0.7000,167.0928938,50.5080629,986.812295
0.7050,167.1592154,50.46551814,986.7970103
0.7100,167.2281048,50.4194842,986.780932
0.7150,167.2994051,50.37002475,986.7640638
0.7200,167.3718237,50.31807564,986.7466698
0.7250,167.447305,50.26197451,986.7283597
0.7300,167.5248525,50.2028718,986.7093121
0.7350,167.6047246,50.14132947,986.6895351
0.7400,167.6864154,50.07605999,986.6688957
0.7450,167.7706405,50.0084765,986.6475596
0.7500,167.8565881,49.93784382,986.6254696
0.7550,167.9439466,49.86448173,986.6027362
0.7600,168.0319049,49.78836039,986.5793735
0.7650,168.1209425,49.71042899,986.5556572
0.7700,168.2094693,49.62814842,986.5312734
0.7750,168.2988137,49.54407111,986.5063784
0.7800,168.389259,49.4582633,986.4810802
0.7850,168.4790684,49.36916353,986.4552622
0.7900,168.5693064,49.27863995,986.4291094
0.7950,168.6608172,49.18638619,986.4024539
0.8000,168.7519932,49.09280035,986.3754548
0.8050,168.8438594,48.99692656,986.3477378
0.8100,168.9349494,48.89910856,986.3195643
0.8150,169.0265235,48.79996842,986.2909613
0.8200,169.1174991,48.69980977,986.2621504
0.8250,169.2070831,48.59869502,986.2330968
0.8300,169.2951556,48.49672697,986.2039561
0.8350,169.3833434,48.39390606,986.1745292
0.8400,169.4704558,48.28954409,986.1448823
0.8450,169.5572307,48.18498214,986.1150667
0.8500,169.6430235,48.08023097,986.0850402
0.8550,169.7273255,47.97530397,986.0552087
0.8600,169.8108394,47.87054107,986.025193
0.8650,169.8923377,47.76429734,985.9952371
0.8700,169.9725648,47.65945531,985.9654286
0.8750,170.0503588,47.5539971,985.9356457
0.8800,170.1265955,47.44914165,985.906154
0.8850,170.1993875,47.34563271,985.8772428
0.8900,170.2684922,47.24188681,985.84859
0.8950,170.3333958,47.13990434,985.8206945
0.9000,170.3944883,47.03786573,985.793219
0.9050,170.4520564,46.93720887,985.7663217
0.9100,170.5039477,46.83867196,985.7402909
0.9150,170.550086,46.74093832,985.7151638
0.9200,170.5911101,46.64527592,985.6910987
0.9250,170.6257719,46.5510694,985.6680207
0.9300,170.655132,46.45869079,985.6458787
0.9350,170.6793002,46.36918635,985.6248174
0.9400,170.6964503,46.28193735,985.6050208
0.9450,170.7086496,46.19666747,985.5859642
0.9500,170.7143628,46.11354319,985.5681205
0.9550,170.7141903,46.03290069,985.551463
0.9600,170.7083628,45.95398518,985.5357341
0.9650,170.6972542,45.87714949,985.5209158
0.9700,170.6820958,45.80470901,985.5073539
0.9750,170.6615366,45.73287758,985.4946865
0.9800,170.6361622,45.66348398,985.4830125
0.9850,170.6068085,45.59618388,985.4722825
0.9900,170.5728162,45.53078363,985.4625528
0.9950,170.5349687,45.46755944,985.4538166
1.0000,170.4926498,45.40580227,985.4459147
1.0050,170.4457692,45.34604242,985.4390169
1.0100,170.3941175,45.28897146,985.4332084
1.0150,170.3378094,45.23440997,985.4285471
1.0200,170.2760064,45.18290488,985.4251022
1.0250,170.2069658,45.1342005,985.4230795
1.0300,170.1316531,45.08862636,985.422484
1.0350,170.0488203,45.04624653,985.4236256
1.0400,169.9587332,45.0074666,985.4264347
1.0450,169.8602349,44.971421,985.4308676
1.0500,169.7540354,44.93839815,985.4369307
1.0550,169.6393834,44.90777786,985.4444677
1.0600,169.5166709,44.88033063,985.4537826
1.0650,169.3868243,44.85483503,985.4642797
1.0700,169.2502164,44.83328143,985.4763049
1.0750,169.1061102,44.81356866,985.4896602
1.0800,168.9535717,44.79734114,985.5046264
1.0850,168.7932811,44.78452319,985.5210882
1.0900,168.624786,44.7751888,985.5392455
1.0950,168.4471629,44.76888062,985.5590041
1.1000,168.2609339,44.76569367,985.580451
1.1050,168.0651462,44.7649983,985.6037462
1.1100,167.8598398,44.76720579,985.6287676
1.1150,167.644395,44.77218445,985.6557619
1.1200,167.4198613,44.78033853,985.6845714
1.1250,167.186019,44.79023079,985.7150278
1.1300,166.9432794,44.80186195,985.7472164
1.1350,166.6916107,44.81463042,985.7810751
1.1400,166.4305223,44.82991073,985.8169175
1.1450,166.1592035,44.84608536,985.8546682
1.1500,165.8783812,44.8644153,985.8947312
1.1550,165.5884346,44.88389313,985.9366911
1.1600,165.2883393,44.90544453,985.9809904
1.1650,164.9785161,44.92881615,986.0274032
1.1700,164.659427,44.95446584,986.0761163
1.1750,164.3327401,44.98253809,986.1270888
1.1800,163.9969764,45.01355928,986.1803692
1.1850,163.65443,45.04659076,986.2357012
1.1900,163.3057306,45.08219774,986.2929344
1.1950,162.951375,45.12125892,986.3523141
1.2000,162.5913316,45.16469665,986.4137716
1.2050,162.2252123,45.21203683,986.4774178
1.2100,161.8556223,45.26321457,986.5428355
1.2150,161.4831427,45.31998776,986.6100629
1.2200,161.1060392,45.38146301,986.6791895
1.2250,160.7254327,45.44922417,986.7503907
1.2300,160.340443,45.52435776,986.8238974
1.2350,159.9512836,45.60657446,986.8997663
1.2400,159.5582555,45.69591625,986.9779623
1.2450,159.1600986,45.79275921,987.058798
1.2500,158.7572645,45.89669025,987.1422156
1.2550,158.3502765,46.00913913,987.2284049
1.2600,157.9386801,46.12941593,987.3175002
1.2650,157.5236151,46.25752358,987.4092878
1.2700,157.1026608,46.39190793,987.5040717
1.2750,156.6772201,46.53387682,987.6019145
1.2800,156.2461121,46.68311048,987.703022
1.2850,155.8089296,46.83906484,987.8073739
1.2900,155.3662726,47.0012849,987.9149864
1.2950,154.9184627,47.17059773,988.0259871
1.3000,154.4650399,47.34582845,988.1403445
1.3050,154.0067447,47.52671294,988.2581695
1.3100,153.5421536,47.71254159,988.379613
1.3150,153.0720314,47.90498351,988.504753
1.3200,152.596414,48.10154027,988.6335083
1.3250,152.1151567,48.3034336,988.7661888
1.3300,151.6283328,48.51105671,988.9029959
1.3350,151.1356625,48.72308898,989.0438222
1.3400,150.6372959,48.94012903,989.1889044
1.3450,150.1318328,49.16283701,989.3387011
1.3500,149.6186371,49.39152628,989.4936482
1.3550,149.0985037,49.6259953,989.6539117
1.3600,148.5699716,49.86677595,989.81995
1.3650,148.0313089,50.11557266,989.9926223
1.3700,147.483386,50.37053236,990.1716917
1.3750,146.9246442,50.6332916,990.3581081
1.3800,146.3555128,50.90214342,990.5517765
1.3850,145.7757147,51.17794998,990.7532126
1.3900,145.1851986,51.45989217,990.9625525
1.3950,144.584272,51.74824741,991.1801799
1.4000,143.9721415,52.04219569,991.4061854
1.4050,143.3484558,52.34310502,991.6411117
1.4100,142.7138791,52.65010929,991.8852792
1.4150,142.0679808,52.96331554,992.1390511
1.4200,141.4091035,53.28166189,992.4025299
1.4250,140.7367543,53.60638656,992.6766867
1.4300,140.0506977,53.9381551,992.9615802
1.4350,139.3501368,54.27871031,993.2580881
1.4400,138.6337602,54.62772179,993.5665262
1.4450,137.9019576,54.98510671,993.8870383
1.4500,137.1546537,55.35149118,994.2199197
1.4550,136.3913542,55.72804202,994.5657533
1.4600,135.611086,56.11332057,994.9246521
1.4650,134.8147024,56.50861396,995.2970154
1.4700,133.999792,56.91314171,995.6832647
1.4750,133.1671947,57.32781158,996.0832657
1.4800,132.3169335,57.75323805,996.4976128
1.4850,131.4474874,58.18928746,996.9266654
1.4900,130.5582368,58.63602229,997.3706689
1.4950,129.6496017,59.09346108,997.8296
1.5000,128.720625,59.56133166,998.3042178
1.5050,127.7720785,60.04105466,998.7942452
1.5100,126.8029425,60.53257967,999.3004862
1.5150,125.8127057,61.03559809,999.822863
1.5200,124.8014106,61.55169562,1000.36196
1.5250,123.7689958,62.07872527,1000.917514
1.5300,122.7155447,62.61722418,1001.489702
1.5350,121.6403522,63.16800172,1002.078945
1.5400,120.5439252,63.72962825,1002.685361
1.5450,119.4269565,64.30337505,1003.308973
1.5500,118.2893974,64.8900024,1003.950042
1.5550,117.1312249,65.48681437,1004.608308
1.5600,115.9520992,66.0946986,1005.284179
1.5650,114.7523846,66.71379568,1005.977968
1.5700,113.5315568,67.34422401,1006.689482
1.5750,112.2912736,67.98575202,1007.4191
1.5800,111.0320175,68.63795458,1008.166727
1.5850,109.7559756,69.30084773,1008.932368
1.5900,108.4626119,69.97437697,1009.71601
1.5950,107.1524426,70.65682273,1010.517486
1.6000,105.8264744,71.34950758,1011.337122
1.6050,104.4843478,72.05324507,1012.175009
1.6100,103.1286189,72.7675752,1013.030828
1.6150,101.7593077,73.49016672,1013.904518
1.6200,100.3789216,74.22222313,1014.795778
1.6250,98.98887199,74.96410897,1015.704592
1.6300,97.58903329,75.71368836,1016.630672
1.6350,96.18129855,76.4715406,1017.573935
1.6400,94.76682071,77.23812042,1018.534274
1.6450,93.34745713,78.01137167,1019.511048
1.6500,91.92326765,78.79116308,1020.504855
1.6550,90.49441322,79.5780152,1021.515498
1.6600,89.06226173,80.36984465,1022.542159
1.6650,87.62924706,81.1672061,1023.584898
1.6700,86.1941046,81.96968726,1024.644018
1.6750,84.75866036,82.77718103,1025.718699
1.6800,83.32377454,83.58943502,1026.808905
1.6850,81.88986013,84.40638281,1027.914531
1.6900,80.45892687,85.2279639,1029.035005
1.6950,79.03011417,86.05504331,1030.170737
1.7000,77.6052997,86.88715939,1031.321454
1.7050,76.18570295,87.72359133,1032.486291
1.7100,74.77162368,88.56485234,1033.665211
1.7150,73.36352194,89.41064396,1034.857829
1.7200,71.96246104,90.26104063,1036.063964
1.7250,70.56944058,91.11587695,1037.282924
1.7300,69.18391914,91.97407703,1038.514921
1.7350,67.80631242,92.83392245,1039.75922
1.7400,66.43864532,93.6952066,1041.015238
1.7450,65.07935615,94.55801087,1042.283645
1.7500,63.7286734,95.41958003,1043.563622
1.7550,62.38675397,96.27958179,1044.854851
1.7600,61.05444963,97.13819255,1046.157472
1.7650,59.73033665,97.99314927,1047.471214
1.7700,58.41485757,98.84510004,1048.796255
1.7750,57.1081209,99.69284175,1050.132644
1.7800,55.80908849,100.5339247,1051.479634
1.7850,54.51854735,101.3676765,1052.837207
1.7900,53.23590906,102.1945594,1054.206021
1.7950,51.96078489,103.0134567,1055.585587
1.8000,50.69360125,103.824037,1056.97563
1.8050,49.43387014,104.6259336,1058.376901
1.8100,48.18233458,105.4184689,1059.788741
1.8150,46.93757503,106.2007436,1061.211627
1.8200,45.69951349,106.973369,1062.644979
1.8250,44.46776934,107.7368721,1064.089618
1.8300,43.24156311,108.4889248,1065.54499
1.8350,42.02160893,109.2300071,1067.011158
1.8400,40.80792829,109.9613942,1068.48748
1.8450,39.60023019,110.682575,1069.97445
1.8500,38.39869848,111.3926921,1071.471448
1.8550,37.20197812,112.0925966,1072.97957
1.8600,36.01172131,112.7829896,1074.498411
1.8650,34.82641543,113.4637039,1076.028139
1.8700,33.64795288,114.1352174,1077.568564
1.8750,32.47491503,114.7972381,1079.118912
1.8800,31.30740502,115.449895,1080.67965
1.8850,30.14510198,116.0928263,1082.250062
1.8900,28.98834099,116.7252425,1083.830743
1.8950,27.83791264,117.3477996,1085.421532
1.9000,26.69361181,117.9598485,1087.022121
1.9050,25.55559061,118.5612904,1088.632264
1.9100,24.42412481,119.152413,1090.252313
1.9150,23.29891585,119.7336666,1091.881933
1.9200,22.18081128,120.3055125,1093.521581
1.9250,21.06827994,120.8664024,1095.171235
1.9300,19.96243266,121.4185459,1096.830853
1.9350,18.86386642,121.960995,1098.49983
1.9400,17.77131489,122.4931613,1100.178687
1.9450,16.68485818,123.0168048,1101.86766
1.9500,15.60510219,123.5313309,1103.565708
1.9550,14.5318092,124.0372729,1105.273091
1.9600,13.46540914,124.5359457,1106.99016
1.9650,12.40278265,125.0255581,1108.716629
1.9700,11.34665923,125.5090369,1110.453209
1.9750,10.2969013,125.9829967,1112.198909
1.9800,9.253428021,126.4489982,1113.953831
1.9850,8.216538867,126.9071934,1115.718067
1.9900,7.185315876,127.357161,1117.491339
1.9950,6.159980839,127.7983912,1119.272978
2.0000,5.140588756,128.2314344,1121.063083
2.0050,4.126420831,128.6552451,1122.862028
2.0100,3.116776777,129.0705641,1124.669763
2.0150,2.112313209,129.4768206,1126.48598
2.0200,1.113111286,129.8752395,1128.310397
2.0250,0.1188436603,130.2648101,1130.142783
2.0300,-0.8696816463,130.6461734,1131.983731
2.0350,-1.852725704,131.0198211,1133.833073
2.0400,-2.830709523,131.3862122,1135.691016
2.0450,-3.803161474,131.7449328,1137.55727
2.0500,-4.768880928,132.0968805,1139.43096
2.0550,-5.727928334,132.4415815,1141.312747
2.0600,-6.680446948,132.7785919,1143.202394
2.0650,-7.626447442,133.1089945,1145.100256
2.0700,-8.56425735,133.4321072,1147.004802
2.0750,-9.495133926,133.7483612,1148.916987
2.0800,-10.41836621,134.0581309,1150.836841
2.0850,-11.33356592,134.3614597,1152.763737
2.0900,-12.24032779,134.6576829,1154.696854
2.0950,-13.13850003,134.9461879,1156.636505
2.1000,-14.03020531,135.2275842,1158.582074
2.1050,-14.9150037,135.5009065,1160.533047
2.1100,-15.79367065,135.7667437,1162.489358
2.1150,-16.66456497,136.0245168,1164.449482
2.1200,-17.52729566,136.2741342,1166.413512
2.1250,-18.38169751,136.5146042,1168.380311
2.1300,-19.22879363,136.7483857,1170.350596
2.1350,-20.06811093,136.973805,1172.323249
2.1400,-20.90019655,137.192062,1174.298765
2.1450,-21.72553865,137.4007686,1176.27615
2.1500,-22.54494109,137.6013926,1178.25593
2.1550,-23.35711546,137.7940706,1180.236333
2.1600,-24.16320808,137.978362,1182.217034
2.1650,-24.96306693,138.1540915,1184.197412
2.1700,-25.75702695,138.3197857,1186.177079
2.1750,-26.54614199,138.476649,1188.156548
2.1800,-27.32907818,138.6241875,1190.134731
2.1850,-28.10555602,138.7632674,1192.11243
2.1900,-28.87656708,138.8940504,1194.088374
2.1950,-29.642457,139.015738,1196.062764
2.2000,-30.40259957,139.1280722,1198.035445
2.2050,-31.15664839,139.2302397,1200.006144
2.2100,-31.90427983,139.3228297,1201.973832
2.2150,-32.64445077,139.4055991,1203.938381
2.2200,-33.3779452,139.479664,1205.899831
2.2250,-34.10404596,139.5452446,1207.857732
2.2300,-34.82330596,139.6012777,1209.811562
2.2350,-35.53630286,139.6495275,1211.76247
2.2400,-36.24258643,139.6887902,1213.709913
2.2450,-36.94263561,139.7190072,1215.653083
2.2500,-37.6360099,139.7407543,1217.592067
2.2550,-38.32167244,139.7521736,1219.526878
2.2600,-38.99953142,139.7548113,1221.456147
2.2650,-39.66811043,139.7477501,1223.379893
2.2700,-40.32910396,139.7315223,1225.298182
2.2750,-40.98334089,139.7060556,1227.211387
2.2800,-41.63026207,139.6709534,1229.119463
2.2850,-42.27116262,139.6260962,1231.02252
2.2900,-42.90543058,139.5717882,1232.920485
2.2950,-43.53290788,139.5068999,1234.813394
2.3000,-44.15404958,139.4331203,1236.700874
2.3050,-44.76835763,139.3505308,1238.583267
2.3100,-45.37437497,139.2599629,1240.460034
2.3150,-45.97356225,139.1611697,1242.331196
2.3200,-46.56383566,139.0539887,1244.197162
2.3250,-47.14564287,138.9385551,1246.058969
2.3300,-47.71984209,138.8140979,1247.914844
2.3350,-48.28555605,138.6818749,1249.765384
2.3400,-48.84214697,138.5415544,1251.610281
2.3450,-49.38891017,138.3932535,1253.449515
2.3500,-49.92738354,138.2371332,1255.28405
2.3550,-50.45738716,138.0742683,1257.113428
2.3600,-50.97906502,137.9044083,1258.938311
2.3650,-51.49004384,137.7296181,1260.758131
2.3700,-51.99254692,137.5491877,1262.572961
2.3750,-52.48544812,137.3640702,1264.382189
2.3800,-52.96919318,137.1739513,1266.186115
2.3850,-53.44403586,136.9805776,1267.98482
2.3900,-53.90963153,136.7833412,1269.778586
2.3950,-54.36548207,136.5844608,1271.566871
2.4000,-54.8123441,136.3830416,1273.350116
2.4050,-55.24957969,136.1803924,1275.127014
2.4100,-55.67808111,135.976551,1276.898216
2.4150,-56.09796412,135.7716487,1278.66447
2.4200,-56.50998576,135.5667394,1280.426351
2.4250,-56.91532311,135.3628319,1282.184145
2.4300,-57.31256476,135.1592717,1283.937362
2.4350,-57.70335075,134.9560941,1285.685492
2.4400,-58.08765722,134.7528362,1287.429028
2.4450,-58.46547435,134.5506944,1289.168354
2.4500,-58.83732875,134.3499726,1290.903032
2.4550,-59.20388752,134.1499102,1292.63304
2.4600,-59.56428258,133.9504113,1294.357975
2.4650,-59.91943432,133.7512267,1296.078429
2.4700,-60.2696929,133.5536595,1297.79438
2.4750,-60.61295404,133.3573005,1299.506083
2.4800,-60.95093921,133.162595,1301.213834
2.4850,-61.28445918,132.9693203,1302.916998
2.4900,-61.61175953,132.7770807,1304.615358
2.4950,-61.93314765,132.5868271,1306.309055
2.5000,-62.24898506,132.3990224,1307.997929
2.5050,-62.56002609,132.2136972,1309.682736
2.5100,-62.86656086,132.0311694,1311.363207
2.5150,-63.16950539,131.8510936,1313.040524
2.5200,-63.46884707,131.6722162,1314.7137
2.5250,-63.76423015,131.4956012,1316.382709
2.5300,-64.05544047,131.3210883,1318.047467
2.5350,-64.34219407,131.1485033,1319.707722
2.5400,-64.62451282,130.9792588,1321.363725
2.5450,-64.90181031,130.8134833,1323.015862
2.5500,-65.17508154,130.6506973,1324.664977
2.5550,-65.444168,130.4930585,1326.310679
2.5600,-65.70940229,130.339107,1327.953295
2.5650,-65.97090937,130.1880175,1329.593016
2.5700,-66.22905064,130.0387906,1331.228873
2.5750,-66.48333516,129.8934858,1332.861632
2.5800,-66.73451132,129.7503767,1334.491138
2.5850,-66.98111923,129.610129,1336.117204
2.5900,-67.22387695,129.4712121,1337.739608
2.5950,-67.4621438,129.3342989,1339.35831
2.6000,-67.69641094,129.1977674,1340.973406
2.6050,-67.92557171,129.0617411,1342.584197
2.6100,-68.15061837,128.9241173,1344.190923
2.6150,-68.36859638,128.7867581,1345.793587
2.6200,-68.58082654,128.6497091,1347.391801
2.6250,-68.7862213,128.5136279,1348.986269
2.6300,-68.98441042,128.3802043,1350.576359
2.6350,-69.17500207,128.2464646,1352.161952
2.6400,-69.35851935,128.1131104,1353.742515
2.6450,-69.5355521,127.9799678,1355.31823
2.6500,-69.70553694,127.847562,1356.888509
2.6550,-69.86833785,127.7154783,1358.453403
2.6600,-70.02488317,127.5840044,1360.012386
2.6650,-70.17651559,127.4520245,1361.566018
2.6700,-70.32180934,127.3187439,1363.114821
2.6750,-70.46193713,127.1845461,1364.659079
2.6800,-70.59568887,127.0498465,1366.197836
2.6850,-70.72405913,126.9145979,1367.731619
2.6900,-70.84649808,126.7788581,1369.259288
2.6950,-70.96426655,126.6416703,1370.781047
2.7000,-71.07590147,126.5033248,1372.296217
2.7050,-71.1831817,126.3638702,1373.806068
2.7100,-71.28567748,126.2236109,1375.310303
2.7150,-71.38446559,126.082557,1376.808408
2.7200,-71.47863006,125.9403122,1378.299819
2.7250,-71.56766204,125.7969679,1379.783667
2.7300,-71.65126867,125.6530113,1381.260198
2.7350,-71.72886002,125.5079259,1382.729627
2.7400,-71.80048135,125.3621875,1384.191149
2.7450,-71.86648573,125.2159966,1385.645241
2.7500,-71.92581195,125.0694605,1387.091526
2.7550,-71.97836949,124.9229227,1388.530023
2.7600,-72.02499695,124.7774142,1389.961599
2.7650,-72.06459601,124.6322871,1391.385623
2.7700,-72.09744976,124.4871883,1392.801811
2.7750,-72.12510213,124.3417098,1394.210581
2.7800,-72.14681457,124.196463,1395.611362
2.7850,-72.16304202,124.0503185,1397.004832
2.7900,-72.17543133,123.9046236,1398.392468
2.7950,-72.18339594,123.7591925,1399.773717
2.8000,-72.18706472,123.6134759,1401.148933
2.8050,-72.18539298,123.4676955,1402.517736
2.8100,-72.17912713,123.320738,1403.880653
2.8150,-72.16785496,123.1736075,1405.23664
2.8200,-72.15067006,123.0262636,1406.58725
2.8250,-72.12872114,122.8785976,1407.931937
2.8300,-72.1010613,122.7309912,1409.271316
2.8350,-72.0680661,122.5826483,1410.604888
2.8400,-72.02857517,122.433619,1411.932252
2.8450,-71.98319972,122.2829772,1413.253816
2.8500,-71.93204339,122.1319372,1414.56863
2.8550,-71.87551506,121.9793149,1415.877682
2.8600,-71.81361646,121.8240757,1417.181016
2.8650,-71.74511519,121.6684562,1418.478672
2.8700,-71.66953998,121.5116143,1419.770389
2.8750,-71.58684208,121.3539262,1421.055638
2.8800,-71.49682493,121.1954895,1422.335151
2.8850,-71.40088079,121.0350365,1423.607511
2.8900,-71.29717363,120.8733768,1424.873707
2.8950,-71.18652379,120.7103034,1426.133278
2.9000,-71.06934755,120.5453968,1427.386358
2.9050,-70.94629076,120.3790599,1428.633215
2.9100,-70.81756954,120.2136627,1429.874074
2.9150,-70.68491948,120.0470298,1431.109
2.9200,-70.54895679,119.8774427,1432.338028
2.9250,-70.40966048,119.7056792,1433.559486
2.9300,-70.26659831,119.5306837,1434.774456
2.9350,-70.12172049,119.3553683,1435.983519
2.9400,-69.97422589,119.1785875,1437.187033
2.9450,-69.82367078,119.0012283,1438.384232
2.9500,-69.66934059,118.8233411,1439.575183
2.9550,-69.51231463,118.6452464,1440.76081
2.9600,-69.35174244,118.4679054,1441.939495
2.9650,-69.18700981,118.2915145,1443.111763
2.9700,-69.01762858,118.1187216,1444.276741
2.9750,-68.84264109,117.9474396,1445.433351
2.9800,-68.66382988,117.7786783,1446.582763
2.9850,-68.47929895,117.612743,1447.723755
2.9900,-68.29101259,117.4502973,1448.857916
2.9950,-68.09829128,117.2912413,1449.984887
3.0000,-67.90050047,117.1359814,1451.10408
3.0050,-67.69772641,116.9841632,1452.215594
3.0100,-67.48943169,116.835169,1453.318499
3.0150,-67.27605282,116.6901059,1454.413509
3.0200,-67.05829391,116.5481993,1455.500386
3.0250,-66.83599121,116.4094811,1456.579955
3.0300,-66.61030666,116.2731991,1457.651057
3.0350,-66.38110206,116.1406646,1458.715424
3.0400,-66.14873227,116.0107064,1459.772423
3.0450,-65.91308227,115.8847745,1460.822156
3.0500,-65.67493722,115.7620657,1461.864184
3.0550,-65.43507702,115.642883,1462.899304
3.0600,-65.19279428,115.5265889,1463.927324
3.0650,-64.9489492,115.4143588,1464.948459
3.0700,-64.70377266,115.3051136,1465.962873
3.0750,-64.45795933,115.1997948,1466.970435
3.0800,-64.21147935,115.0975232,1467.971877
3.0850,-63.9635575,114.9992073,1468.966778
3.0900,-63.71291616,114.9039406,1469.954084
3.0950,-63.45959492,114.8127229,1470.934425
3.1000,-63.2031272,114.7259016,1471.907565
3.1050,-62.94369791,114.6423821,1472.873616
3.1100,-62.68074117,114.5619606,1473.832555
3.1150,-62.41440349,114.4835466,1474.784207
3.1200,-62.14619217,114.4077329,1475.728553
3.1250,-61.87497442,114.3343025,1476.665493
3.1300,-61.60158536,114.2628509,1477.595231
3.1350,-61.32623425,114.1925291,1478.518374
3.1400,-61.0488833,114.1248939,1479.434678
3.1450,-60.76901363,114.0597504,1480.344443
3.1500,-60.48609815,113.9957369,1481.247645
3.1550,-60.1993089,113.9340742,1482.143861
3.1600,-59.90832337,113.8744252,1483.033295
3.1650,-59.61398993,113.8155951,1483.916554
3.1700,-59.31779311,113.7582575,1484.794439
3.1750,-59.01943605,113.7004657,1485.666186
3.1800,-58.71924504,113.6427813,1486.531532
3.1850,-58.41707114,113.5856583,1487.392602
3.1900,-58.11466105,113.5288378,1488.249055
3.1950,-57.81227016,113.472594,1489.101698
3.2000,-57.50818562,113.4167176,1489.950294
3.2050,-57.20334421,113.3612368,1490.794927
3.2100,-56.89575236,113.3055634,1491.635537
3.2150,-56.58750544,113.2501348,1492.473217
3.2200,-56.27874553,113.1954167,1493.3078
3.2250,-55.96980871,113.140414,1494.140031
3.2300,-55.66052319,113.0862416,1494.969619
3.2350,-55.35004993,113.0315196,1495.795933
3.2400,-55.03884988,112.9770846,1496.619398
3.2450,-54.7262198,112.9227896,1497.439715
3.2500,-54.41366564,112.8692685,1498.258277
3.2550,-54.09965815,112.8167294,1499.072915
3.2600,-53.78396778,112.7643152,1499.884748
3.2650,-53.46786261,112.7120776,1500.692805
3.2700,-53.15172906,112.6589333,1501.49789
3.2750,-52.83550319,112.6074862,1502.299939
3.2800,-52.51924988,112.5564507,1503.098975
3.2850,-52.20276873,112.5063231,1503.894591
3.2900,-51.88518308,112.4571778,1504.686262
3.2950,-51.56625756,112.4095139,1505.47372
3.3000,-51.24623043,112.3632336,1506.258041
3.3050,-50.92573081,112.3186055,1507.038345
3.3100,-50.60425332,112.2751459,1507.815055
3.3150,-50.28115224,112.2329025,1508.587664
3.3200,-49.95764601,112.1911847,1509.356245
3.3250,-49.63440599,112.149746,1510.120855
3.3300,-49.31056453,112.1093564,1510.882404
3.3350,-48.98660051,112.0683147,1511.639732
3.3400,-48.66231886,112.0279198,1512.393336
3.3450,-48.33833557,111.9870056,1513.142818
3.3500,-48.01510091,111.9456527,1513.888352
3.3550,-47.6923081,111.9027181,1514.629874
3.3600,-47.37154341,111.858711,1515.367339
3.3650,-47.05206907,111.8137129,1516.100977
3.3700,-46.73526735,111.7680336,1516.831111
3.3750,-46.41992995,111.7220872,1517.557477
3.3800,-46.10696969,111.6751804,1518.279251
3.3850,-45.79705917,111.6273838,1518.996942
3.3900,-45.49034377,111.5791612,1519.71047
3.3950,-45.18755825,111.5290613,1520.420029
3.4000,-44.88832145,111.4769715,1521.125618
3.4050,-44.59293202,111.4234877,1521.827061
3.4100,-44.30126536,111.3688338,1522.523821
3.4150,-44.01339994,111.3139721,1523.216568
3.4200,-43.72847487,111.2582145,1523.904665
3.4250,-43.4462035,111.2012036,1524.588394
3.4300,-43.16792932,111.1430112,1525.266881
3.4350,-42.89082433,111.0845391,1525.940267
3.4400,-42.61609699,111.0244181,1526.60871
3.4450,-42.34309258,110.9637012,1527.27214
3.4500,-42.07240811,110.9021281,1527.93087
3.4550,-41.80485487,110.8391073,1528.584869
3.4600,-41.53856022,110.7753108,1529.233873
3.4650,-41.27509486,110.7110844,1529.87802
3.4700,-41.01191852,110.6458736,1530.516336
3.4750,-40.74938045,110.5810241,1531.149863
3.4800,-40.48673645,110.516228,1531.778746
3.4850,-40.22476551,110.4507868,1532.401699
3.4900,-39.96256941,110.3848319,1533.019105
3.4950,-39.70065408,110.319695,1533.630681
3.5000,-39.44008651,110.2548714,1534.236878
3.5050,-39.18049185,110.1907783,1534.837641
3.5100,-38.92350811,110.1271587,1535.432575
3.5150,-38.66753698,110.0645085,1536.020604
3.5200,-38.41172223,110.0036099,1536.602482
3.5250,-38.15700048,109.9454549,1537.178129
3.5300,-37.90402065,109.8886281,1537.748324
3.5350,-37.65131416,109.8338966,1538.312514
3.5400,-37.40060173,109.7805115,1538.870836
3.5450,-37.152274,109.7290429,1539.423703
3.5500,-36.90607625,109.6790961,1539.969999
3.5550,-36.66259463,109.62949,1540.510765
3.5600,-36.42133225,109.5818768,1541.045873
3.5650,-36.18140394,109.5356424,1541.575477
3.5700,-35.94368723,109.4910244,1542.099556
3.5750,-35.70831159,109.4478733,1542.618741
3.5800,-35.47540493,109.4066779,1543.133031
3.5850,-35.24493411,109.3666904,1543.64247
3.5900,-35.01695693,109.3276241,1544.147375
3.5950,-34.7915907,109.2887902,1544.64752
3.6000,-34.56907163,109.2508084,1545.143328
3.6050,-34.34876711,109.2133231,1545.634812
3.6100,-34.1307533,109.1758418,1546.121797
3.6150,-33.91522203,109.1380312,1546.605246
3.6200,-33.70171615,109.1001663,1547.085111
3.6250,-33.49018234,109.0607531,1547.561225
3.6300,-33.28130597,109.0189419,1548.033241
3.6350,-33.07526021,108.9753234,1548.502223
3.6400,-32.87224739,108.9285496,1548.967796
3.6450,-32.672504,108.8785031,1549.430514
3.6500,-32.47503187,108.8245006,1549.890656
3.6550,-32.2808703,108.7675628,1550.348451
3.6600,-32.0882612,108.7060604,1550.803774
3.6650,-31.89815535,108.6391057,1551.257105
3.6700,-31.70900606,108.5658906,1551.707475
3.6750,-31.52207636,108.4860171,1552.155953
3.6800,-31.33669861,108.4002462,1552.6035
3.6850,-31.1520112,108.3070482,1553.049494
3.6900,-30.96875151,108.2059197,1553.495309
3.6950,-30.78692584,108.0976376,1553.94049
3.7000,-30.60671714,107.9833505,1554.386384
3.7050,-30.42728688,107.8623335,1554.832455
3.7100,-30.24799877,107.7346326,1555.279298
3.7150,-30.06864559,107.6008264,1555.727181
3.7200,-29.88867674,107.4612862,1556.175892
3.7250,-29.70863171,107.3159322,1556.625675
3.7300,-29.52592282,107.16511,1557.076918
3.7350,-29.34283359,107.0095538,1557.52938
3.7400,-29.15873052,106.8490062,1557.983825
3.7450,-28.97296203,106.6847565,1558.439484
3.7500,-28.78587106,106.5166061,1558.89582
3.7550,-28.59597547,106.345715,1559.352796
3.7600,-28.40461143,106.1710416,1559.810694
3.7650,-28.21097048,105.9940947,1560.268739
3.7700,-28.01616991,105.8153682,1560.727791
3.7750,-27.81900617,105.6344435,1561.186886
3.7800,-27.62006444,105.4529818,1561.645889
3.7850,-27.41918467,105.272006,1562.104363
3.7900,-27.21654958,105.091931,1562.562087
3.7950,-27.01180753,104.9117175,1563.019341
3.8000,-26.80487804,104.7333534,1563.475538
3.8050,-26.59584507,104.557308,1563.930174
3.8100,-26.38512683,104.3827277,1564.384297
3.8150,-26.17304669,104.2102205,1564.837943
3.8200,-25.95996834,104.0413368,1565.291024
3.8250,-25.74579149,103.8748575,1565.743262
3.8300,-25.53028483,103.7120623,1566.194204
3.8350,-25.31551533,103.5531263,1566.644071
3.8400,-25.10002185,103.3994202,1567.093016
3.8450,-24.88497686,103.2501229,1567.540506
3.8500,-24.6707093,103.1057065,1567.986817
3.8550,-24.45707816,102.9666961,1568.431759
3.8600,-24.24683616,102.8318707,1568.876023
3.8650,-24.04094473,102.7015361,1569.319154
3.8700,-23.83901637,102.5761158,1569.761623
3.8750,-23.64294013,102.4535541,1570.202667
3.8800,-23.45194509,102.3347883,1570.641367
3.8850,-23.26689065,102.2195331,1571.07869
3.8900,-23.08758353,102.1073628,1571.513784
3.8950,-22.91498657,101.9985152,1571.947623
3.9000,-22.74884524,101.8916863,1572.37825
3.9050,-22.58971146,101.7860318,1572.806746
3.9100,-22.43864621,101.6813141,1573.233357
3.9150,-22.29636689,101.5767838,1573.657587
3.9200,-22.16153665,101.4715315,1574.078814
3.9250,-22.03458474,101.3658008,1574.497836
3.9300,-21.91438844,101.2584741,1574.913785
3.9350,-21.80008348,101.1497445,1575.326562
3.9400,-21.6921278,101.0378564,1575.736072
3.9450,-21.58938273,100.9223081,1576.142739
3.9500,-21.49242311,100.8029658,1576.546467
3.9550,-21.39895818,100.6778772,1576.946771
3.9600,-21.31074417,100.5472755,1577.344685
3.9650,-21.22635527,100.4099337,1577.738866
3.9700,-21.14663103,100.266264,1578.130521
3.9750,-21.07010749,100.1155818,1578.519186
3.9800,-20.99623501,99.9574819,1578.904273
3.9850,-20.92628176,99.79135202,1579.285843
3.9900,-20.8588801,99.61778108,1579.663313
3.9950,-20.79313873,99.43637804,1580.036273
4.0000,-20.7288916,99.24379355,1580.403931
4.0050,-20.6661657,99.04217522,1580.766751
4.0100,-20.60603515,98.83059243,1581.124859
4.0150,-20.54760476,98.61000547,1581.477655
4.0200,-20.49093316,98.37926685,1581.824656
4.0250,-20.4342738,98.13968296,1582.165895
4.0300,-20.37843969,97.89221006,1582.501738
4.0350,-20.32232144,97.63734425,1582.831455
4.0400,-20.26520881,97.3751829,1583.154297
4.0450,-20.20753202,97.10534074,1583.470279
4.0500,-20.14785619,96.82995794,1583.779246
4.0550,-20.0880308,96.5484564,1584.082163
4.0600,-20.0266181,96.2624584,1584.378409
4.0650,-19.96315438,95.97247438,1584.668358
4.0700,-19.89687883,95.67947173,1584.951587
4.0750,-19.82919909,95.38418741,1585.228716
4.0800,-19.75983043,95.08691869,1585.499788
4.0850,-19.68723019,94.78913246,1585.765439
4.0900,-19.6131068,94.49313343,1586.026218
4.0950,-19.536295,94.19886103,1586.281058
4.1000,-19.45824607,93.90737955,1586.531476
4.1050,-19.37950606,93.62026236,1586.778588
4.1100,-19.29903952,93.33896124,1587.020589
4.1150,-19.21894773,93.06414564,1587.258999
4.1200,-19.13872815,92.79570867,1587.493252
4.1250,-19.05864336,92.53530487,1587.723584
4.1300,-18.97913215,92.2838177,1587.950508
4.1350,-18.90051603,92.0414894,1588.173788
4.1400,-18.82321674,91.80866668,1588.393072
4.1450,-18.74697526,91.58785858,1588.609083
4.1500,-18.67199777,91.37778958,1588.821201
4.1550,-18.59968081,91.1796654,1589.029381
4.1600,-18.52802286,90.99485077,1589.232514
4.1650,-18.45692779,90.82342632,1589.430821
4.1700,-18.38772612,90.66494272,1589.623197
4.1750,-18.31920653,90.52179517,1589.810185
4.1800,-18.25135188,90.39346082,1589.991114
4.1850,-18.18549682,90.27955423,1590.165679
4.1900,-18.12219182,90.1795071,1590.33345
4.1950,-18.05986703,90.09432618,1590.49306
4.2000,-18.00030021,90.0232326,1590.644881
4.2050,-17.94306377,89.96557243,1590.787517
4.2100,-17.887324,89.92222789,1590.919892
4.2150,-17.83384553,89.89172375,1591.041931
4.2200,-17.7833802,89.87436621,1591.15278
4.2250,-17.73564501,89.8703245,1591.251811
4.2300,-17.69205334,89.87815816,1591.339762
4.2350,-17.6536518,89.897804,1591.415238
4.2400,-17.61910513,89.92963599,1591.478246
4.2450,-17.58961113,89.97150973,1591.527608
4.2500,-17.56489596,90.02299814,1591.563545
4.2550,-17.54648851,90.08297182,1591.585792
4.2600,-17.53318347,90.1523555,1591.59384
4.2650,-17.52685225,90.2293975,1591.589071
4.2700,-17.52595038,90.31420626,1591.570961
4.2750,-17.53182287,90.40561219,1591.53943
4.2800,-17.54483313,90.50331423,1591.495071
4.2850,-17.56382937,90.60776645,1591.438404
4.2900,-17.589832,90.71691041,1591.369223
4.2950,-17.62332893,90.83100678,1591.288722
4.3000,-17.66465704,90.95059932,1591.196743
4.3050,-17.71363551,91.07288418,1591.093509
4.3100,-17.76926912,91.19953358,1590.97875
4.3150,-17.83169065,91.32861252,1590.852804
4.3200,-17.90132734,91.46060419,1590.716485
4.3250,-17.97779174,91.59583589,1590.569051
4.3300,-18.06101888,91.73435843,1590.410605
4.3350,-18.15018415,91.87562138,1590.241711
4.3400,-18.24630111,92.02097061,1590.062803
4.3450,-18.34846805,92.1699023,1589.87398
4.3500,-18.45735528,92.3221293,1589.675468
4.3550,-18.57143172,92.47807386,1589.466644
4.3600,-18.69220123,92.63779238,1589.248336
4.3650,-18.82009902,92.80215574,1589.021159
4.3700,-18.95523762,92.97049794,1588.785098
4.3750,-19.09675464,93.14424769,1588.540391
4.3800,-19.24452633,93.32249587,1588.287236
4.3850,-19.39946769,93.50532524,1588.025774
4.3900,-19.56059425,93.69211265,1587.756234
4.3950,-19.72858501,93.88424543,1587.479701
4.4000,-19.90268102,94.08268633,1587.19555
4.4050,-20.08186024,94.28752416,1586.904095
4.4100,-20.26731724,94.49954653,1586.606515
4.4150,-20.45612406,94.71937142,1586.301827
4.4200,-20.64892938,94.94743449,1585.990683
4.4250,-20.84543595,95.18354779,1585.672675
4.4300,-21.04519475,95.42698124,1585.347662
4.4350,-21.24824798,95.67845768,1585.016531
4.4400,-21.45321524,95.93808486,1584.678632
4.4450,-21.66086452,96.20459489,1584.333562
4.4500,-21.87006603,96.4795156,1583.981562
4.4550,-22.07956849,96.76216428,1583.623012
4.4600,-22.29082148,97.05154833,1583.257358
4.4650,-22.5037875,97.34812505,1582.884849
4.4700,-22.71740029,97.65238256,1582.505738
4.4750,-22.93222419,97.96259616,1582.11993
4.4800,-23.14834466,98.2783282,1581.727301
4.4850,-23.36457222,98.5995709,1581.327299
4.4900,-23.58065429,98.92737413,1580.920728
4.4950,-23.79801495,99.25995667,1580.507531
4.5000,-24.01572131,99.59676628,1580.088271
4.5050,-24.23444092,99.93743438,1579.662502
4.5100,-24.45509362,100.2810145,1579.231366
4.5150,-24.6765145,100.6263516,1578.794109
4.5200,-24.90074935,100.9724389,1578.352001
4.5250,-25.1266386,101.3194644,1577.904093
4.5300,-25.35390263,101.6668869,1577.45034
4.5350,-25.58425531,102.0135935,1576.992054
4.5400,-25.81874071,102.3573901,1576.529431
4.5450,-26.05730939,102.7004155,1576.062729
4.5500,-26.30008543,103.0405352,1575.591588
4.5550,-26.54763063,103.378788,1575.116824
4.5600,-26.8005486,103.7137796,1574.63863
4.5650,-27.05761458,104.0479194,1574.156927
4.5700,-27.32142652,104.3782901,1573.671057
4.5750,-27.59063284,104.7061581,1573.181558
4.5800,-27.86608684,105.0309739,1572.68838
4.5850,-28.14835195,105.353599,1572.19128
4.5900,-28.43746978,105.6738744,1571.690199
4.5950,-28.73344745,105.9906289,1571.184702
4.6000,-29.03589022,106.3065958,1570.675032
4.6050,-29.34506945,106.6231503,1570.161554
4.6100,-29.66003929,106.939928,1569.643799
4.6150,-29.97970313,107.2575349,1569.121309
4.6200,-30.30263854,107.5771184,1568.593196
4.6250,-30.62949276,107.8983932,1568.059535
4.6300,-30.96026761,108.2208171,1567.519998
4.6350,-31.29427378,108.544714,1566.973101
4.6400,-31.63107781,108.870211,1566.418454
4.6450,-31.97064146,109.1974736,1565.856444
4.6500,-32.31302489,109.5260482,1565.287087
4.6550,-32.65825301,109.8568311,1564.710032
4.6600,-33.00537311,110.1901808,1564.12459
4.6650,-33.35478478,110.5247862,1563.530249
4.6700,-33.7059808,110.8612409,1562.92629
4.6750,-34.06062089,111.1998775,1562.313663
4.6800,-34.41809491,111.5416586,1561.691622
4.6850,-34.77967485,111.8859209,1561.060513
4.6900,-35.14489971,112.2341566,1560.420205
4.6950,-35.51544873,112.5862919,1559.770902
4.7000,-35.89065872,112.9418052,1559.112602
4.7050,-36.27048771,113.3011419,1558.445027
4.7100,-36.65333639,113.6651552,1557.767687
4.7150,-37.03997871,114.0342202,1557.080452
4.7200,-37.4289627,114.4084065,1556.382957
4.7250,-37.82104095,114.7882044,1555.675705
4.7300,-38.21543907,115.1744717,1554.958645
4.7350,-38.61088907,115.5670144,1554.231233
4.7400,-39.0085569,115.966331,1553.493605
4.7450,-39.40710356,116.3724025,1552.746765
4.7500,-39.80573535,116.7843149,1551.989782
4.7550,-40.20563545,117.201072,1551.222006
4.7600,-40.60622151,117.6235947,1550.44489
4.7650,-41.00707108,118.0519015,1549.657785
4.7700,-41.40797211,118.484673,1548.860669
4.7750,-41.80821731,118.9217941,1548.052579
4.7800,-42.20874488,119.362194,1547.234549
4.7850,-42.61163795,119.80479,1546.407447
4.7900,-43.01674942,120.2486671,1545.570429
4.7950,-43.42553682,120.6930152,1544.723863
4.8000,-43.83852265,121.1384927,1543.867887
4.8050,-44.25649878,121.5845377,1543.002772
4.8100,-44.68070767,122.0299672,1542.128493
4.8150,-45.11176226,122.4752316,1541.244928
4.8200,-45.54823132,122.9209021,1540.352504
4.8250,-45.99235624,123.3662496,1539.451527
4.8300,-46.44392102,123.812249,1538.541638
4.8350,-46.90260378,124.2582409,1537.623185
4.8400,-47.36698059,124.70598,1536.696212
4.8450,-47.83712562,125.1554432,1535.761208
4.8500,-48.31176049,125.6067407,1534.817816
4.8550,-48.78995066,126.0599861,1533.86638
4.8600,-49.2715078,126.5147586,1532.906632
4.8650,-49.75559894,126.9696765,1531.938412
4.8700,-50.23975274,127.4266303,1530.962584
4.8750,-50.72433576,127.8850114,1529.978741
4.8800,-51.20904331,128.3428798,1528.987169
4.8850,-51.69323298,128.7997349,1527.988214
4.8900,-52.17677732,129.2570144,1526.982199
4.8950,-52.65960724,129.7158877,1525.969319
4.9000,-53.14187142,130.1744188,1524.950067
4.9050,-53.6224013,130.6335045,1523.923435
4.9100,-54.10145778,131.0922549,1522.890181
4.9150,-54.58107127,131.5504548,1521.850321
4.9200,-55.0606702,132.0086482,1520.803984
4.9250,-55.54147915,132.4648815,1519.750995
4.9300,-56.02236324,132.9208206,1518.691403
4.9350,-56.50579027,133.3749022,1517.625804
4.9400,-56.99001961,133.8280287,1516.554188
4.9450,-57.47533283,134.2806206,1515.47587
4.9500,-57.96079925,134.7330399,1514.390661
4.9550,-58.44665499,135.1849562,1513.29813
4.9600,-58.93213383,135.6358833,1512.199093
4.9650,-59.41637552,136.0875518,1511.09294
4.9700,-59.89863906,136.5391429,1509.980391
4.9750,-60.37809064,136.9903892,1508.860467
4.9800,-60.85473274,137.4415581,1507.732965
4.9850,-61.32712095,137.893437,1506.59836
4.9900,-61.79554962,138.3437524,1505.456178
4.9950,-62.25832167,138.7934076,1504.306131
5.0000,-62.71610631,139.241624,1503.148825
5.0050,-63.16953085,139.6863331,1501.983469
5.0100,-63.6190462,140.1274355,1500.81095
5.0150,-64.0644236,140.564711,1499.631582
5.0200,-64.50722434,140.996919,1498.444726
5.0250,-64.9456954,141.4252931,1497.250553
5.0300,-65.38076382,141.8495895,1496.048462
5.0350,-65.81225224,142.2688941,1494.837861
5.0400,-66.24042159,142.6831176,1493.619516
5.0450,-66.66489496,143.0924675,1492.392416
5.0500,-67.08611245,143.4979783,1491.15729
5.0550,-67.50253632,143.9007418,1489.913777
5.0600,-67.91309205,144.3009251,1488.661128
5.0650,-68.31892692,144.6978989,1487.399266
5.0700,-68.72004177,145.0927051,1486.128507
5.0750,-69.11722621,145.4858198,1484.849854
5.0800,-69.51006051,145.8763918,1483.56176
5.0850,-69.89767743,146.2641067,1482.263549
5.0900,-70.28053656,146.6497391,1480.955099
5.0950,-70.65882301,147.03201,1479.636684
5.1000,-71.03261997,147.4102307,1478.307552
5.1050,-71.40154698,147.7843133,1476.968358
5.1100,-71.76544736,148.1549734,1475.618342
5.1150,-72.12316479,148.5238448,1474.257693
5.1200,-72.47533942,148.8905352,1472.885253
5.1250,-72.82225936,149.2544062,1471.501109
5.1300,-73.1643572,149.6150119,1470.105741
5.1350,-73.50074805,149.9736681,1468.698549
5.1400,-73.83315536,150.3289761,1467.278615
5.1450,-74.16152071,150.6815185,1465.846625
5.1500,-74.4885393,151.0305695,1464.40254
5.1550,-74.8131777,151.3771795,1462.945988
5.1600,-75.13601196,151.7224263,1461.476677
5.1650,-75.45839097,152.0658779,1459.994682
5.1700,-75.77931981,152.4091324,1458.498971
5.1750,-76.09829806,152.7506293,1456.989801
5.1800,-76.41337819,153.0924135,1455.46703
5.1850,-76.72384943,153.4350909,1453.931147
5.1900,-77.0293031,153.7788205,1452.381202
5.1950,-77.32969606,154.1233956,1450.817721
5.2000,-77.62308121,154.4703368,1449.239974
5.2050,-77.910448,154.8175409,1447.648759
5.2100,-78.19182432,155.1666355,1446.043523
5.2150,-78.46643365,155.5168583,1444.424262
5.2200,-78.7342972,155.8679445,1442.790271
5.2250,-78.99522924,156.2200709,1441.141926
5.2300,-79.24864188,156.5733892,1439.478263
5.2350,-79.49380641,156.9278468,1437.799325
5.2400,-79.73166838,157.2817453,1436.103889
5.2450,-79.96216856,157.6353058,1434.391711
5.2500,-80.18527451,157.9882133,1432.66262
5.2550,-80.40141767,158.3403417,1430.916749
5.2600,-80.61127686,158.6912299,1429.153346
5.2650,-80.814639,159.0412972,1427.372197
5.2700,-81.01307697,159.3906705,1425.573545
5.2750,-81.20578873,159.7389954,1423.757635
5.2800,-81.39322138,160.0858493,1421.924747
5.2850,-81.57442053,160.4308504,1420.07457
5.2900,-81.74978261,160.7744718,1418.207624
5.2950,-81.91850526,161.1176375,1416.324185
5.3000,-82.08050808,161.4598179,1414.424043
5.3050,-82.23600283,161.8014535,1412.507158
5.3100,-82.38598605,162.1411185,1410.572396
5.3150,-82.53031177,162.4783811,1408.619793
5.3200,-82.66833836,162.8136167,1406.649497
5.3250,-82.80165978,163.1449934,1404.661595
5.3300,-82.92851241,163.472888,1402.65691
5.3350,-83.048893,163.7971466,1400.63599
5.3400,-83.16131082,164.1174218,1398.59818
5.3450,-83.26636699,164.4330538,1396.543659
5.3500,-83.36348294,164.7423974,1394.472889
5.3550,-83.45357731,165.0467457,1392.385331
5.3600,-83.53719902,165.3443312,1390.282257
5.3650,-83.61383401,165.633712,1388.163853
5.3700,-83.68260174,165.9150384,1386.029949
5.3750,-83.74499453,166.1873744,1383.88009
5.3800,-83.80028423,166.4520929,1381.715368
5.3850,-83.84905797,166.7076959,1379.535442
5.3900,-83.89130797,166.9526966,1377.34164
5.3950,-83.92486377,167.1876539,1375.134517
5.4000,-83.94938741,167.4124928,1372.914422
5.4050,-83.96223619,167.6278379,1370.680558
5.4100,-83.96260818,167.8337887,1368.43439
5.4150,-83.95115549,168.0276852,1366.175611
5.4200,-83.92775841,168.2108614,1363.905831
5.4250,-83.89238193,168.3827368,1361.625648
5.4300,-83.84419148,168.5438061,1359.335753
5.4350,-83.78461209,168.6926771,1357.036559
5.4400,-83.71311869,168.8308334,1354.729294
5.4450,-83.63041491,168.9557158,1352.413614
5.4500,-83.53450585,169.0693597,1350.08996
5.4550,-83.42680484,169.1696098,1347.758557
5.4600,-83.30605859,169.2552364,1345.42045
5.4650,-83.1720133,169.3275629,1343.076156
5.4700,-83.02678572,169.3845503,1340.727092
5.4750,-82.87039728,169.4267399,1338.374085
5.4800,-82.70246999,169.4551052,1336.017855
5.4850,-82.52350142,169.4693274,1333.65939
5.4900,-82.33346389,169.470215,1331.300283
5.4950,-82.13155786,169.4595188,1328.941655
5.5000,-81.91882835,169.4369078,1326.584301
5.5050,-81.69580988,169.4049831,1324.229054
5.5100,-81.46379213,169.3630964,1321.876593
5.5150,-81.22273986,169.31106,1319.527631
5.5200,-80.97423687,169.2492119,1317.182668
5.5250,-80.71815468,169.1798236,1314.841599
5.5300,-80.45550025,169.1004484,1312.504174
5.5350,-80.18555919,169.0142667,1310.171
5.5400,-79.90883758,168.9225489,1307.842212
5.5450,-79.62632472,168.8251683,1305.517623
5.5500,-79.33952088,168.7236461,1303.196985
5.5550,-79.04683627,168.6193023,1300.880436
5.5600,-78.74814065,168.5128799,1298.567073
5.5650,-78.44324971,168.4058649,1296.257592
5.5700,-78.13186824,168.2995406,1293.950299
5.5750,-77.81495925,168.1944793,1291.645413
5.5800,-77.49264396,168.0920532,1289.342289
5.5850,-77.16499825,167.9923929,1287.040173
5.5900,-76.83062936,167.8961715,1284.739245
5.5950,-76.48936852,167.8036491,1282.438712
5.6000,-76.13904981,167.7157522,1280.136686
5.6050,-75.77898917,167.6343248,1277.834637
5.6100,-75.40706802,167.5607573,1275.531811
5.6150,-75.02198844,167.4956625,1273.228384
5.6200,-74.62253783,167.438937,1270.924356
5.6250,-74.20719845,167.3908862,1268.618933
5.6300,-73.7775946,167.3502869,1266.311836
5.6350,-73.33392528,167.3175199,1264.002934
5.6400,-72.87621665,167.2919531,1261.693073
5.6450,-72.40412087,167.2734123,1259.38195
5.6500,-71.91782233,167.2616012,1257.068762
5.6550,-71.41740382,167.2552293,1254.754812
5.6600,-70.9022795,167.2546334,1252.438442
5.6650,-70.37214096,167.2614787,1250.119475
5.6700,-69.82788443,167.2722454,1247.797842
5.6750,-69.26610282,167.2872991,1245.473538
5.6800,-68.6875418,167.3050434,1243.146815
5.6850,-68.09167644,167.326012,1240.817769
5.6900,-67.47888639,167.3488258,1238.486192
5.6950,-66.84949428,167.372498,1236.153067
5.7000,-66.20517164,167.3947664,1233.818601
5.7050,-65.54889602,167.4146744,1231.483989
5.7100,-64.88122969,167.4314307,1229.148814
5.7150,-64.20233191,167.4452922,1226.814842
5.7200,-63.51220995,167.455447,1224.482033
5.7250,-62.81039397,167.4609631,1222.15147
5.7300,-62.09765139,167.4604994,1219.823243
5.7350,-61.37292105,167.4538906,1217.498648
5.7400,-60.63633513,167.4398888,1215.177939
5.7450,-59.88796814,167.4186528,1212.861343
5.7500,-59.12743767,167.3901384,1210.549798
5.7550,-58.35586129,167.3539397,1208.244581
5.7600,-57.5726379,167.3114289,1205.946627
5.7650,-56.77745268,167.2623321,1203.655594
5.7700,-55.97091712,167.2074159,1201.372736
5.7750,-55.15260803,167.146852,1199.098028
5.7800,-54.32389706,167.0792815,1196.831076
5.7850,-53.48492613,167.0050941,1194.571613
5.7900,-52.6360194,166.923728,1192.320718
5.7950,-51.77721322,166.8333406,1190.077458
5.8000,-50.90906373,166.7337103,1187.843208
5.8050,-50.03056698,166.6243186,1185.617506
5.8100,-49.14059747,166.5056078,1183.400976
5.8150,-48.23927592,166.3780115,1181.193062
5.8200,-47.32618205,166.2423032,1178.995236
5.8250,-46.40056457,166.0988083,1176.80773
5.8300,-45.46201855,165.9509115,1174.632989
5.8350,-44.5104739,165.7978627,1172.47072
5.8400,-43.54639072,165.6402424,1170.321647
5.8450,-42.56786685,165.4790508,1168.186322
5.8500,-41.57454823,165.3154729,1166.066065
5.8550,-40.56637672,165.1498885,1163.960475
5.8600,-39.54301204,164.9846207,1161.871226
5.8650,-38.50564694,164.8169161,1159.797977
5.8700,-37.45429212,164.6470486,1157.741474
5.8750,-36.3895722,164.4755193,1155.701656
5.8800,-35.3112448,164.3028444,1153.678919
5.8850,-34.22013657,164.1290134,1151.672704
5.8900,-33.11664039,163.9538736,1149.682687
5.8950,-32.00072756,163.7768286,1147.708836
5.9000,-30.87430251,163.5987083,1145.752567
5.9050,-29.73612674,163.4170812,1143.811735
5.9100,-28.58833596,163.2326586,1141.888284
5.9150,-27.43180742,163.0446369,1139.981445
5.9200,-26.26691882,162.8527082,1138.091436
5.9250,-25.09576667,162.657632,1136.219364
5.9300,-23.91718015,162.4600947,1134.364827
5.9350,-22.73055163,162.2622597,1132.528473
5.9400,-21.53706593,162.0650711,1130.710215
5.9450,-20.33737516,161.8685578,1128.910328
5.9500,-19.13132528,161.6739048,1127.128854
5.9550,-17.91875805,161.4819298,1125.366004
5.9600,-16.70056702,161.2925191,1123.621905
5.9650,-15.47699921,161.1050392,1121.897451
5.9700,-14.24739461,160.9214378,1120.191726
5.9750,-13.01473447,160.7403665,1118.505532
5.9800,-11.77938238,160.5623226,1116.83862
5.9850,-10.54194381,160.3883329,1115.191575
5.9900,-9.303385367,160.2195633,1113.564673
5.9950,-8.064139889,160.0554013,1111.956749
6.0000,-6.824806001,159.8962524,1110.368284
6.0050,-5.585158202,159.743233,1108.799573
6.0100,-4.346462672,159.5969152,1107.250506
6.0150,-3.110170881,159.4566078,1105.720067
6.0200,-1.875766116,159.322262,1104.208092
6.0250,-0.6445077449,159.1945249,1102.714357
6.0300,0.5825241952,159.0728807,1101.238373
6.0350,1.805357774,158.9575349,1099.7791
6.0400,3.023817498,158.8479651,1098.336407
6.0450,4.23790324,158.7436352,1096.909855
6.0500,5.447065238,158.6456871,1095.49995
6.0550,6.652108661,158.5531837,1094.105777
6.0600,7.852916212,158.4654966,1092.727349
6.0650,9.048331445,158.3830519,1091.366099
6.0700,10.23983247,158.3062985,1090.021662
6.0750,11.42740975,158.2364747,1088.69452
6.0800,12.61174707,158.1743944,1087.385428
6.0850,13.79376048,158.1189873,1086.094031
6.0900,14.97472416,158.0715956,1084.8204
6.0950,16.15452222,158.0321291,1083.565104
6.1000,17.33527648,158.000325,1082.327011
6.1050,18.51724152,157.9752815,1081.106252
6.1100,19.70195635,157.95693,1079.902827
6.1150,20.89009167,157.9455338,1078.716775
6.1200,22.08257165,157.9389038,1077.547372
6.1250,23.28027613,157.9368422,1076.394877
6.1300,24.48234422,157.936354,1075.258535
6.1350,25.69005252,157.936731,1074.137764
6.1400,26.90386679,157.9371135,1073.032522
6.1450,28.12220417,157.9362006,1071.942563
6.1500,29.34653807,157.9323108,1070.866491
6.1550,30.57617618,157.9243337,1069.804397
6.1600,31.8106454,157.911,1068.755115
6.1650,33.05143768,157.893062,1067.71855
6.1700,34.29807214,157.8700473,1066.694284
6.1750,35.55132411,157.8400525,1065.681623
6.1800,36.8122168,157.8036003,1064.680137
6.1850,38.07909671,157.7597947,1063.690454
6.1900,39.3522902,157.7083719,1062.711936
6.1950,40.63100681,157.6488775,1061.744424
6.2000,41.91434414,157.579358,1060.787266
6.2050,43.20043189,157.5005199,1059.841325
6.2100,44.4899845,157.4119862,1058.90613
6.2150,45.78099969,157.3133558,1057.981944
6.2200,47.07322357,157.2049485,1057.068575
6.2250,48.36752586,157.086938,1056.165991
6.2300,49.66391755,156.9601829,1055.274164
6.2350,50.95975243,156.8226619,1054.392765
6.2400,52.25567202,156.6746903,1053.521466
6.2450,53.55237634,156.5170015,1052.660475
6.2500,54.84784286,156.3481747,1051.809513
6.2550,56.14233594,156.1688724,1050.96819
6.2600,57.43512392,155.9793573,1050.137127
6.2650,58.72513714,155.779456,1049.315678
6.2700,60.0120108,155.5707038,1048.504564
6.2750,61.29465744,155.3536869,1047.703675
6.2800,62.57282672,155.1292263,1046.913265
6.2850,63.84745677,154.898122,1046.132886
6.2900,65.11894722,154.6599077,1045.361779
6.2950,66.38715325,154.4175562,1044.600781
6.3000,67.65299758,154.1720886,1043.849476
6.3050,68.91635538,153.9229998,1043.10746
6.3100,70.17794461,153.6713109,1042.374851
6.3150,71.43970722,153.4180666,1041.651293
6.3200,72.70023117,153.1637854,1040.936923
6.3250,73.95986642,152.9074626,1040.231224
6.3300,75.22053864,152.6509987,1039.534017
6.3350,76.4813344,152.3932742,1038.845322
6.3400,77.74209823,152.1351116,1038.164841
6.3450,79.00217079,151.8772267,1037.493077
6.3500,80.26269413,151.6183059,1036.829064
6.3550,81.52593717,151.3600781,1036.172759
6.3600,82.79108855,151.102705,1035.523977
6.3650,84.05996776,150.8467116,1034.882325
6.3700,85.33291052,150.5916822,1034.247627
6.3750,86.61131395,150.338073,1033.619544
6.3800,87.8958997,150.0856773,1032.997452
6.3850,89.18690117,149.8362233,1032.382113
6.3900,90.48425177,149.5890236,1031.773177
6.3950,91.78833024,149.345078,1031.170748
6.4000,93.09937535,149.1055518,1030.575451
6.4050,94.41683273,148.8700425,1029.9871
6.4100,95.73964784,148.6393853,1029.405897
6.4150,97.06780984,148.4144384,1028.832297
6.4200,98.40122167,148.1957506,1028.266416
6.4250,99.73951609,147.9828989,1027.708049
6.4300,101.0845858,147.7768281,1027.157044
6.4350,102.4361419,147.5772412,1026.613546
6.4400,103.7942872,147.3854997,1026.077757
6.4450,105.1613703,147.2015539,1025.549382
6.4500,106.5361561,147.025591,1025.028903
6.4550,107.9197887,146.8584862,1024.516427
6.4600,109.3134421,146.699966,1024.011906
6.4650,110.715339,146.5480821,1023.514977
6.4700,112.1253197,146.4034842,1023.026147
6.4750,113.5438809,146.2656856,1022.545245
6.4800,114.9672544,146.1317518,1022.072112
6.4850,116.3973229,146.0027613,1021.606627
6.4900,117.8336077,145.8782735,1021.149043
6.4950,119.2750376,145.7567435,1020.699087
6.5000,120.7217433,145.639079,1020.25705
6.5050,122.1737557,145.5252235,1019.823096
6.5100,123.6302406,145.4151085,1019.397179
6.5150,125.0923504,145.3087177,1018.979188
6.5200,126.558398,145.2065677,1018.56964
6.5250,128.0274279,145.1071872,1018.16813
6.5300,129.49705,145.0097451,1017.774992
6.5350,130.9676272,144.9156257,1017.390707
6.5400,132.4377541,144.8235286,1017.015068
6.5450,133.9058807,144.7332225,1016.648009
6.5500,135.3726183,144.6464451,1016.290014
6.5550,136.8353082,144.5619627,1015.941008
6.5600,138.2938037,144.4794186,1015.600492
6.5650,139.7471328,144.4003407,1015.269305
6.5700,141.1949019,144.3224418,1014.946434
6.5750,142.6382159,144.2445654,1014.631324
6.5800,144.0784657,144.1664113,1014.323346
6.5850,145.5155562,144.0869571,1014.02229
6.5900,146.9526226,144.0040492,1013.726899
6.5950,148.3912483,143.9163653,1013.436265
6.6000,149.8301546,143.8234273,1013.150459
6.6050,151.2688682,143.7244163,1012.868835
6.6100,152.7063117,143.6185739,1012.591336
6.6150,154.1406728,143.5059173,1012.317894
6.6200,155.5725304,143.3866404,1012.048372
6.6250,157.0031858,143.2627533,1011.782939
6.6300,158.4324722,143.1327978,1011.520913
6.6350,159.8618537,142.9982052,1011.262134
6.6400,161.2914271,142.8590679,1011.006537
6.6450,162.7226258,142.7165305,1010.754162
6.6500,164.1556067,142.5714959,1010.504989
6.6550,165.5897253,142.4237309,1010.2589
6.6600,167.0267649,142.2732546,1010.01554
6.6650,168.4651345,142.119995,1009.774966
6.6700,169.9065715,141.9654424,1009.537311
6.6750,171.3499605,141.8089145,1009.302353
6.6800,172.7933294,141.6512052,1009.070584
6.6850,174.2362834,141.4929602,1008.842084
6.6900,175.6779351,141.3334608,1008.616592
6.6950,177.1175306,141.1732353,1008.394458
6.7000,178.5551555,141.0111647,1008.175161
6.7050,179.9897565,140.8469031,1007.958878
6.7100,181.4206607,140.6794996,1007.745448
6.7150,182.8477875,140.507716,1007.534462
6.7200,184.2700488,140.330605,1007.326055
6.7250,185.6870277,140.1486103,1007.120391
6.7300,187.0972031,139.9604842,1006.917338
6.7350,188.4978242,139.7668903,1006.71742
6.7400,189.8869596,139.5668476,1006.520611
6.7450,191.2612146,139.3608711,1006.327321
6.7500,192.6190253,139.1497691,1006.138109
6.7550,193.9575229,138.9333973,1005.952967
6.7600,195.2748616,138.7118153,1005.771974
6.7650,196.5713079,138.4875737,1005.595867
6.7700,197.8474712,138.2602284,1005.424358
6.7750,199.1019354,138.0319568,1005.258001
6.7800,200.3383208,137.8059398,1005.097575
6.7850,201.5553735,137.5818868,1004.94279
6.7900,202.7532075,137.3605965,1004.793809
6.7950,203.9316558,137.1446687,1004.651336
6.8000,205.0919602,136.9344423,1004.51535
6.8050,206.2339906,136.730995,1004.38593
6.8100,207.3584035,136.5350337,1004.263277
6.8150,208.4671579,136.3477598,1004.147476
6.8200,209.5589768,136.1686881,1004.038405
6.8250,210.6361989,136.0003927,1003.936499
6.8300,211.6999268,135.8425865,1003.841434
6.8350,212.752161,135.6951728,1003.753026
6.8400,213.7936979,135.5580705,1003.671109
6.8450,214.8260506,135.43196,1003.595764
6.8500,215.8506463,135.3158829,1003.526554
6.8550,216.8692465,135.2100419,1003.463435
6.8600,217.8813794,135.1145927,1003.406558
6.8650,218.8904628,135.0269023,1003.354762
6.8700,219.8973913,134.947768,1003.308237
6.8750,220.9022276,134.8770054,1003.266714
6.8800,221.9047475,134.8144585,1003.23014
6.8850,222.9045185,134.7603035,1003.198488
6.8900,223.9000361,134.7163769,1003.172481
6.8950,224.8902465,134.67989,1003.15114
6.9000,225.8749767,134.6522109,1003.13472
6.9050,226.8572496,134.6330761,1003.123107
6.9100,227.8380259,134.6228982,1003.116246
6.9150,228.8196579,134.6219789,1003.114042
6.9200,229.8018944,134.6288262,1003.116075
6.9250,230.7848937,134.6430524,1003.122132
6.9300,231.7671651,134.6644203,1003.132125
6.9350,232.7496397,134.693186,1003.146061
6.9400,233.732534,134.7284172,1003.163651
6.9450,234.7155754,134.7685971,1003.184329
6.9500,235.6971669,134.8125849,1003.207848
6.9550,236.6777114,134.8604718,1003.234137
6.9600,237.6558795,134.9125602,1003.263376
6.9650,238.6322695,134.9675717,1003.295137
6.9700,239.6047594,135.0252294,1003.329331
6.9750,240.5722246,135.0861085,1003.366141
6.9800,241.5356865,135.1496019,1003.405298
6.9850,242.4929774,135.2139088,1003.4461
6.9900,243.4432693,135.2787385,1003.488482
6.9950,244.385464,135.3433653,1003.532147
7.0000,245.3175316,135.4067294,1003.576605
7.0050,246.239288,135.4698043,1003.622064
7.0100,247.1497521,135.5302893,1003.667764
7.0150,248.0488608,135.5885083,1003.713747
7.0200,248.9354631,135.6459976,1003.760319
7.0250,249.8085333,135.7012352,1003.806819
7.0300,250.6677528,135.7555045,1003.853636
7.0350,251.5133373,135.8088412,1003.900701
7.0400,252.3440954,135.8607635,1003.947675
7.0450,253.1590009,135.9112271,1003.994453
7.0500,253.9587418,135.9599356,1004.040819
7.0550,254.7431722,136.0062424,1004.086376
7.0600,255.510212,136.0503924,1004.131145
7.0650,256.2600456,136.0906345,1004.174536
7.0700,256.9918432,136.1261169,1004.216128
7.0750,257.704854,136.1568044,1004.255928
7.0800,258.3982214,136.1807026,1004.293065
7.0850,259.0717921,136.1972929,1004.327482
7.0900,259.7241346,136.2049653,1004.358464
7.0950,260.3571973,136.2035035,1004.385986
7.1000,260.9700922,136.1930146,1004.409968
7.1050,261.5629617,136.1718672,1004.429911
7.1100,262.1366557,136.1399802,1004.445603
7.1150,262.6884739,136.0969229,1004.456895
7.1200,263.2211928,136.0424611,1004.463567
7.1250,263.7329969,135.9756597,1004.465369
7.1300,264.2248874,135.8967337,1004.46239
7.1350,264.6957901,135.8059542,1004.45452
7.1400,265.1470517,135.7046586,1004.442346
7.1450,265.5779338,135.5910883,1004.42516
7.1500,265.9878293,135.4663888,1004.403317
7.1550,266.3784554,135.3305353,1004.376757
7.1600,266.7503962,135.1839147,1004.34556
7.1650,267.1043902,135.0276249,1004.310183
7.1700,267.4405304,134.8616081,1004.270598
7.1750,267.7601623,134.686108,1004.227005
7.1800,268.0630893,134.5018822,1004.17954
7.1850,268.3493472,134.3084937,1004.128111
7.1900,268.6199403,134.1060897,1004.072692
7.1950,268.875257,133.8968168,1004.014126
7.2000,269.1175213,133.6794343,1003.952027
7.2050,269.3452355,133.4561374,1003.88714
7.2100,269.5579278,133.2250817,1003.818687
7.2150,269.7559193,132.9859744,1003.746812
7.2200,269.9398451,132.7392217,1003.671626
7.2250,270.1097322,132.4839453,1003.59301
7.2300,270.2665682,132.2222542,1003.511728
7.2350,270.4102867,131.9526133,1003.427281
7.2400,270.5415963,131.6768545,1003.340371
7.2450,270.660174,131.395143,1003.250999
7.2500,270.7675069,131.1072053,1003.159186
7.2550,270.8634287,130.8144524,1003.06538
7.2600,270.9487958,130.5163342,1002.96938
7.2650,271.0245519,130.2138156,1002.871612
7.2700,271.0899126,129.9075032,1002.772149
7.2750,271.1454617,129.5966281,1002.670772
7.2800,271.1903361,129.2822035,1002.567931
7.2850,271.2264567,128.9641509,1002.463644
7.2900,271.2535351,128.6439917,1002.358418
7.2950,271.2734059,128.3218098,1002.252332
7.3000,271.2861832,127.9992158,1002.145869
7.3050,271.2918305,127.6757028,1002.038961
7.3100,271.2912269,127.3531927,1001.932211
7.3150,271.2836257,127.032061,1001.825655
7.3200,271.2687727,126.71123,1001.718959
7.3250,271.2474047,126.3915596,1001.61253
7.3300,271.2224142,126.0731315,1001.506389
7.3350,271.1933024,125.7567919,1001.400634
7.3400,271.1611614,125.4425914,1001.295512
7.3450,271.1266417,125.1316078,1001.191403
7.3500,271.08939,124.8235466,1001.08814
7.3550,271.0488565,124.5185451,1000.985956
7.3600,271.0056971,124.2163288,1000.884677
7.3650,270.959144,123.9181724,1000.784635
7.3700,270.9079116,123.6245141,1000.685954
7.3750,270.8536433,123.3341788,1000.588332
7.3800,270.7934285,123.0476874,1000.491795
7.3850,270.7270731,122.7650993,1000.396386
7.3900,270.6550661,122.4874083,1000.302432
7.3950,270.5751937,122.2125709,1000.209263
7.4000,270.4875934,121.9401651,1000.116758
7.4050,270.3925922,121.6718978,1000.025381
7.4100,270.288951,121.4074212,999.934978
7.4150,270.1782337,121.1472071,999.8457225
7.4200,270.0595468,120.8926124,999.7580957
7.4250,269.9329461,120.6420934,999.6714946
7.4300,269.7976172,120.3968902,999.5862196
7.4350,269.6540808,120.1566643,999.5022341
7.4400,269.5026714,119.9210014,999.4193271
7.4450,269.3432471,119.6915408,999.3379853
7.4500,269.1764557,119.4678742,999.2581315
7.4550,269.0008625,119.2500507,999.1797181
7.4600,268.8168517,119.0376082,999.1025854
7.4650,268.6234161,118.8316427,999.0270701
7.4700,268.4209789,118.6319976,998.9530032
7.4750,268.2072376,118.4400258,998.8806652
7.4800,267.981518,118.2539169,998.8096256
7.4850,267.7428592,118.0752674,998.7402282
7.4900,267.4879704,117.9031934,998.6720818
7.4950,267.2166108,117.7384617,998.6053941
7.5000,266.9264627,117.5808369,998.5400885
7.5050,266.6171271,117.4282942,998.4754179
7.5100,266.2876129,117.2816408,998.4118062
7.5150,265.9338959,117.1404779,998.3490043
7.5200,265.5549382,117.0041023,998.2867861
7.5250,265.1494004,116.8736005,998.2253142
7.5300,264.7151784,116.7472379,998.1641571
7.5350,264.2520707,116.6261423,998.1037658
7.5400,263.7588524,116.5085107,998.0435785
7.5450,263.2352326,116.3954784,997.9839166
7.5500,262.6806719,116.2879288,997.9251353
7.5550,262.0951348,116.1847996,997.8670073
7.5600,261.4781427,116.0866191,997.8097509
7.5650,260.8300254,115.9924181,997.7531348
7.5700,260.1526709,115.9023775,997.6974604
7.5750,259.4470289,115.8156022,997.642593
7.5800,258.7144661,115.7311051,997.588208
7.5850,257.9549594,115.6497757,997.5348646
7.5900,257.1702654,115.5700443,997.4822782
7.5950,256.3615685,115.4911078,997.4303107
7.6000,255.5295752,115.4121551,997.3789537
7.6050,254.6758094,115.3327093,997.3282085
7.6100,253.802106,115.2522587,997.278047
7.6150,252.9105963,115.1706115,997.2285327
7.6200,252.0046061,115.0863206,997.1794665
7.6250,251.085197,115.0009939,997.1313343
7.6300,250.150873,114.9133066,997.0839606
7.6350,249.2034255,114.8219506,997.0372259
7.6400,248.2432459,114.7281537,996.9915999
7.6450,247.2715069,114.6312927,996.9469762
7.6500,246.2887945,114.5301804,996.9031783
7.6550,245.295565,114.4258666,996.8606479
7.6600,244.293326,114.3183201,996.8195598
7.6650,243.2810963,114.2081461,996.7803335
7.6700,242.2598421,114.0956978,996.7432338
7.6750,241.2294009,113.9815641,996.7084743
7.6800,240.1896159,113.8667431,996.6764812
7.6850,239.1433109,113.7518318,996.6474907
7.6900,238.0911088,113.6377992,996.6218539
7.6950,237.0334136,113.5263646,996.6001192
7.7000,235.9716144,113.4192075,996.5827524
7.7050,234.905197,113.3161598,996.569866
7.7100,233.8347829,113.2183219,996.5618942
7.7150,232.7610153,113.1259759,996.5589288
7.7200,231.6846296,113.0391575,996.5610285
7.7250,230.6059393,112.9598571,996.5688221
7.7300,229.5264743,112.8879043,996.5822419
7.7350,228.4472336,112.8232881,996.6014158
7.7400,227.3681829,112.7661071,996.6262589
7.7450,226.2913546,112.717609,996.6572882
7.7500,225.2173431,112.676772,996.6941418
7.7550,224.146769,112.6442845,996.7371625
7.7600,223.0816746,112.6193365,996.7861118
7.7650,222.0233877,112.6020744,996.8409562
7.7700,220.9699394,112.5936437,996.9021707
7.7750,219.9240637,112.593386,996.9696864
7.7800,218.886164,112.6027931,997.0437891
7.7850,217.8546772,112.6199929,997.12413
7.7900,216.8293949,112.6458856,997.2110621
7.7950,215.8083218,112.6801137,997.3046951
7.8000,214.7896979,112.722235,997.4050375
7.8050,213.7723532,112.7731749,997.512545
7.8100,212.7559533,112.8331885,997.6275195
7.8150,211.7400114,112.903134,997.7500193
7.8200,210.722942,112.9839174,997.8806635
7.8250,209.7032328,113.0745333,998.0193336
7.8300,208.6831331,113.1752202,998.1661552
7.8350,207.6588538,113.2857154,998.3213347
7.8400,206.6307725,113.4068693,998.4852318
7.8450,205.5995207,113.5377832,998.6578217
7.8500,204.5641892,113.6790509,998.839419
7.8550,203.5244462,113.8303611,999.0302306
7.8600,202.4799584,113.9911928,999.2303651
7.8650,201.4301164,114.1613805,999.440012
7.8700,200.3748085,114.3400702,999.6592796
7.8750,199.3150668,114.5281585,999.8888602
7.8800,198.2497688,114.7247759,1000.128922
7.8850,197.1796939,114.9292206,1000.379397
7.8900,196.1053494,115.141167,1000.640526
7.8950,195.026923,115.3609836,1000.912907
7.9000,193.9456271,115.5875963,1001.196511
7.9050,192.8627553,115.8216997,1001.491682
7.9100,191.7782872,116.0628562,1001.798666
7.9150,190.6917077,116.310019,1002.117407
7.9200,189.6031184,116.5645912,1002.448528
7.9250,188.5134321,116.8255461,1002.792032
7.9300,187.4223375,117.0934792,1003.148059
7.9350,186.3299956,117.3687175,1003.516953
7.9400,185.2355159,117.6517507,1003.898976
7.9450,184.1400326,117.9424281,1004.294048
7.9500,183.0427684,118.2431247,1004.703147
7.9550,181.9441264,118.5522887,1005.125721
7.9600,180.8432357,118.8722283,1005.562644
7.9650,179.7409379,119.2016409,1006.013352
7.9700,178.6373123,119.5410363,1006.478032
7.9750,177.5315505,119.8916462,1006.956898
7.9800,176.4252665,120.2527671,1007.450143
7.9850,175.3172106,120.6250013,1007.957953
7.9900,174.2063876,121.0080302,1008.480606
7.9950,173.0936214,121.4025159,1009.018107
8.0000,171.9778707,121.808704,1009.570897
8.0050,170.8597053,122.2266057,1010.138887
8.0100,169.7395285,122.6553205,1010.721955
8.0150,168.6164082,123.0962281,1011.320662
8.0200,167.4908809,123.5492468,1011.935252
8.0250,166.3635455,124.0142462,1012.565596
8.0300,165.2338594,124.4913392,1013.212016
8.0350,164.1022515,124.9810386,1013.874536
8.0400,162.9698374,125.482757,1014.553079
8.0450,161.8357064,125.9969988,1015.248
8.0500,160.7004386,126.5232682,1015.958736
8.0550,159.5649047,127.0610146,1016.685017
8.0600,158.4284625,127.6118066,1017.427637
8.0650,157.2904998,128.1742858,1018.18582
8.0700,156.1522702,128.7487163,1018.959336
8.0750,155.0124715,129.3342104,1019.748083
8.0800,153.8693085,129.9296661,1020.552038
8.0850,152.72458,130.5349997,1021.370663
8.0900,151.5778686,131.1503755,1022.203995
8.0950,150.4293684,131.7749614,1023.051477
8.1000,149.2792695,132.4074465,1023.913003
8.1050,148.1265499,133.0467745,1024.788144
8.1100,146.970784,133.6923108,1025.676622
8.1150,145.8111852,134.3425773,1026.578333
8.1200,144.6483859,134.9971956,1027.493066
8.1250,143.483753,135.6562522,1028.420694
8.1300,142.3146376,136.3176273,1029.360946
8.1350,141.1434397,136.9825815,1030.313848
8.1400,139.9702239,137.6495755,1031.27875
8.1450,138.7939129,138.3193192,1032.256153
8.1500,137.6163163,138.9895655,1033.245168
8.1550,136.4364172,139.6601083,1034.245885
8.1600,135.2550989,140.3311415,1035.258284
8.1650,134.071363,141.0015323,1036.282168
8.1700,132.88623,141.6715426,1037.317278
8.1750,131.6981529,142.3388037,1038.36294
8.1800,130.5089696,143.0036877,1039.419122
8.1850,129.3187433,143.6664238,1040.485573
8.1900,128.127965,144.3268658,1041.562459
8.1950,126.9353439,144.9831208,1042.649048
8.2000,125.7405671,145.6365171,1043.745422
8.2050,124.543892,146.2858663,1044.851705
8.2100,123.3448653,146.9310703,1045.967421
8.2150,122.1437568,147.5725011,1047.09278
8.2200,120.9418714,148.2099978,1048.227522
8.2250,119.7381259,148.8426386,1049.371492
8.2300,118.5318262,149.4698133,1050.52486
8.2350,117.3237782,150.092376,1051.687765
8.2400,116.1147098,150.7092554,1052.859876
8.2450,114.902953,151.3197847,1054.041274
8.2500,113.6892064,151.9246459,1055.232044
8.2550,112.4730947,152.5249235,1056.432618
8.2600,111.2548769,153.1186333,1057.642422
8.2650,110.0342313,153.7091241,1058.862408
8.2700,108.8114006,154.2964965,1060.092773
8.2750,107.5866128,154.8793048,1061.333778
8.2800,106.3599424,155.4597506,1062.585258
8.2850,105.1314135,156.0365897,1063.846893
8.2900,103.9027605,156.6123399,1065.119139
8.2950,102.6730033,157.1870079,1066.402207
8.3000,101.4435471,157.7596899,1067.695834
8.3050,100.2156461,158.3317817,1069.000104
8.3100,98.98768175,158.9036527,1070.315141
8.3150,97.76234758,159.4747002,1071.640177
8.3200,96.5384128,160.0454416,1072.975385
8.3250,95.31862067,160.6167012,1074.320974
8.3300,94.10257423,161.18815,1075.676431
8.3350,92.89134319,161.7596533,1077.041384
8.3400,91.68487427,162.331154,1078.415906
8.3450,90.48535328,162.9025404,1079.799208
8.3500,89.29231354,163.4740007,1081.191457
8.3550,88.10755064,164.046224,1082.592691
8.3600,86.93129639,164.6171146,1084.001983
8.3650,85.76401651,165.187966,1085.419689
8.3700,84.60663993,165.7572431,1086.84503
8.3750,83.45959017,166.324987,1088.277867
8.3800,82.32349872,166.8914188,1089.718095
8.3850,81.19873518,167.4566698,1091.166123
8.3900,80.08502802,168.0202513,1092.621844
8.3950,78.98106422,168.5823382,1094.08547
8.4000,77.88742979,169.1436576,1095.557083
8.4050,76.80335457,169.7036533,1097.03666
8.4100,75.72925692,170.2635767,1098.524362
8.4150,74.66561338,170.8228059,1100.020373
8.4200,73.61159635,171.3815222,1101.524365
8.4250,72.56685717,171.9394602,1103.036171
8.4300,71.53103554,172.4974026,1104.556165
8.4350,70.50228761,173.0537439,1106.084207
8.4400,69.48090417,173.6091653,1107.620718
8.4450,68.46582842,174.163045,1109.164977
8.4500,67.45619112,174.7146625,1110.717588
8.4550,66.45259438,175.2640215,1112.277944
8.4600,65.45368971,175.8112283,1113.846499
8.4650,64.45895211,176.3555795,1115.422914
8.4700,63.46662651,176.8955526,1117.006645
8.4750,62.47769191,177.4317501,1118.59802
8.4800,61.49050798,177.9650064,1120.196708
8.4850,60.50621196,178.4929145,1121.802807
8.4900,59.52252733,179.0165803,1123.416294
8.4950,58.54134268,179.5366799,1125.037133
8.5000,57.56308012,180.0494288,1126.66408
8.5050,56.58668563,180.5559513,1128.297709
8.5100,55.61273327,181.0555905,1129.938326
8.5150,54.64124096,181.5478325,1131.584752
8.5200,53.66886061,182.0312487,1133.23772
8.5250,52.69620032,182.505877,1134.896599
8.5300,51.72371671,182.9719917,1136.561532
8.5350,50.75031952,183.4288827,1138.232759
8.5400,49.77591051,183.8757336,1139.909401
8.5450,48.80117668,184.3133702,1141.591978
8.5500,47.82674044,184.7404696,1143.280486
8.5550,46.85224029,185.1571581,1144.973961
8.5600,45.87790904,185.5643202,1146.67374
8.5650,44.90438782,185.9603074,1148.378379
8.5700,43.93153971,186.3449416,1150.087975
8.5750,42.96021763,186.7191829,1151.802241
8.5800,41.99070385,187.0824473,1153.5207
8.5850,41.024415,187.4363346,1155.244529
8.5900,40.06078235,187.7797015,1156.973012
8.5950,39.09928531,188.1127879,1158.706264
8.6000,38.13993483,188.4355525,1160.443727
8.6050,37.18243356,188.7484315,1162.186221
8.6100,36.22843026,189.0516478,1163.933114
8.6150,35.27810459,189.3444887,1165.684198
8.6200,34.33236495,189.6281302,1167.43976
8.6250,33.39160674,189.9024911,1169.199722
8.6300,32.45695763,190.1677336,1170.963443
8.6350,31.52893074,190.4246822,1172.731745
8.6400,30.60712169,190.6738004,1174.504485
8.6450,29.6913492,190.9146795,1176.281083
8.6500,28.78258233,191.1466031,1178.062268
8.6550,27.87952487,191.3691116,1179.846512
8.6600,26.98376702,191.5841838,1181.634106
8.6650,26.09378585,191.7909085,1183.425262
8.6700,25.20967641,191.9885098,1185.219712
8.6750,24.33115099,192.1776576,1187.016908
8.6800,23.45862086,192.3580817,1188.816539
8.6850,22.59043253,192.5306454,1190.618477
8.6900,21.72734144,192.6952512,1192.42298
8.6950,20.86901542,192.8513476,1194.229579
8.7000,20.01574912,192.9997944,1196.037887
8.7050,19.1674602,193.1405623,1197.847685
8.7100,18.32294055,193.2725125,1199.659471
8.7150,17.48211747,193.3969355,1201.472381
8.7200,16.64409378,193.5123851,1203.286781
8.7250,15.80823819,193.6185369,1205.102578
8.7300,14.973924,193.7159602,1206.919533
8.7350,14.1420134,193.8057567,1208.737735
8.7400,13.31003061,193.8861592,1210.556742
8.7450,12.47935034,193.9574261,1212.376533
8.7500,11.64853773,194.0196991,1214.197031
8.7550,10.81688052,194.0727384,1216.018779
8.7600,9.985811372,194.1163696,1217.840548
8.7650,9.156132626,194.1515037,1219.662902
8.7700,8.328855971,194.1775507,1221.48569
8.7750,7.503002898,194.1946523,1223.308753
8.7800,6.67979113,194.2018651,1225.131657
8.7850,5.857573704,194.1996757,1226.953976
8.7900,5.037219204,194.1874874,1228.774681
8.7950,4.217550418,194.1645148,1230.594099
8.8000,3.398400431,194.1326024,1232.412843
8.8050,2.580813146,194.0919949,1234.229372
8.8100,1.764689566,194.042985,1236.04352
8.8150,0.9505497432,193.9848536,1237.855016
8.8200,0.1417242668,193.9196593,1239.663907
8.8250,-0.6625775108,193.8462924,1241.46981
8.8300,-1.461952755,193.7654349,1243.272722
8.8350,-2.255637299,193.6770265,1245.071931
8.8400,-3.042580099,193.5828874,1246.868344
8.8450,-3.821916333,193.4833604,1248.662045
8.8500,-4.594036998,193.3787673,1250.452195
8.8550,-5.356721102,193.2695038,1252.239217
8.8600,-6.109713808,193.1559592,1254.021985
8.8650,-6.852990536,193.0381566,1255.801163
8.8700,-7.585108631,192.9168724,1257.577015
8.8750,-8.306716994,192.7913393,1259.348428
8.8800,-9.018190291,192.6616979,1261.116372
8.8850,-9.719828933,192.5277944,1262.880038
8.8900,-10.41129869,192.390189,1264.640445
8.8950,-11.09061521,192.2487405,1266.396192
8.9000,-11.75621156,192.1052978,1268.147859
8.9050,-12.40871234,191.9581525,1269.89458
8.9100,-13.04815852,191.8082951,1271.637032
8.9150,-13.67453332,191.6561921,1273.375826
8.9200,-14.28780976,191.5021325,1275.110584
8.9250,-14.88959128,191.3454632,1276.840469
8.9300,-15.47865599,191.1863297,1278.566436
8.9350,-16.05646833,191.0245855,1280.288069
8.9400,-16.62207554,190.8599909,1282.00478
8.9450,-17.17534686,190.6918985,1283.716391
8.9500,-17.71685691,190.5212544,1285.422514
8.9550,-18.24642633,190.3465817,1287.123199
8.9600,-18.76340075,190.1684011,1288.818987
8.9650,-19.26854533,189.9867345,1290.508946
8.9700,-19.76221097,189.8020714,1292.193509
8.9750,-20.24441218,189.6141407,1293.873134
8.9800,-20.71601662,189.4218109,1295.547968
8.9850,-21.17676265,189.2248197,1297.21757
8.9900,-21.6277458,189.0244108,1298.882174
8.9950,-22.06815744,188.8199612,1300.541318
9.0000,-22.49922369,188.6116088,1302.196176
9.0050,-22.92072521,188.4000214,1303.846642
9.0100,-23.33343744,188.1847625,1305.492622
9.0150,-23.73701878,187.9662431,1307.134449
9.0200,-24.1328995,187.7447729,1308.772124
9.0250,-24.52223054,187.5205104,1310.406089
9.0300,-24.90568839,187.2930374,1312.036172
9.0350,-25.2853021,187.0617364,1313.662819
9.0400,-25.6605291,186.8267709,1315.287327
9.0450,-26.03285717,186.5873768,1316.909198
9.0500,-26.40256357,186.3450238,1318.528967
9.0550,-26.76887758,186.0995255,1320.146671
9.0600,-27.13373195,185.8509042,1321.76332
9.0650,-27.49681172,185.5995993,1323.379181
9.0700,-27.85929949,185.3466923,1324.994595
9.0750,-28.22090873,185.0915786,1326.609911
9.0800,-28.58081483,184.8349619,1328.225619
9.0850,-28.94022667,184.5774369,1329.842234
9.0900,-29.29711267,184.3179813,1331.45964
9.0950,-29.65157005,184.0575262,1333.077846
9.1000,-30.00344263,183.7968505,1334.696633
9.1050,-30.3521411,183.5345836,1336.317011
9.1100,-30.69798719,183.2707367,1337.9386
9.1150,-31.04120611,183.0046223,1339.561925
9.1200,-31.383695,182.7362189,1341.186672
9.1250,-31.724092,182.4660233,1342.813404
9.1300,-32.06236383,182.1936169,1344.441788
9.1350,-32.39867653,181.9178207,1346.071074
9.1400,-32.73374954,181.6384031,1347.701202
9.1450,-33.06807062,181.3540856,1349.331328
9.1500,-33.40213706,181.0646277,1350.961263
9.1550,-33.73697297,180.7706035,1352.590415
9.1600,-34.07244969,180.4707997,1354.219558
9.1650,-34.40863201,180.1659673,1355.848142
9.1700,-34.74567135,179.8560448,1357.475313
9.1750,-35.08247971,179.5414113,1359.101859
9.1800,-35.41901253,179.2228353,1360.727071
9.1850,-35.75517425,178.9013373,1362.350602
9.1900,-36.09015735,178.577034,1363.97234
9.1950,-36.42417544,178.2509877,1365.592232
9.2000,-36.75740747,177.9232031,1367.210076
9.2050,-37.08799756,177.5955139,1368.826451
9.2100,-37.41495644,177.2684818,1370.440024
9.2150,-37.73893785,176.941807,1372.050728
9.2200,-38.05865578,176.6155488,1373.657599
9.2250,-38.37274843,176.2909661,1375.260916
9.2300,-38.68318796,175.967372,1376.859779
9.2350,-38.98806942,175.6450646,1378.454323
9.2400,-39.28784595,175.3236752,1380.043872
9.2450,-39.58179754,175.0035877,1381.6285
9.2500,-39.87107694,174.6846549,1383.206691
9.2550,-40.15518351,174.3674901,1384.779487
9.2600,-40.4357604,174.0513788,1386.345581
9.2650,-40.71094934,173.7364216,1387.905023
9.2700,-40.98009204,173.4230307,1389.457177
9.2750,-41.24324841,173.1104131,1391.001915
9.2800,-41.50083279,172.8005375,1392.539178
9.2850,-41.75246157,172.4914396,1394.068245
9.2900,-41.99786867,172.1828891,1395.589029
9.2950,-42.23774341,171.8753441,1397.10104
9.3000,-42.47192233,171.5685231,1398.604282
9.3050,-42.70116193,171.2619551,1400.098908
9.3100,-42.92611015,170.9556005,1401.584338
9.3150,-43.14663117,170.6492848,1403.061825
9.3200,-43.36259442,170.3433898,1404.531001
9.3250,-43.57266642,170.0375502,1405.992018
9.3300,-43.77585048,169.7318228,1407.445549
9.3350,-43.97090992,169.4251822,1408.890792
9.3400,-44.15809369,169.1179072,1410.327493
9.3450,-44.3358866,168.8101633,1411.756069
9.3500,-44.50509491,168.5006484,1413.176953
9.3550,-44.66649934,168.1889181,1414.590148
9.3600,-44.81938346,167.8737421,1415.995795
9.3650,-44.96406568,167.5546106,1417.393359
9.3700,-45.10111041,167.2296265,1418.782568
9.3750,-45.22983956,166.8992296,1420.163512
9.3800,-45.3516157,166.5625562,1421.536074
9.3850,-45.46536617,166.2188236,1422.900657
9.3900,-45.57261127,165.867498,1424.257629
9.3950,-45.67321585,165.5089741,1425.607198
9.4000,-45.76777927,165.1424603,1426.949484
9.4050,-45.85716303,164.7675032,1428.283847
9.4100,-45.94161746,164.3844412,1429.611366
9.4150,-46.02030512,163.9953995,1430.932261
9.4200,-46.09329044,163.5981981,1432.246553
9.4250,-46.16098109,163.194348,1433.554129
9.4300,-46.22328877,162.7842198,1434.855382
9.4350,-46.28071232,162.3677817,1436.151446
9.4400,-46.33389512,161.9451108,1437.441316
9.4450,-46.38310769,161.5172186,1438.726403
9.4500,-46.42902366,161.0840644,1440.00673
9.4550,-46.47072309,160.6447565,1441.283442
9.4600,-46.50997035,160.2013739,1442.555692
9.4650,-46.54707877,159.7533603,1443.824836
9.4700,-46.58233292,159.3013727,1445.091391
9.4750,-46.61759051,158.8468863,1446.355849
9.4800,-46.65134353,158.3899926,1447.618306
9.4850,-46.6836267,157.9300698,1448.87955
9.4900,-46.71437101,157.4675926,1450.138932
9.4950,-46.74348298,157.0038616,1451.397032
9.5000,-46.77123911,156.5379492,1452.654208
9.5050,-46.79830597,156.0707334,1453.909768
9.5100,-46.82401491,155.6014654,1455.165234
9.5150,-46.84841645,155.1315805,1456.420491
9.5200,-46.87140175,154.660472,1457.675429
9.5250,-46.89375219,154.1890041,1458.930427
9.5300,-46.91455571,153.7179614,1460.185678
9.5350,-46.9346414,153.2471827,1461.440671
9.5400,-46.95332898,152.7773177,1462.696091
9.5450,-46.97259391,152.3088376,1463.951154
9.5500,-46.99044407,151.8419446,1465.205977
9.5550,-47.00688758,151.3762327,1466.460092
9.5600,-47.02285024,150.9113714,1467.713108
9.5650,-47.0379307,150.4460578,1468.964897
9.5700,-47.05361192,149.9808432,1470.215619
9.5750,-47.0691924,149.5159351,1471.464902
9.5800,-47.08404856,149.0508106,1472.711845
9.5850,-47.09916791,148.5872657,1473.957556
9.5900,-47.11522778,148.1248332,1475.201126
9.5950,-47.13116983,147.6640622,1476.443568
9.6000,-47.14704538,147.2049242,1477.683927
9.6050,-47.16267945,146.7478349,1478.922774
9.6100,-47.17732562,146.2933147,1480.160149
9.6150,-47.19078944,145.8408969,1481.395086
9.6200,-47.20175118,145.3913417,1482.627396
9.6250,-47.21120726,144.9437634,1483.857799
9.6300,-47.2183625,144.4983782,1485.084833
9.6350,-47.22289931,144.0548792,1486.309259
9.6400,-47.22556204,143.6141438,1487.530914
9.6450,-47.2258274,143.1759522,1488.749896
9.6500,-47.22166059,142.7393577,1489.965216
9.6550,-47.21401472,142.3050777,1491.177048
9.6600,-47.2007579,141.8726036,1492.384499
9.6650,-47.18242192,141.4420686,1493.588002
9.6700,-47.15727809,141.0149261,1494.787753
9.6750,-47.12529162,140.5910576,1495.983341
9.6800,-47.08608739,140.1688888,1497.174833
9.6850,-47.03947006,139.74983,1498.361869
9.6900,-46.98482387,139.3339824,1499.54394
9.6950,-46.92217744,138.9201807,1500.720312
9.7000,-46.85097445,138.5100677,1501.890925
9.7050,-46.77029082,138.1030001,1503.056469
9.7100,-46.6812625,137.6989117,1504.215341
9.7150,-46.58488003,137.2959904,1505.367412
9.7200,-46.48046665,136.8951675,1506.512506
9.7250,-46.3694702,136.4963476,1507.650746
9.7300,-46.25108764,136.098246,1508.781049
9.7350,-46.12610027,135.701861,1509.902999
9.7400,-45.99501871,135.3075818,1511.016891
9.7450,-45.85787913,134.9140792,1512.120847
9.7500,-45.7139145,134.521549,1513.214617
9.7550,-45.56532425,134.130528,1514.298388
9.7600,-45.40988546,133.7397782,1515.37141
9.7650,-45.24892847,133.3489589,1516.432143
9.7700,-45.08334094,132.957692,1517.480422
9.7750,-44.91208461,132.5655126,1518.515171
9.7800,-44.73633722,132.1724023,1519.535854
9.7850,-44.55667547,131.7779956,1520.542284
9.7900,-44.37417707,131.3829942,1521.534493
9.7950,-44.18822334,130.9868066,1522.512548
9.8000,-43.99878029,130.5913895,1523.477029
9.8050,-43.80623972,130.1957486,1524.427634
9.8100,-43.61117584,129.8003004,1525.363736
9.8150,-43.41317908,129.4049488,1526.285653
9.8200,-43.21228246,129.0114826,1527.194062
9.8250,-43.01002259,128.618314,1528.089349
9.8300,-42.80496944,128.2263504,1528.972007
9.8350,-42.59786238,127.8360039,1529.841681
9.8400,-42.38980032,127.4474127,1530.699741
9.8450,-42.17937612,127.0603401,1531.54625
9.8500,-41.96728624,126.6737377,1532.382034
9.8550,-41.75473916,126.2881228,1533.206834
9.8600,-41.53953568,125.9049962,1534.021498
9.8650,-41.32314942,125.5235804,1534.826758
9.8700,-41.10546634,125.1429301,1535.622286
9.8750,-40.88661335,124.7636061,1536.409212
9.8800,-40.66691738,124.3855768,1537.187571
9.8850,-40.44590247,124.0081022,1537.957522
9.8900,-40.22329906,123.6295946,1538.719051
9.8950,-39.99718185,123.2510289,1539.472281
9.9000,-39.76769839,122.8720141,1540.217315
9.9050,-39.53349254,122.4914964,1540.953362
9.9100,-39.29402909,122.1098872,1541.681062
9.9150,-39.04964792,121.726215,1542.400238
9.9200,-38.79961791,121.3392249,1543.110693
9.9250,-38.54276942,120.9504545,1543.812125
9.9300,-38.27838525,120.5590404,1544.505428
9.9350,-38.00566655,120.1656903,1545.189393
9.9400,-37.72205493,119.768307,1545.863144
9.9450,-37.42809942,119.3669275,1546.526633
9.9500,-37.12441433,118.9612045,1547.180213
9.9550,-36.80995265,118.5508781,1547.823262
9.9600,-36.48753977,118.136193,1548.456569
9.9650,-36.15707195,117.7165853,1549.080453
9.9700,-35.82015038,117.2906498,1549.694678
9.9750,-35.47906976,116.8583988,1550.300595
9.9800,-35.13466229,116.4217008,1550.898693
9.9850,-34.78767659,115.978263,1551.488676
9.9900,-34.43878062,115.529853,1552.071701
9.9950,-34.08847663,115.0768605,1552.64791
10.0000,-33.73720393,114.6183164,1553.218087
10.0050,-33.38783676,114.1554144,1553.782449
10.0100,-33.03911072,113.6902169,1554.342352
10.0150,-32.69403558,113.2220109,1554.898565
10.0200,-32.35283653,112.752848,1555.451698
10.0250,-32.01631988,112.2825172,1556.002022
10.0300,-31.68568857,111.8131337,1556.55051
10.0350,-31.36190652,111.3448606,1557.09758
10.0400,-31.04493205,110.877909,1557.64315
10.0450,-30.73568212,110.4128108,1558.187967
10.0500,-30.43573619,109.9509782,1558.732463
10.0550,-30.14409879,109.4927427,1559.275815
10.0600,-29.86406536,109.03904,1559.818812
10.0650,-29.59448706,108.5899521,1560.361876
10.0700,-29.3346673,108.1464925,1560.904214
10.0750,-29.08545249,107.7090837,1561.446198
10.0800,-28.84510609,107.2775303,1561.987885
10.0850,-28.61358959,106.8529273,1562.52858
10.0900,-28.38987177,106.4357322,1563.068021
10.0950,-28.17450404,106.0253385,1563.605663
10.1000,-27.9679465,105.6208254,1564.1416
10.1050,-27.76919053,105.2233565,1564.676212
10.1100,-27.57877637,104.8334879,1565.210181
10.1150,-27.39614041,104.451859,1565.74347
10.1200,-27.2213346,104.078593,1566.276819
10.1250,-27.05173311,103.7142576,1566.809389
10.1300,-26.88936278,103.3583069,1567.341619
10.1350,-26.73401514,103.0100509,1567.874311
10.1400,-26.58442234,102.6698834,1568.406508
10.1450,-26.44127583,102.3376839,1568.939267
10.1500,-26.30444089,102.0153774,1569.473335
10.1550,-26.17343058,101.7022068,1570.008903
10.1600,-26.04948226,101.3965631,1570.545943
10.1650,-25.93247339,101.0994563,1571.08422
10.1700,-25.82126092,100.8109792,1571.623294
10.1750,-25.7167445,100.5298013,1572.162723
10.1800,-25.6186278,100.2553502,1572.703239
10.1850,-25.52764491,99.98731324,1573.243875
10.1900,-25.44272169,99.72485385,1573.784325
10.1950,-25.36720493,99.46711296,1574.32445
10.2000,-25.30041851,99.21261056,1574.86432
10.2050,-25.24154429,98.96358984,1575.403421
10.2100,-25.19016444,98.71736031,1575.940525
10.2150,-25.14606833,98.47442418,1576.475554
10.2200,-25.11083286,98.23424145,1577.008397
10.2250,-25.08382982,97.99492892,1577.538211
10.2300,-25.06415775,97.75632242,1578.064295
10.2350,-25.05219608,97.51657587,1578.586842
10.2400,-25.04965948,97.27657659,1579.106267
10.2450,-25.05646298,97.03476479,1579.622155
10.2500,-25.07137003,96.79099775,1580.134134
10.2550,-25.09457024,96.54409401,1580.64241
10.2600,-25.12623841,96.293515,1581.146303
10.2650,-25.16419349,96.03870517,1581.64464
10.2700,-25.20921743,95.77895697,1582.138459
10.2750,-25.26000554,95.51379389,1582.626426
10.2800,-25.31629704,95.24178477,1583.107569
10.2850,-25.37826395,94.96390812,1583.582669
10.2900,-25.44579484,94.67862602,1584.0511
10.2950,-25.51871353,94.38521966,1584.512443
10.3000,-25.59765268,94.08295183,1584.965793
10.3050,-25.68170749,93.77220276,1585.411445
10.3100,-25.77170984,93.45128318,1585.847745
10.3150,-25.8643702,93.12185095,1586.273745
10.3200,-25.96108264,92.78197921,1586.689038
10.3250,-26.0615824,92.43196082,1587.093714
10.3300,-26.1665988,92.07179689,1587.487204
10.3350,-26.27411871,91.70288163,1587.868947
10.3400,-26.38429643,91.32398416,1588.237724
10.3450,-26.49669884,90.93825108,1588.594189
10.3500,-26.610182,90.54511276,1588.9371
10.3550,-26.7251097,90.14561907,1589.266149
10.3600,-26.84005491,89.74022652,1589.580111
10.3650,-26.9554193,89.33048727,1589.879066
10.3700,-27.07153406,88.91750131,1590.163549
10.3750,-27.18920542,88.50119525,1590.432444
10.3800,-27.30847426,88.08286962,1590.685551
10.3850,-27.42985665,87.66261153,1590.923031
10.3900,-27.55305927,87.24170014,1591.144837
10.3950,-27.67686087,86.82408482,1591.351572
10.4000,-27.80268603,86.41003147,1591.543184
10.4050,-27.9299765,86.00044131,1591.719714
10.4100,-28.05868988,85.59736478,1591.881136
10.4150,-28.18828892,85.20344,1592.028117
10.4200,-28.31847801,84.8188347,1592.159574
10.4250,-28.44997031,84.44439168,1592.275513
10.4300,-28.58163255,84.08244266,1592.375508
10.4350,-28.713888,83.73381155,1592.459405
10.4400,-28.84706875,83.39962367,1592.526984
10.4450,-28.98281682,83.07982533,1592.578512
10.4500,-29.12005812,82.77625915,1592.612651
10.4550,-29.26001839,82.48982907,1592.629379
10.4600,-29.40322682,82.2209256,1592.628528
10.4650,-29.54986671,81.97036325,1592.60919
10.4700,-29.70085389,81.7395103,1592.572641
10.4750,-29.85686808,81.52922294,1592.518122
10.4800,-30.01882722,81.33937799,1592.444687
10.4850,-30.18603544,81.17174592,1592.352252
10.4900,-30.36042555,81.02806082,1592.241674
10.4950,-30.54190509,80.90782243,1592.112055
10.5000,-30.73112832,80.8118646,1591.963282
10.5050,-30.92898731,80.73818212,1591.795468
10.5100,-31.13820041,80.6891397,1591.608974
10.5150,-31.35714076,80.66480891,1591.403602
10.5200,-31.58507534,80.66480246,1591.178791
10.5250,-31.82278456,80.68800896,1590.933901
10.5300,-32.07201988,80.7343308,1590.669792
10.5350,-32.33280197,80.80436624,1590.386095
10.5400,-32.60293439,80.89665546,1590.081842
10.5450,-32.88256043,81.01185048,1589.757866
10.5500,-33.17340306,81.14928416,1589.413271
10.5550,-33.47475672,81.30853172,1589.048634
10.5600,-33.78726716,81.48695453,1588.663894
10.5650,-34.11222927,81.68435112,1588.259153
10.5700,-34.44971542,81.90080831,1587.834081
10.5750,-34.79932916,82.13578109,1587.388296
10.5800,-35.16216203,82.38659905,1586.922157
10.5850,-35.53975969,82.65278204,1586.435304
10.5900,-35.93242651,82.93274787,1585.928284
10.5950,-36.34073136,83.22770352,1585.401417
10.6000,-36.76431259,83.53638893,1584.854991
10.6050,-37.20244024,83.85761616,1584.288177
10.6100,-37.65425171,84.19112077,1583.701998
10.6150,-38.1228705,84.53482367,1583.097739
10.6200,-38.60614443,84.89125666,1582.475305
10.6250,-39.10218194,85.25934595,1581.833642
10.6300,-39.61088593,85.63904846,1581.173424
10.6350,-40.13292831,86.03003788,1580.4949
10.6400,-40.66732838,86.43355828,1579.798718
10.6450,-41.21387901,86.84650138,1579.083919
10.6500,-41.77082241,87.2703129,1578.351211
10.6550,-42.33753891,87.70384286,1577.601063
10.6600,-42.91366324,88.14656063,1576.833886
10.6650,-43.49800659,88.59814407,1576.048448
10.6700,-44.09052612,89.0570963,1575.245186
10.6750,-44.68970915,89.52312915,1574.424463
10.6800,-45.29758417,89.99671077,1573.587176
10.6850,-45.91176946,90.4785967,1572.733287
10.6900,-46.53299037,90.96789653,1571.862738
10.6950,-47.16094276,91.46292445,1570.97582
10.7000,-47.79383044,91.96508163,1570.072177
10.7050,-48.43274707,92.47393819,1569.152219
10.7100,-49.07817643,92.98740766,1568.216136
10.7150,-49.72898497,93.50435401,1567.263715
10.7200,-50.38565034,94.02542163,1566.295625
10.7250,-51.04914322,94.55124575,1565.312553
10.7300,-51.71935651,95.08069742,1564.314833
10.7350,-52.39692433,95.61512161,1563.303428
10.7400,-53.08155737,96.15346288,1562.278762
10.7450,-53.7705527,96.69769474,1561.240247
10.7500,-54.46537748,97.24710343,1560.188628
10.7550,-55.1649458,97.80184308,1559.124443
10.7600,-55.86791307,98.36320786,1558.047573
10.7650,-56.57341432,98.93059945,1556.958859
10.7700,-57.2816919,99.50247626,1555.857915
10.7750,-57.99108594,100.0790278,1554.744866
10.7800,-58.70102164,100.6606279,1553.620223
10.7850,-59.41169335,101.2463791,1552.485233
10.7900,-60.12239538,101.8363542,1551.338966
10.7950,-60.83302926,102.428633,1550.182083
10.8000,-61.54304942,103.024135,1549.014507
10.8050,-62.25257553,103.6216761,1547.836823
10.8100,-62.96140355,104.2196335,1546.649678
10.8150,-63.67148412,104.8167596,1545.452593
10.8200,-64.38449356,105.4116991,1544.246442
10.8250,-65.10048498,106.0057108,1543.03184
10.8300,-65.82079157,106.5965242,1541.808933
10.8350,-66.54619392,107.1844597,1540.578668
10.8400,-67.27822517,107.7693679,1539.341974
10.8450,-68.01676713,108.3492426,1538.098904
10.8500,-68.75988734,108.9255037,1536.85051
10.8550,-69.50818074,109.4956342,1535.596289
10.8600,-70.25974462,110.0632429,1534.336782
10.8650,-71.01545656,110.6268995,1533.072609
10.8700,-71.77482327,111.1854799,1531.803761
10.8750,-72.53883425,111.7385022,1530.531327
10.8800,-73.30617705,112.2871697,1529.256262
10.8850,-74.07580246,112.8318189,1527.978649
10.8900,-74.84648998,113.3727825,1526.698603
10.8950,-75.61702813,113.9085397,1525.416302
10.9000,-76.38775092,114.4397589,1524.132365
10.9050,-77.15994789,114.9663261,1522.847093
10.9100,-77.93341796,115.4875152,1521.560728
10.9150,-78.70561881,116.0045115,1520.273077
10.9200,-79.47781411,116.5148969,1518.984453
10.9250,-80.25096279,117.0183487,1517.694428
10.9300,-81.02398261,117.5150487,1516.403502
10.9350,-81.79669655,118.0041363,1515.111991
10.9400,-82.5689612,118.4847058,1513.820594
10.9450,-83.341013,118.9575377,1512.529612
10.9500,-84.11475161,119.4218068,1511.238877
10.9550,-84.88875928,119.8794453,1509.948679
10.9600,-85.66306161,120.3307987,1508.659447
10.9650,-86.43738418,120.7765521,1507.371737
10.9700,-87.2106873,121.216181,1506.084027
10.9750,-87.98257787,121.6516882,1504.798346
10.9800,-88.75077226,122.0830276,1503.513299
10.9850,-89.51608434,122.5113052,1502.22947
10.9900,-90.27780956,122.9363681,1500.946843
10.9950,-91.03493835,123.3575534,1499.664595
11.0000,-91.78804861,123.7745476,1498.38323
11.0050,-92.5364022,124.1876612,1497.102713
11.0100,-93.27850165,124.5975287,1495.82232
11.0150,-94.01580798,125.0042369,1494.541949
11.0200,-94.74805613,125.4065936,1493.261647
11.0250,-95.47330485,125.8057365,1491.981377
11.0300,-96.19144655,126.2027543,1490.699744
11.0350,-96.90052863,126.5968173,1489.416277
11.0400,-97.6008799,126.9892722,1488.130778
11.0450,-98.293132,127.379314,1486.842475
11.0500,-98.97738128,127.7657654,1485.550812
11.0550,-99.65262004,128.1501266,1484.255933
11.0600,-100.3193538,128.5319946,1482.956931
11.0650,-100.9774943,128.911761,1481.652179
11.0700,-101.6267615,129.2900771,1480.341193
11.0750,-102.2670498,129.6662714,1479.022915
11.0800,-102.8995879,130.039254,1477.69784
11.0850,-103.5244532,130.4088696,1476.364363
11.0900,-104.1416415,130.7746016,1475.023325
11.0950,-104.750874,131.1366689,1473.674935
11.1000,-105.3535074,131.494693,1472.318034
11.1050,-105.9498324,131.8488822,1470.951999
11.1100,-106.5401668,132.1984715,1469.576738
11.1150,-107.124559,132.5441025,1468.192758
11.1200,-107.7025472,132.8852568,1466.799217
11.1250,-108.2749574,133.2230416,1465.396229
11.1300,-108.8406495,133.5583684,1463.983051
11.1350,-109.3985534,133.892128,1462.559139
11.1400,-109.9498614,134.2230635,1461.124032
11.1450,-110.4942097,134.5524334,1459.67775
11.1500,-111.0331346,134.879086,1458.220057
11.1550,-111.5658546,135.2056271,1456.750501
11.1600,-112.0950705,135.530529,1455.26961
11.1650,-112.620368,135.8531617,1453.777053
11.1700,-113.140487,136.1755348,1452.272901
11.1750,-113.6555423,136.4969402,1450.757523
11.1800,-114.1653975,136.8168034,1449.229188
11.1850,-114.6694373,137.134791,1447.688836
11.1900,-115.1676443,137.4498996,1446.134981
11.1950,-115.6612321,137.7623796,1444.569242
11.2000,-116.1497591,138.071047,1442.991547
11.2050,-116.631996,138.3749956,1441.40144
11.2100,-117.1079589,138.6739767,1439.798204
11.2150,-117.5777056,138.9669727,1438.181799
11.2200,-118.0414693,139.2531835,1436.55322
11.2250,-118.4988633,139.5341879,1434.913815
11.2300,-118.951288,139.8066579,1433.262456
11.2350,-119.3994681,140.0698554,1431.599832
11.2400,-119.8433124,140.3246277,1429.925839
11.2450,-120.2822725,140.5711166,1428.240701
11.2500,-120.7167404,140.8088655,1426.544949
11.2550,-121.1473667,141.0367214,1424.837082
11.2600,-121.5741255,141.2542673,1423.116749
11.2650,-121.9967345,141.4621628,1421.383599
11.2700,-122.4152985,141.66134,1419.638909
11.2750,-122.8278734,141.8507194,1417.88072
11.2800,-123.2358307,142.0321594,1416.109951
11.2850,-123.6378676,142.2036039,1414.325872
11.2900,-124.0333221,142.3673915,1412.52906
11.2950,-124.4227806,142.5234882,1410.719277
11.3000,-124.8050347,142.6741616,1408.89578
11.3050,-125.1794658,142.8186322,1407.058716
11.3100,-125.5457222,142.9592258,1405.207351
11.3150,-125.9026824,143.0959355,1403.341437
11.3200,-126.2489257,143.2294148,1401.460028
11.3250,-126.5852568,143.3603283,1399.562686
11.3300,-126.9112887,143.4869859,1397.6499
11.3350,-127.22558,143.6099711,1395.720606
11.3400,-127.5282294,143.7288991,1393.774222
11.3450,-127.8194027,143.8427299,1391.810812
11.3500,-128.0975739,143.9526003,1389.829594
11.3550,-128.3627858,144.0565497,1387.829943
11.3600,-128.6156302,144.1549902,1385.811967
11.3650,-128.8568274,144.2470574,1383.775428
11.3700,-129.0849118,144.3341025,1381.71978
11.3750,-129.3019237,144.4164221,1379.645917
11.3800,-129.5061507,144.4963132,1377.552323
11.3850,-129.6980659,144.5725304,1375.439547
11.3900,-129.8768251,144.6454864,1373.306691
11.3950,-130.0442945,144.7143502,1371.154045
11.4000,-130.1996201,144.7799699,1368.98314
11.4050,-130.3420584,144.8435356,1366.793831
11.4100,-130.47063,144.9052701,1364.586161
11.4150,-130.5851056,144.9645087,1362.360592
11.4200,-130.6851859,145.0223959,1360.117715
11.4250,-130.7703625,145.0789223,1357.856922
11.4300,-130.8412461,145.1347022,1355.579484
11.4350,-130.8995252,145.1877834,1353.286825
11.4400,-130.943469,145.2401904,1350.978565
11.4450,-130.9739904,145.2918922,1348.654323
11.4500,-130.9906178,145.3430149,1346.314528
11.4550,-130.9950125,145.3924587,1343.960355
11.4600,-130.9850364,145.4398012,1341.592276
11.4650,-130.9611236,145.4853987,1339.211199
11.4700,-130.9233634,145.5275399,1336.817413
11.4750,-130.8716475,145.5672223,1334.411021
11.4800,-130.8058921,145.6046364,1331.993812
11.4850,-130.7253853,145.6407223,1329.565749
11.4900,-130.6301366,145.676205,1327.127732
11.4950,-130.5191274,145.7093978,1324.680111
11.5000,-130.3908666,145.7402988,1322.223263
11.5050,-130.2445611,145.7702364,1319.758154
11.5100,-130.0814503,145.7980561,1317.286831
11.5150,-129.9018693,145.8226208,1314.809315
11.5200,-129.705784,145.8437492,1312.325624
11.5250,-129.4946926,145.8588215,1309.837153
11.5300,-129.2689672,145.8676368,1307.345457
11.5350,-129.0275578,145.8696344,1304.850642
11.5400,-128.7705377,145.8637383,1302.353951
11.5450,-128.4985687,145.8490469,1299.855666
11.5500,-128.2109262,145.8257061,1297.356516
11.5550,-127.9083942,145.7929976,1294.858768
11.5600,-127.588914,145.7517283,1292.362865
11.5650,-127.2528638,145.7016548,1289.869525
11.5700,-126.8992812,145.6427209,1287.378368
11.5750,-126.5297113,145.5758636,1284.890135
11.5800,-126.1431928,145.5001473,1282.404993
11.5850,-125.7400836,145.4171527,1279.923688
11.5900,-125.3217721,145.3251392,1277.446345
11.5950,-124.887624,145.225278,1274.973684
11.6000,-124.4386063,145.1153292,1272.506427
11.6050,-123.9746171,144.9969306,1270.044435
11.6100,-123.4956888,144.8670619,1267.589499
11.6150,-123.0024928,144.7260063,1265.141693
11.6200,-122.4969153,144.574066,1262.702195
11.6250,-121.9793794,144.4106986,1260.270888
11.6300,-121.4486465,144.2380638,1257.847793
11.6350,-120.905554,144.0568186,1255.433698
11.6400,-120.3495539,143.866955,1253.028659
11.6450,-119.7806877,143.6700717,1250.632926
11.6500,-119.1997347,143.4664476,1248.247639
11.6550,-118.607431,143.2569632,1245.87196
11.6600,-118.0047654,143.0401407,1243.506071
11.6650,-117.3919285,142.818042,1241.1507
11.6700,-116.7700307,142.5899887,1238.805902
11.6750,-116.1386873,142.3566779,1236.471096
11.6800,-115.4991088,142.1185567,1234.147389
11.6850,-114.8508048,141.876339,1231.834106
11.6900,-114.193838,141.6306889,1229.531825
11.6950,-113.5268094,141.3839699,1227.240395
11.7000,-112.8491418,141.135957,1224.958887
11.7050,-112.1618523,140.8868052,1222.687718
11.7100,-111.4639171,140.6393079,1220.426698
11.7150,-110.7555802,140.3943028,1218.175871
11.7200,-110.0352426,140.1539579,1215.934762
11.7250,-109.3045402,139.9168073,1213.70454
11.7300,-108.5617032,139.6842748,1211.484963
11.7350,-107.8053805,139.4563513,1209.274898
11.7400,-107.0373433,139.2321787,1207.075506
11.7450,-106.2570089,139.0115709,1204.887836
11.7500,-105.4645648,138.7949637,1202.711722
11.7550,-104.6588873,138.5810555,1200.54683
11.7600,-103.8402654,138.36954,1198.393661
11.7650,-103.0077691,138.1613434,1196.252692
11.7700,-102.1622688,137.9564098,1194.124193
11.7750,-101.3030312,137.7541356,1192.008731
11.7800,-100.429636,137.5547207,1189.90597
11.7850,-99.54309393,137.356195,1187.816748
11.7900,-98.64286228,137.1585076,1185.741327
11.7950,-97.72881654,136.9618224,1183.679403
11.8000,-96.80198521,136.7666099,1181.631872
11.8050,-95.86378804,136.5705167,1179.599559
11.8100,-94.91291228,136.3752741,1177.582522
11.8150,-93.94864766,136.1799105,1175.581298
11.8200,-92.97151653,135.9842182,1173.596565
11.8250,-91.9809469,135.7877891,1171.627795
11.8300,-90.97722654,135.5923495,1169.676679
11.8350,-89.96024536,135.3976771,1167.742776
11.8400,-88.93077679,135.2046265,1165.826465
11.8450,-87.88883274,135.0128551,1163.927583
11.8500,-86.83610467,134.8216714,1162.047097
11.8550,-85.77175389,134.6308561,1160.183987
11.8600,-84.69865214,134.4400649,1158.338833
11.8650,-83.61787239,134.2478981,1156.511466
11.8700,-82.53048212,134.0539183,1154.701954
11.8750,-81.43692437,133.8572521,1152.910031
11.8800,-80.33912625,133.6563591,1151.136081
11.8850,-79.23852404,133.4510601,1149.380962
11.8900,-78.13440799,133.2412796,1147.644008
11.8950,-77.02879057,133.0268402,1145.925579
11.9000,-75.9226089,132.8065007,1144.225502
11.9050,-74.81748601,132.5801585,1142.5441
11.9100,-73.7147338,132.3495353,1140.880567
11.9150,-72.61451679,132.1143587,1139.23498
11.9200,-71.51648436,131.8749846,1137.606481
11.9250,-70.42112614,131.6315551,1135.995172
11.9300,-69.32989378,131.3839465,1134.400778
11.9350,-68.24272097,131.1313567,1132.821918
11.9400,-67.162358,130.8743514,1131.258874
11.9450,-66.08804706,130.6120585,1129.71063
11.9500,-65.0207299,130.3443067,1128.176547
11.9550,-63.95999095,130.0702307,1126.65652
11.9600,-62.90580352,129.7907863,1125.151081
11.9650,-61.85853839,129.5059925,1123.659936
11.9700,-60.8187214,129.2152419,1122.18313
11.9750,-59.78558267,128.9204913,1120.720855
11.9800,-58.75820397,128.6204426,1119.272165
11.9850,-57.73571212,128.3175831,1117.837419
11.9900,-56.71721764,128.0122383,1116.415497
11.9950,-55.70114938,127.7048907,1115.005626
12.0000,-54.68759578,127.3962588,1113.607696
12.0050,-53.67630429,127.0859718,1112.221366
12.0100,-52.66678488,126.7741836,1110.846188
12.0150,-51.65826659,126.4595531,1109.48121
12.0200,-50.65142319,126.1400668,1108.12615
12.0250,-49.64595745,125.8162376,1106.781261
12.0300,-48.64381167,125.4855504,1105.446284
12.0350,-47.64527883,125.1483804,1104.121923
12.0400,-46.64994477,124.8051443,1102.808038
12.0450,-45.65816824,124.4546256,1101.504189
12.0500,-44.67052681,124.0959119,1100.210656
12.0550,-43.6867275,123.7318564,1098.927991
12.0600,-42.70504094,123.3624103,1097.655046
12.0650,-41.72571321,122.986138,1096.391583
12.0700,-40.74810883,122.6047773,1095.137849
12.0750,-39.77149799,122.2176085,1093.892991
12.0800,-38.79595661,121.8246623,1092.657767
12.0850,-37.8192112,121.4269933,1091.430863
12.0900,-36.84347676,121.0243869,1090.213369
12.0950,-35.86737285,120.6174589,1089.00467
12.1000,-34.89008365,120.206502,1087.804224
12.1050,-33.90936403,119.7923054,1086.611416
12.1100,-32.92375161,119.3751722,1085.425416
12.1150,-31.93432476,118.9565787,1084.2464
12.1200,-30.93970723,118.5376904,1083.074185
12.1250,-29.93989671,118.1198011,1081.909128
12.1300,-28.93287472,117.702173,1080.749828
12.1350,-27.91966868,117.2863103,1079.597185
12.1400,-26.8996104,116.8713004,1078.450155
12.1450,-25.87266478,116.4579736,1077.309141
12.1500,-24.83764494,116.0475087,1076.173759
12.1550,-23.79567504,115.6384956,1075.043929
12.1600,-22.74527347,115.2310479,1073.91964
12.1650,-21.68637844,114.8267161,1072.801388
12.1700,-20.62015752,114.4241362,1071.689419
12.1750,-19.54746615,114.0235817,1070.584518
12.1800,-18.46745076,113.625564,1069.486679
12.1850,-17.3795932,113.2294959,1068.395503
12.1900,-16.28418299,112.8360119,1067.311642
12.1950,-15.1814642,112.443432,1066.234971
12.2000,-14.07063775,112.0535429,1065.165608
12.2050,-12.95215898,111.6647865,1064.103444
12.2100,-11.82513859,111.2764149,1063.04794
12.2150,-10.69009095,110.8886728,1061.999391
12.2200,-9.547879969,110.5005821,1060.957966
12.2250,-8.396827972,110.1122944,1059.922788
12.2300,-7.237395708,109.7240437,1058.894035
12.2350,-6.069823789,109.3343856,1057.871413
12.2400,-4.89182972,108.9445124,1056.854789
12.2450,-3.704318771,108.5542906,1055.84424
12.2500,-2.507004986,108.1632127,1054.839931
12.2550,-1.299972287,107.7724137,1053.841797
12.2600,-0.08125513998,107.3808223,1052.848914
12.2650,1.148088128,106.9881544,1051.861797
12.2700,2.387534606,106.5932304,1050.880358
12.2750,3.6382991,106.194614,1049.904225
12.2800,4.899941508,105.7922888,1048.933946
12.2850,6.172083824,105.3853588,1047.969844
12.2900,7.454784601,104.9734022,1047.01206
12.2950,8.749117217,104.5561902,1046.060541
12.3000,10.05472618,104.1322705,1045.115384
12.3050,11.37293569,103.7020175,1044.176324
12.3100,12.70380651,103.2641642,1043.24338
12.3150,14.04954629,102.8199701,1042.31644
12.3200,15.40812797,102.3707284,1041.396757
12.3250,16.7816783,101.9144219,1040.482999
12.3300,18.17177123,101.4527715,1039.575323
12.3350,19.57793488,100.9842054,1038.673388
12.3400,20.99952245,100.5074139,1037.777017
12.3450,22.43701962,100.0228536,1036.886142
12.3500,23.88871305,99.52980571,1036.001172
12.3550,25.35474901,99.02642008,1035.121493
12.3600,26.83333621,98.51308906,1034.248012
12.3650,28.32217496,97.98973719,1033.381101
12.3700,29.82215922,97.45414877,1032.519876
12.3750,31.33026995,96.90745322,1031.665692
12.3800,32.84713834,96.34909645,1030.817775
12.3850,34.37007187,95.77835817,1029.976965
12.3900,35.89984486,95.19565397,1029.142982
12.3950,37.4347973,94.60021042,1028.316347
12.4000,38.97493888,93.99233499,1027.496923
12.4050,40.51732029,93.37245397,1026.685518
12.4100,42.06143417,92.74018733,1025.882113
12.4150,43.60748922,92.09545171,1025.086782
12.4200,45.15397076,91.43729686,1024.299561
12.4250,46.70176414,90.76577856,1023.519971
12.4300,48.25038144,90.08246178,1022.7483
12.4350,49.79895651,89.38624471,1021.98427
12.4400,51.34799322,88.67886094,1021.228097
12.4450,52.89596974,87.959882,1020.479917
12.4500,54.44321558,87.22820062,1019.739153
12.4550,55.98877074,86.48726102,1019.006588
12.4600,57.5313813,85.7363298,1018.281969
12.4650,59.07006185,84.97609199,1017.565748
12.4700,60.60246326,84.20739616,1016.858278
12.4750,62.12818539,83.43232178,1016.159934
12.4800,63.64583201,82.64977994,1015.470834
12.4850,65.15553009,81.85966151,1014.790408
12.4900,66.65601146,81.06194638,1014.118849
12.4950,68.14676937,80.25937015,1013.456673
12.5000,69.62646172,79.45011929,1012.803409
12.5050,71.09566498,78.63618034,1012.159226
12.5100,72.55272263,77.81825076,1011.524405
12.5150,73.99573798,76.9976472,1010.899569
12.5200,75.42557958,76.17426019,1010.284119
12.5250,76.84023441,75.34986097,1009.678888
12.5300,78.23899882,74.5236579,1009.083611
12.5350,79.62150117,73.69812017,1008.498863
12.5400,80.98597393,72.8724169,1007.924669
12.5450,82.33410711,72.0475619,1007.360583
12.5500,83.66460418,71.22314768,1006.806598
12.5550,84.97820357,70.39952591,1006.262568
12.5600,86.27289715,69.57713629,1005.728681
12.5650,87.55083645,68.75539417,1005.204047
12.5700,88.81200056,67.9366104,1004.689086
12.5750,90.05604409,67.11963065,1004.183455
12.5800,91.28326145,66.30602567,1003.687151
12.5850,92.49458923,65.4954571,1003.199566
12.5900,93.6893235,64.68885093,1002.721064
12.5950,94.86633081,63.8855205,1002.25152
12.6000,96.02863414,63.08791589,1001.790801
12.6050,97.17591064,62.29487292,1001.338541
12.6100,98.31024501,61.50645624,1000.894197
12.6150,99.43093059,60.72272676,1000.457544
12.6200,100.5403438,59.94257376,1000.027929
12.6250,101.6383665,59.16698509,999.6055273
12.6300,102.7264118,58.3957671,999.1898358
12.6350,103.8054936,57.62872582,998.7805172
12.6400,104.8768321,56.86519762,998.3772337
12.6450,105.9404734,56.10568374,997.9801064
12.6500,106.9973837,55.34979706,997.5887494
12.6550,108.0489656,54.59800247,997.2028977
12.6600,109.0931901,53.84779836,996.8225058
12.6650,110.1325742,53.10012361,996.4472846
12.6700,111.1655386,52.35317042,996.0773098
12.6750,112.1950592,51.60758224,995.7119645
12.6800,113.2192131,50.86253079,995.3515458
12.6850,114.2380164,50.11733037,994.9961315
12.6900,115.2488689,49.37146604,994.6458991
12.6950,116.2532942,48.62541991,994.3007471
12.7000,117.2507657,47.87719648,993.9605612
12.7050,118.2423376,47.12789662,993.6253168
12.7100,119.2278729,46.37667475,993.294704
12.7150,120.208139,45.62481211,992.9685559
12.7200,121.1838418,44.87280994,992.6468137
12.7250,122.153581,44.12208229,992.3299094
12.7300,123.1169326,43.37165614,992.0175487
12.7350,124.0744835,42.62385673,991.7100409
12.7400,125.0251913,41.87826748,991.4072538
12.7450,125.9699183,41.13667463,991.1093401
12.7500,126.9088545,40.39980022,990.8161363
12.7550,127.8416578,39.66705655,990.527577
12.7600,128.7690294,38.94049994,990.2434834
12.7650,129.6908237,38.22002336,989.9637086
12.7700,130.6095283,37.50805049,989.6880506
12.7750,131.5271214,36.80392431,989.4158789
12.7800,132.4429954,36.11135976,989.1476039
12.7850,133.3570181,35.43269508,988.8835162
12.7900,134.2692181,34.76897501,988.6236596
12.7950,135.1820042,34.11919928,988.3672622
12.8000,136.0960905,33.48700219,988.1145905
12.8050,137.0134691,32.87262921,987.8650362
12.8100,137.9349027,32.27816669,987.6187745
12.8150,138.8617464,31.70321306,987.3752902
12.8200,139.7939171,31.14921224,987.1347705
12.8250,140.7316087,30.61582559,986.8969658
12.8300,141.6751286,30.10463466,986.6622681
12.8350,142.6250323,29.61445519,986.4303282
12.8400,143.5818454,29.14514409,986.20111
12.8450,144.542718,28.69680905,985.9751986
12.8500,145.5088262,28.26937551,985.7523902
12.8550,146.4774682,27.8629305,985.5331112
12.8600,147.4474705,27.47599776,985.31757
12.8650,148.415785,27.10873981,985.1063535
12.8700,149.3810465,26.75931433,984.8995427
12.8750,150.3403844,26.42880253,984.6978063
12.8800,151.292846,26.11420188,984.5012123
12.8850,152.2360141,25.81495576,984.3100222
12.8900,153.1689913,25.52987593,984.1242788
12.8950,154.0895611,25.25859661,983.944316
12.9000,154.9939268,24.99933014,983.7703418
12.9050,155.8811746,24.75185497,983.6027931
12.9100,156.7476929,24.51718697,983.442193
12.9150,157.5923085,24.29321818,983.2884443
12.9200,158.4148754,24.08035681,983.1414279
12.9250,159.2147419,23.87869918,983.0010424
12.9300,159.9902263,23.68718305,982.8672932
12.9350,160.7419389,23.50590189,982.7399468
12.9400,161.4691161,23.33582005,982.6190891
12.9450,162.1721911,23.17629222,982.5041741
12.9500,162.8510091,23.02758478,982.3952329
12.9550,163.5055159,22.88783861,982.2918632
12.9600,164.1371344,22.75913857,982.1937159
12.9650,164.7463978,22.64092226,982.1006889
12.9700,165.3324047,22.53518919,982.0128317
12.9750,165.8936673,22.4393934,981.9300212
12.9800,166.430276,22.35492804,981.8521769
12.9850,166.9416765,22.28225413,981.7792623
12.9900,167.4317347,22.21974873,981.7106584
12.9950,167.89927,22.16838688,981.6462273
13.0000,168.3438387,22.12876564,981.5862741
13.0050,168.7655444,22.10001109,981.5305134
13.0100,169.1647056,22.08103827,981.4789785
13.0150,169.5409592,22.0717206,981.4316123
13.0200,169.8950522,22.07188308,981.3882845
13.0250,170.2290534,22.07992423,981.3485952
13.0300,170.5436184,22.09610225,981.3125593
13.0350,170.8404836,22.1188416,981.2796468
13.0400,171.1200472,22.14750781,981.2497073
13.0450,171.3833264,22.1815339,981.2223247
13.0500,171.6298692,22.22068312,981.1977196
13.0550,171.8620425,22.26463648,981.1753997
13.0600,172.0779847,22.31308536,981.1555503
13.0650,172.2787934,22.366382,981.1378392
13.0700,172.4645967,22.42388349,981.1223356
13.0750,172.6326916,22.48544469,981.1091316
13.0800,172.7849698,22.54955084,981.0977339
13.0850,172.9190026,22.61651266,981.0884375
13.0900,173.0342386,22.6849158,981.0811077
13.0950,173.1289484,22.75663471,981.0763901
13.1000,173.2001529,22.83049702,981.0743615
13.1050,173.2448687,22.90618871,981.0753278
13.1100,173.2613908,22.98296323,981.0794602
13.1150,173.2490588,23.06097012,981.0870173
13.1200,173.2067495,23.14012428,981.0980766
13.1250,173.1330944,23.2194076,981.1127953
13.1300,173.0275792,23.29823901,981.1313413
13.1350,172.8892941,23.37875705,981.1539689
13.1400,172.7193392,23.45992171,981.1805405
13.1450,172.5180223,23.54149352,981.2110531
13.1500,172.2844752,23.62298287,981.2458315
13.1550,172.0200537,23.70219644,981.2846912
13.1600,171.7244042,23.78013119,981.3277499
13.1650,171.397568,23.85438389,981.3749008
13.1700,171.0396761,23.92427033,981.4262566
13.1750,170.6498011,23.9875101,981.4817978
13.1800,170.2261456,24.04393142,981.5417137
13.1850,169.7693143,24.09285671,981.6060001
13.1900,169.2781336,24.13222196,981.6748395
13.1950,168.7523469,24.16159965,981.7483789
13.2000,168.1919742,24.18043229,981.8266768
13.2050,167.595892,24.18895015,981.9097985
13.2100,166.9657836,24.18636977,981.9974906
13.2150,166.3018822,24.17478788,982.0901287
13.2200,165.6037203,24.15357198,982.1878544
13.2250,164.8732428,24.1254115,982.2906609
13.2300,164.1118639,24.09101971,982.3984764
13.2350,163.3204926,24.05214803,982.5113891
13.2400,162.5016934,24.00889616,982.6288923
13.2450,161.6573216,23.96366921,982.7511401
13.2500,160.7905284,23.91792054,982.87787
13.2550,159.9020295,23.8732697,983.0090951
13.2600,158.995362,23.83092049,983.1446816
13.2650,158.0719658,23.79320054,983.2845497
13.2700,157.135325,23.76093327,983.4283511
13.2750,156.1882137,23.73649958,983.5760228
13.2800,155.2347373,23.7212735,983.7271736
13.2850,154.2794445,23.71588446,983.8810335
13.2900,153.3233932,23.72220649,984.0377709
13.2950,152.3679853,23.74169598,984.1973645
13.3000,151.4157686,23.77438746,984.3592669
13.3050,150.4693105,23.82070409,984.5232287
13.3100,149.5290121,23.8822373,984.6893916
13.3150,148.5953625,23.95784017,984.8576484
13.3200,147.6699782,24.04770289,985.027921
13.3250,146.7527716,24.15263096,985.2002534
13.3300,145.8430271,24.27225945,985.3749256
13.3350,144.9400818,24.40868427,985.5524163
13.3400,144.0444369,24.56121212,985.7325939
13.3450,143.1550028,24.73010885,985.9160338
13.3500,142.2709672,24.91656621,986.1029049
13.3550,141.3905623,25.12005657,986.2934849
13.3600,140.514995,25.3401726,986.4878074
13.3650,139.6424084,25.57755142,986.6863717
13.3700,138.7701146,25.83235754,986.889842
13.3750,137.899467,26.10485359,987.0984669
13.3800,137.0282384,26.39517959,987.3126909
13.3850,136.1554683,26.70292413,987.5329477
13.3900,135.2793467,27.02946758,987.759788
13.3950,134.3978888,27.37305082,987.9933817
13.4000,133.5108665,27.73470901,988.2343475
13.4050,132.6166448,28.11421029,988.4833135
13.4100,131.7144431,28.51210293,988.7407776
13.4150,130.8033301,28.92760419,989.0070425
13.4200,129.8812984,29.36166201,989.2830901
13.4250,128.9480645,29.8136551,989.5691319
13.4300,128.0035453,30.28353584,989.8653146
13.4350,127.0465447,30.77019972,990.1723309
13.4400,126.0767012,31.27410086,990.4907082
13.4450,125.0941047,31.7950579,990.8205466
13.4500,124.0981678,32.33197601,991.1622204
13.4550,123.088379,32.88535117,991.5159595
13.4600,122.066774,33.45330602,991.8815917
13.4650,121.0317375,34.03723442,992.2598441
13.4700,119.9858089,34.6362442,992.6503748
13.4750,118.9286091,35.25007583,993.0533225
13.4800,117.8618911,35.87943541,993.4688638
13.4850,116.7851594,36.5228528,993.8973804
13.4900,115.6982788,37.18173502,994.3390507
13.4950,114.6034858,37.85507022,994.7937102
13.5000,113.5002562,38.54364681,995.2617707
13.5050,112.3908892,39.24636779,995.7431975
13.5100,111.2737931,39.96376413,996.238712
13.5150,110.1483885,40.69549394,996.7484921
13.5200,109.0162196,41.44097147,997.2725301
13.5250,107.8759325,42.19917964,997.8114031
13.5300,106.7265991,42.96981661,998.3655243
13.5350,105.5684797,43.75288456,998.9349941
13.5400,104.4020075,44.54909638,999.5203074
13.5450,103.2265556,45.35647097,1000.121506
13.5500,102.0413364,46.17486167,1000.739007
13.5550,100.848519,47.00597674,1001.372952
13.5600,99.64732529,47.8493709,1002.023645
13.5650,98.43782427,48.70419073,1002.691191
13.5700,97.22011204,49.56999011,1003.375845
13.5750,95.99543444,50.4473539,1004.077475
13.5800,94.76294098,51.3341277,1004.796256
13.5850,93.52274592,52.23050694,1005.532322
13.5900,92.27512824,53.13684835,1006.285662
13.5950,91.021397,54.05022595,1007.055539
13.6000,89.76072531,54.97131313,1007.842626
13.6050,88.49334235,55.89895791,1008.646581
13.6100,87.2188947,56.83287577,1009.46754
13.6150,85.93865981,57.77282875,1010.305046
13.6200,84.65132318,58.71769279,1011.15949
13.6250,83.35640515,59.66725063,1012.03094
13.6300,82.05446174,60.62108577,1012.919093
13.6350,80.7451626,61.57645709,1013.823604
13.6400,79.42843594,62.53345401,1014.744754
13.6450,78.10520799,63.4912322,1015.68191
13.6500,76.77451583,64.44953283,1016.635678
13.6550,75.43701744,65.40782531,1017.605839
13.6600,74.09143541,66.36566563,1018.592365
13.6650,72.73855719,67.3210626,1019.594934
13.6700,71.37948958,68.2735814,1020.613065
13.6750,70.0124112,69.2224582,1021.646841
13.6800,68.63824995,70.16756017,1022.696066
13.6850,67.25767176,71.10876337,1023.760189
13.6900,65.87180573,72.04535658,1024.83873
13.6950,64.48059918,72.9786473,1025.932062
13.7000,63.08463563,73.90763088,1027.039419
13.7050,61.68459015,74.83331409,1028.16072
13.7100,60.28106734,75.75355052,1029.295176
13.7150,58.87397246,76.6694682,1030.442793
13.7200,57.46434602,77.58020281,1031.602731
13.7250,56.05295673,78.48708258,1032.77511
13.7300,54.63980054,79.38944061,1033.959574
13.7350,53.22582129,80.28658748,1035.155451
13.7400,51.81079993,81.17809585,1036.362283
13.7450,50.39425491,82.06398295,1037.579947
13.7500,48.97678732,82.94510588,1038.808433
13.7550,47.5587259,83.82195683,1040.047341
13.7600,46.14035661,84.69524548,1041.296917
13.7650,44.72382968,85.56395692,1042.556289
13.7700,43.30745395,86.42846294,1043.825978
