type,name,time_units,begin_time,frequency,count,units
signal_3d,"Noraxon MyoMotion-Trajectories-Elbow RT","s",0.0000,200,5172,"mm"

time,x,y,z
0.0000,183.5430578,-33.68837818,1235.153728
0.0050,183.4657309,-33.66645807,1235.166087
0.0100,183.3883927,-33.64458948,1235.178463
0.0150,183.3110432,-33.6227724,1235.190857
0.0200,183.2283365,-33.60006817,1235.204061
0.0250,183.140911,-33.57682119,1235.21796
0.0300,183.0494884,-33.55342917,1235.232421
0.0350,182.9548464,-33.53033242,1235.2473
0.0400,182.8577914,-33.50799771,1235.262445
0.0450,182.7591278,-33.48689891,1235.277705
0.0500,182.6596317,-33.46749709,1235.292931
0.0550,182.5600347,-33.4502194,1235.307985
0.0600,182.4610159,-33.43544011,1235.322738
0.0650,182.3631945,-33.42346699,1235.337076
0.0700,182.2671226,-33.4145341,1235.350901
0.0750,182.173284,-33.40880161,1235.364132
0.0800,182.0820981,-33.40635586,1235.376701
0.0850,181.9939267,-33.4072016,1235.388558
0.0900,181.9090822,-33.41125335,1235.399667
0.0950,181.8278314,-33.41833614,1235.410007
0.1000,181.7503947,-33.42819577,1235.41957
0.1050,181.6769419,-33.44051737,1235.428362
0.1100,181.6075972,-33.45495117,1235.436397
0.1150,181.5424484,-33.47113745,1235.443694
0.1200,181.4815564,-33.4887245,1235.450279
0.1250,181.4249621,-33.50738101,1235.456176
0.1300,181.3726903,-33.52680647,1235.461409
0.1350,181.3247501,-33.5467399,1235.466003
0.1400,181.2811306,-33.56696359,1235.469978
0.1450,181.2417957,-33.58730057,1235.473359
0.1500,181.2066762,-33.60760942,1235.476169
0.1550,181.1107172,-33.63014582,1235.48722
0.1600,181.0201096,-33.65339937,1235.497497
0.1650,180.9351227,-33.67623291,1235.507054
0.1700,180.8549555,-33.69906299,1235.515974
0.1750,180.7799755,-33.72127123,1235.524261
0.1800,180.709468,-33.74325637,1235.531965
0.1850,180.6437303,-33.7644291,1235.539102
0.1900,180.5829562,-33.78617258,1235.545522
0.1950,180.5268767,-33.80693917,1235.551398
0.2000,180.4748934,-33.8276726,1235.556723
0.2050,180.42682,-33.84780518,1235.561571
0.2100,180.3823588,-33.86730916,1235.565992
0.2150,180.3417269,-33.8860934,1235.569958
0.2200,180.3043044,-33.90313054,1235.573639
0.2250,180.2692865,-33.91838608,1235.577163
0.2300,180.2370759,-33.93276456,1235.580388
0.2350,180.2068973,-33.94673983,1235.583373
0.2400,180.1779367,-33.95831223,1235.586423
0.2450,180.1516414,-33.96839239,1235.589243
0.2500,180.1267209,-33.97647198,1235.59205
0.2550,180.1029795,-33.98202655,1235.594927
0.2600,180.0806706,-33.98457584,1235.597869
0.2650,180.0591452,-33.9851162,1235.600878
0.2700,180.0387284,-33.98319115,1235.603948
0.2750,180.0187511,-33.97936098,1235.607122
0.2800,179.9980678,-33.97327333,1235.610603
0.2850,179.9775815,-33.96547212,1235.614199
0.2900,179.9572122,-33.95657603,1235.617862
0.2950,179.9364146,-33.94627243,1235.621705
0.3000,179.9156859,-33.93412267,1235.625697
0.3050,179.8945103,-33.92175383,1235.629776
0.3100,179.8726928,-33.90883608,1235.633983
0.3150,179.85117,-33.89543445,1235.638189
0.3200,179.8306146,-33.88068193,1235.642371
0.3250,179.8101042,-33.86525083,1235.646602
0.3300,179.7909139,-33.8487583,1235.650729
0.3350,179.7726911,-33.83235194,1235.65469
0.3400,179.7555941,-33.81516553,1235.658548
0.3450,179.7397324,-33.7983308,1235.662184
0.3500,179.7252164,-33.78046202,1235.665709
0.3550,179.7132796,-33.76309683,1235.668817
0.3600,179.7013945,-33.7464033,1235.671846
0.3650,179.6915897,-33.73039097,1235.674502
0.3700,179.6829459,-33.71514485,1235.676911
0.3750,179.675284,-33.69969041,1235.679196
0.3800,179.6691644,-33.6845008,1235.681236
0.3850,179.6631342,-33.67065197,1235.683149
0.3900,179.6585874,-33.65750847,1235.68478
0.3950,179.6543954,-33.64411045,1235.686386
0.4000,179.6510602,-33.63037301,1235.687893
0.4050,179.6479135,-33.61725455,1235.689326
0.4100,179.6448842,-33.60418199,1235.690746
0.4150,179.6423439,-33.59110651,1235.6921
0.4200,179.6396732,-33.57897565,1235.693399
0.4250,179.6363441,-33.56628894,1235.694851
0.4300,179.6327659,-33.55444343,1235.696268
0.4350,179.6285026,-33.54291662,1235.697779
0.4400,179.6233795,-33.53216433,1235.699339
0.4450,179.6175985,-33.52213395,1235.700945
0.4500,179.6116365,-33.51224156,1235.702565
0.4550,179.6061081,-33.50291427,1235.704079
0.4600,179.6004973,-33.49312626,1235.705655
0.4650,179.5952918,-33.48378762,1235.707137
0.4700,179.5912871,-33.47383175,1235.708507
0.4750,179.5878473,-33.46472406,1235.709714
0.4800,179.5850988,-33.45546445,1235.710843
0.4850,179.5836386,-33.44649218,1235.711764
0.4900,179.5817669,-33.43734986,1235.712765
0.4950,179.5805793,-33.4284594,1235.713649
0.5000,179.580007,-33.42028579,1235.714387
0.5050,179.5793433,-33.41183497,1235.715159
0.5100,179.5785516,-33.40302724,1235.715984
0.5150,179.5775401,-33.39429827,1235.716834
0.5200,179.5762095,-33.38608575,1235.717691
0.5250,179.57544,-33.37778689,1235.718467
0.5300,179.5747425,-33.3688963,1235.719289
0.5350,179.5734665,-33.35942441,1235.720253
0.5400,179.5721993,-33.34981442,1235.721231
0.5450,179.570375,-33.34009573,1235.7223
0.5500,179.5684795,-33.33029332,1235.723395
0.5550,179.5659837,-33.31995465,1235.724633
0.5600,179.5620327,-33.31013266,1235.726041
0.5650,179.558068,-33.29884064,1235.727591
0.5700,179.5527609,-33.28913327,1235.729203
0.5750,179.5471561,-33.27950176,1235.730855
0.5800,179.5419169,-33.27045225,1235.732411
0.5850,179.5371968,-33.26149784,1235.733895
0.5900,179.5325655,-33.25218244,1235.735406
0.5950,179.5288135,-33.24395776,1235.736708
0.6000,179.5258627,-33.23584811,1235.737893
0.6050,179.5245488,-33.2283534,1235.738792
0.6100,179.5242954,-33.22149252,1235.739498
0.6150,179.5252702,-33.21434238,1235.740061
0.6200,179.527455,-33.20791292,1235.74041
0.6250,179.531613,-33.20225603,1235.740407
0.6300,179.5366927,-33.19796896,1235.740166
0.6350,179.5426771,-33.19464002,1235.739727
0.6400,179.5501323,-33.19232345,1235.738998
0.6450,179.5580935,-33.19114104,1235.738102
0.6500,179.5669796,-33.19112034,1235.736983
0.6550,179.5767277,-33.19185053,1235.735676
0.6600,179.587808,-33.19340036,1235.734114
0.6650,179.5991244,-33.19635174,1235.732399
0.6700,179.611157,-33.20074972,1235.730465
0.6750,179.6243298,-33.20616317,1235.728286
0.6800,179.6385931,-33.21364353,1235.725776
0.6850,179.6532905,-33.22279002,1235.723071
0.6900,179.6693341,-33.23311077,1235.720081
0.6950,179.6857486,-33.24569472,1235.716845
0.7000,179.702999,-33.26008887,1235.713347
0.7050,179.7210722,-33.27584033,1235.709626
0.7100,179.7403708,-33.29395861,1235.705533
0.7150,179.7599745,-33.31400563,1235.701247
0.7200,179.7798498,-33.33551073,1235.696805
0.7250,179.8010483,-33.35988265,1235.69194
0.7300,179.8224769,-33.38571265,1235.686937
0.7350,179.8457078,-33.41290139,1235.681572
0.7400,179.8692585,-33.44197567,1235.676025
0.7450,179.8945446,-33.47237543,1235.670129
0.7500,179.9200368,-33.50412074,1235.664116
0.7550,179.9457292,-33.53715456,1235.657989
0.7600,179.9716265,-33.57140857,1235.651753
0.7650,179.9977304,-33.60681104,1235.645406
0.7700,180.0231227,-33.64480925,1235.638963
0.7750,180.0487799,-33.68327527,1235.632469
0.7800,180.0747394,-33.72261142,1235.625876
0.7850,180.1001309,-33.7637488,1235.619236
0.7900,180.1260038,-33.80555157,1235.612489
0.7950,180.1524228,-33.84793649,1235.605638
0.8000,180.1784942,-33.89037368,1235.598858
0.8050,180.2052891,-33.93321694,1235.591976
0.8100,180.2318811,-33.97642969,1235.58512
0.8150,180.259208,-34.01988441,1235.578161
0.8200,180.2863353,-34.06350965,1235.571235
0.8250,180.3127525,-34.10675019,1235.564467
0.8300,180.3382484,-34.14998733,1235.557849
0.8350,180.3637352,-34.19306477,1235.551265
0.8400,180.3892028,-34.23692571,1235.544632
0.8450,180.4143063,-34.28002185,1235.538137
0.8500,180.4384755,-34.32183813,1235.531911
0.8550,180.4615677,-34.36382699,1235.525831
0.8600,180.4843171,-34.40443855,1235.51994
0.8650,180.5056516,-34.44616964,1235.514166
0.8700,180.5262978,-34.48601374,1235.508662
0.8750,180.5451784,-34.52550768,1235.503457
0.8800,180.5631935,-34.5646183,1235.498407
0.8850,180.5796241,-34.60293646,1235.493643
0.8900,180.5940262,-34.64103419,1235.489191
0.8950,180.6058353,-34.67799772,1235.485192
0.9000,180.6161804,-34.71536273,1235.481357
0.9050,180.6245279,-34.75173615,1235.477882
0.9100,180.6303305,-34.7867448,1235.474866
0.9150,180.6328387,-34.82195885,1235.472277
0.9200,180.6332377,-34.85694441,1235.469971
0.9250,180.6309556,-34.89178241,1235.468026
0.9300,180.6273251,-34.92649428,1235.466247
0.9350,180.6220345,-34.96020733,1235.464747
0.9400,180.6145918,-34.99398351,1235.463499
0.9450,180.6061922,-35.02689519,1235.462431
0.9500,180.5960192,-35.06006373,1235.461544
0.9550,180.5840686,-35.0930497,1235.460879
0.9600,180.5705699,-35.12593243,1235.460409
0.9650,180.5555727,-35.15826744,1235.460165
0.9700,180.540083,-35.18904823,1235.460074
0.9750,180.5223,-35.22080158,1235.4602
0.9800,180.5030097,-35.25196111,1235.460559
0.9850,180.4823317,-35.28296305,1235.461098
0.9900,180.4592084,-35.31375598,1235.461977
0.9950,180.4339318,-35.34419991,1235.463168
1.0000,180.4069294,-35.37464268,1235.464584
1.0050,180.3778671,-35.40493119,1235.466284
1.0100,180.3466313,-35.43443117,1235.468334
1.0150,180.313942,-35.46391598,1235.47056
1.0200,180.2795124,-35.49269973,1235.473059
1.0250,180.2420561,-35.52113445,1235.475985
1.0300,180.202823,-35.54946939,1235.47913
1.0350,180.1603728,-35.57808083,1235.482664
1.0400,180.1150085,-35.60631555,1235.486602
1.0450,180.0659175,-35.63458488,1235.491033
1.0500,180.0134799,-35.66279807,1235.495909
1.0550,179.9575568,-35.69092581,1235.501259
1.0600,179.897523,-35.71899583,1235.507163
1.0650,179.834996,-35.7469674,1235.51341
1.0700,179.7705517,-35.77393625,1235.519976
1.0750,179.7038065,-35.80151631,1235.526792
1.0800,179.6344365,-35.82839315,1235.534008
1.0850,179.5636512,-35.85476829,1235.541432
1.0900,179.4908786,-35.88101121,1235.549113
1.0950,179.4169192,-35.90744292,1235.556911
1.1000,179.3421333,-35.93448072,1235.564734
1.1050,179.2659322,-35.9631243,1235.572581
1.1100,179.1896849,-35.9928352,1235.5803
1.1150,179.1122902,-36.02416096,1235.588003
1.1200,179.0351501,-36.05661908,1235.595526
1.1250,178.9579912,-36.09116194,1235.602839
1.1300,178.8822944,-36.12869562,1235.60964
1.1350,178.8080041,-36.16962164,1235.615909
1.1400,178.7352557,-36.21327618,1235.621667
1.1450,178.6634055,-36.26091366,1235.626912
1.1500,178.59413,-36.31316653,1235.631319
1.1550,178.5274656,-36.36962416,1235.634935
1.1600,178.4628294,-36.43027248,1235.637835
1.1650,178.4001527,-36.4944416,1235.640098
1.1700,178.3397997,-36.56234808,1235.641644
1.1750,178.2824388,-36.63407881,1235.642366
1.1800,178.2267436,-36.70818549,1235.64259
1.1850,178.1722991,-36.78507819,1235.642354
1.1900,178.120692,-36.86399198,1235.641486
1.1950,178.070471,-36.94424803,1235.640255
1.2000,178.0211276,-37.02410607,1235.638885
1.2050,177.9722557,-37.10424643,1235.63738
1.2100,177.9243712,-37.18383991,1235.635743
1.2150,177.8783797,-37.26115615,1235.633971
1.2200,177.8323089,-37.33652199,1235.632343
1.2250,177.7862004,-37.40883302,1235.63093
1.2300,177.7395042,-37.47712951,1235.629886
1.2350,177.6921535,-37.54194954,1235.629175
1.2400,177.6439986,-37.60307079,1235.62884
1.2450,177.5951918,-37.66081122,1235.628821
1.2500,177.5460288,-37.71557918,1235.629041
1.2550,177.4969601,-37.76646642,1235.629493
1.2600,177.4481089,-37.81462701,1235.630061
1.2650,177.4006843,-37.85979108,1235.630586
1.2700,177.3534791,-37.90386269,1235.631096
1.2750,177.3084675,-37.94620252,1235.631328
1.2800,177.2651479,-37.98730649,1235.631315
1.2850,177.2241411,-38.02760226,1235.630932
1.2900,177.186991,-38.06804345,1235.629862
1.2950,177.1543866,-38.1080874,1235.628034
1.3000,177.1264564,-38.14869921,1235.625356
1.3050,177.1044224,-38.19083583,1235.621556
1.3100,177.0875655,-38.23499437,1235.616707
1.3150,177.0772949,-38.2796125,1235.610707
1.3200,177.0732814,-38.32710142,1235.603425
1.3250,177.076618,-38.37685014,1235.594728
1.3300,177.0872878,-38.42872664,1235.58462
1.3350,177.1058105,-38.48356049,1235.572965
1.3400,177.1331038,-38.54121483,1235.559624
1.3450,177.169135,-38.6014728,1235.54461
1.3500,177.2138153,-38.66468511,1235.527902
1.3550,177.2684934,-38.73159141,1235.509234
1.3600,177.3334996,-38.80196401,1235.488568
1.3650,177.4075173,-38.87514022,1235.466139
1.3700,177.4912521,-38.95228941,1235.44177
1.3750,177.5840359,-39.03317519,1235.415561
1.3800,177.6863853,-39.11898018,1235.38736
1.3850,177.7978759,-39.20941018,1235.35725
1.3900,177.9189292,-39.30505754,1235.325133
1.3950,178.0487904,-39.40607298,1235.291112
1.4000,178.1872625,-39.51249794,1235.255232
1.4050,178.3341706,-39.62336836,1235.217586
1.4100,178.4887167,-39.74011486,1235.178194
1.4150,178.6514878,-39.8626203,1235.136984
1.4200,178.8211599,-39.99072822,1235.094194
1.4250,178.9972703,-40.12477076,1235.04985
1.4300,179.1787803,-40.26304127,1235.004252
1.4350,179.3647783,-40.40481,1234.957571
1.4400,179.553782,-40.54983396,1234.910053
1.4450,179.7462342,-40.69777685,1234.861665
1.4500,179.9410292,-40.84781599,1234.812627
1.4550,180.1375963,-40.99909104,1234.763072
1.4600,180.3345687,-41.15223742,1234.713163
1.4650,180.5321329,-41.30634082,1234.662923
1.4700,180.7277586,-41.4615616,1234.612702
1.4750,180.9213893,-41.61596415,1234.562648
1.4800,181.1128694,-41.76960003,1234.512753
1.4850,181.3007378,-41.92205902,1234.463251
1.4900,181.4829558,-42.07304243,1234.414436
1.4950,181.6603815,-42.22162363,1234.366244
1.5000,181.831592,-42.36898912,1234.318772
1.5050,181.9963335,-42.51238428,1234.27223
1.5100,182.1542616,-42.65257441,1234.226586
1.5150,182.3037482,-42.78890738,1234.182107
1.5200,182.4447645,-42.92025789,1234.138834
1.5250,182.5772908,-43.04747549,1234.096717
1.5300,182.6998247,-43.17004282,1234.055978
1.5350,182.8120531,-43.286926,1234.016703
1.5400,182.9139749,-43.39952345,1233.978789
1.5450,183.0048159,-43.50635742,1233.942424
1.5500,183.0843885,-43.60646617,1233.907675
1.5550,183.1515356,-43.70187844,1233.874577
1.5600,183.2061428,-43.79165123,1233.843191
1.5650,183.2482505,-43.87584879,1233.81349
1.5700,183.2769482,-43.95313722,1233.78569
1.5750,183.2934251,-44.02461246,1233.759542
1.5800,183.2980789,-44.08998236,1233.735017
1.5850,183.2925055,-44.14941542,1233.711875
1.5900,183.275731,-44.2022603,1233.690297
1.5950,183.2488287,-44.24927134,1233.670105
1.6000,183.2116891,-44.28978322,1233.65134
1.6050,183.164392,-44.32210696,1233.634101
1.6100,183.1088987,-44.34639182,1233.618118
1.6150,183.0454168,-44.36433157,1233.603273
1.6200,182.9754368,-44.37451699,1233.589451
1.6250,182.8999518,-44.37648769,1233.576544
1.6300,182.819078,-44.37124609,1233.564498
1.6350,182.7341072,-44.35821565,1233.553176
1.6400,182.6455436,-44.33676159,1233.542551
1.6450,182.5546092,-44.30817185,1233.532394
1.6500,182.4623794,-44.27269042,1233.52253
1.6550,182.3675105,-44.22968427,1233.513197
1.6600,182.2711131,-44.17988829,1233.504222
1.6650,182.1747364,-44.12347249,1233.495373
1.6700,182.0778809,-44.06023147,1233.486739
1.6750,181.9813575,-43.98937682,1233.478274
1.6800,181.8856717,-43.9111379,1233.469897
1.6850,181.7910731,-43.82520213,1233.461606
1.6900,181.6988199,-43.73120144,1233.453262
1.6950,181.6088106,-43.62787313,1233.444962
1.7000,181.5221602,-43.5158056,1233.43652
1.7050,181.4395322,-43.39460887,1233.427903
1.7100,181.3611147,-43.2635078,1233.419133
1.7150,181.2871297,-43.12215505,1233.410231
1.7200,181.2185157,-42.97023396,1233.401094
1.7250,181.1551076,-42.80754966,1233.39179
1.7300,181.0967864,-42.63499094,1233.382281
1.7350,181.04412,-42.45302748,1233.372492
1.7400,180.9984633,-42.26169239,1233.362249
1.7450,180.9582155,-42.06144275,1233.351743
1.7500,180.9238438,-41.85371413,1233.340854
1.7550,180.8949803,-41.63864168,1233.32965
1.7600,180.872201,-41.41648051,1233.318023
1.7650,180.8543604,-41.18864494,1233.306077
1.7700,180.8414152,-40.95501332,1233.293832
1.7750,180.8332579,-40.71700354,1233.281201
1.7800,180.8285997,-40.47606857,1233.268311
1.7850,180.8282585,-40.23295599,1233.254987
1.7900,180.8316132,-39.987882,1233.241295
1.7950,180.8378278,-39.74153775,1233.227322
1.8000,180.8474331,-39.49381494,1233.213011
1.8050,180.8604966,-39.24548494,1233.198279
1.8100,180.8767769,-38.99720813,1233.183128
1.8150,180.8956397,-38.74958248,1233.167603
1.8200,180.9163716,-38.50157961,1233.151905
1.8250,180.9384989,-38.25358583,1233.136058
1.8300,180.9615453,-38.00691405,1233.120053
1.8350,180.9860326,-37.76130031,1233.103831
1.8400,181.0113351,-37.51502043,1233.087637
1.8450,181.0374997,-37.26880611,1233.071399
1.8500,181.0645757,-37.02289266,1233.055109
1.8550,181.0920846,-36.7765629,1233.038875
1.8600,181.1214338,-36.52893423,1233.022574
1.8650,181.1512231,-36.27989249,1233.006422
1.8700,181.1825916,-36.02954974,1232.990247
1.8750,181.2144063,-35.77673901,1232.974338
1.8800,181.2469015,-35.5216357,1232.958645
1.8850,181.2793993,-35.2640061,1232.943315
1.8900,181.3126267,-35.00493967,1232.928139
1.8950,181.3467835,-34.74409742,1232.913118
1.9000,181.3816632,-34.4817109,1232.898275
1.9050,181.4169246,-34.21801339,1232.883643
1.9100,181.4525782,-33.95324533,1232.869177
1.9150,181.4879785,-33.68677589,1232.855053
1.9200,181.5242169,-33.41834745,1232.841126
1.9250,181.5595568,-33.14948068,1232.827519
1.9300,181.5948584,-32.87803389,1232.814304
1.9350,181.6301522,-32.60498748,1232.8014
1.9400,181.6644778,-32.33090397,1232.7889
1.9450,181.6975337,-32.05438771,1232.776976
1.9500,181.7295623,-31.77547603,1232.765628
1.9550,181.7607472,-31.49328909,1232.754923
1.9600,181.790756,-31.20747123,1232.744946
1.9650,181.816811,-30.91886755,1232.736046
1.9700,181.8409272,-30.6259229,1232.728053
1.9750,181.8636305,-30.3306252,1232.720746
1.9800,181.8841197,-30.03204461,1232.714338
1.9850,181.9026164,-29.73011808,1232.7088
1.9900,181.9181637,-29.42492662,1232.704288
1.9950,181.9300731,-29.11742477,1232.700822
2.0000,181.9384015,-28.8070655,1232.698462
2.0050,181.9422177,-28.49535487,1232.697179
2.0100,181.9413806,-28.18071828,1232.697195
2.0150,181.9359931,-27.86414724,1232.698387
2.0200,181.9251328,-27.5452057,1232.700941
2.0250,181.9093216,-27.22379729,1232.704824
2.0300,181.8892756,-26.89978866,1232.709943
2.0350,181.8645345,-26.57267235,1232.716436
2.0400,181.8343002,-26.24242685,1232.724427
2.0450,181.7993915,-25.90888938,1232.733849
2.0500,181.7598546,-25.57192417,1232.744719
2.0550,181.7160628,-25.23191165,1232.75694
2.0600,181.6677285,-24.88927411,1232.770519
2.0650,181.614471,-24.54345527,1232.785577
2.0700,181.5576128,-24.19478041,1232.801919
2.0750,181.4958733,-23.84326023,1232.81974
2.0800,181.4297524,-23.48877603,1232.838983
2.0850,181.3593549,-23.13126779,1232.859665
2.0900,181.2848809,-22.77125981,1232.88172
2.0950,181.2063565,-22.4097337,1232.905034
2.1000,181.1216894,-22.04553205,1232.93009
2.1050,181.0306648,-21.68029527,1232.956752
2.1100,180.9329644,-21.31278486,1232.985232
2.1150,180.8294098,-20.94408012,1233.015313
2.1200,180.7203695,-20.5744651,1233.046905
2.1250,180.6059613,-20.2046394,1233.079928
2.1300,180.485119,-19.83244503,1233.114824
2.1350,180.3580825,-19.4596014,1233.15136
2.1400,180.2237315,-19.08587312,1233.189713
2.1450,180.081972,-18.71297973,1233.229711
2.1500,179.9316858,-18.34009333,1233.271627
2.1550,179.773673,-17.96727741,1233.315366
2.1600,179.6062322,-17.59574706,1233.361029
2.1650,179.4296697,-17.22552099,1233.408597
2.1700,179.2440508,-16.85770754,1233.457926
2.1750,179.0482319,-16.49151829,1233.509296
2.1800,178.8431386,-16.12795985,1233.562427
2.1850,178.6290936,-15.76656624,1233.617318
2.1900,178.4050382,-15.40709261,1233.674185
2.1950,178.1710418,-15.0501152,1233.73294
2.2000,177.9277766,-14.696086,1233.793435
2.2050,177.6755729,-14.34606386,1233.855474
2.2100,177.4147419,-13.99952402,1233.919132
2.2150,177.1464167,-13.65687749,1233.984167
2.2200,176.8698265,-13.31723635,1234.050852
2.2250,176.5861378,-12.97998945,1234.119119
2.2300,176.2945583,-12.64672508,1234.188861
2.2350,175.994993,-12.31544303,1234.260395
2.2400,175.6878266,-11.98765231,1234.333448
2.2450,175.3726986,-11.66340595,1234.408101
2.2500,175.0501613,-11.34225972,1234.484324
2.2550,174.721395,-11.02618401,1234.561613
2.2600,174.3868108,-10.71330468,1234.640218
2.2650,174.0480603,-10.40462599,1234.719703
2.2700,173.7032946,-10.10011259,1234.800395
2.2750,173.3517551,-9.800036591,1234.882371
2.2800,172.9943254,-9.504644212,1234.965476
2.2850,172.6300618,-9.213838438,1235.049912
2.2900,172.2593937,-8.927836033,1235.135572
2.2950,171.8829761,-8.647335337,1235.222257
2.3000,171.5001756,-8.371159511,1235.310276
2.3050,171.1118648,-8.098934869,1235.399531
2.3100,170.7186952,-7.831247987,1235.4898
2.3150,170.320137,-7.567271528,1235.581336
2.3200,169.9183789,-7.307238005,1235.67371
2.3250,169.5129986,-7.051127019,1235.766981
2.3300,169.1035646,-6.799445728,1235.861196
2.3350,168.6907819,-6.551385613,1235.956354
2.3400,168.2755917,-6.307078342,1236.052274
2.3450,167.8587261,-6.066577264,1236.148804
2.3500,167.4395553,-5.828532414,1236.246311
2.3550,167.0179876,-5.592537464,1236.344885
2.3600,166.5942006,-5.358473846,1236.444517
2.3650,166.1705017,-5.12462075,1236.545063
2.3700,165.7454999,-4.890667372,1236.646855
2.3750,165.3202935,-4.655976542,1236.749787
2.3800,164.894706,-4.42060343,1236.853887
2.3850,164.4687987,-4.182570734,1236.959496
2.3900,164.0430626,-3.942331056,1237.066422
2.3950,163.6180729,-3.697908937,1237.174906
2.4000,163.1933535,-3.449864145,1237.284956
2.4050,162.7696296,-3.197257393,1237.396584
2.4100,162.3458993,-2.940319443,1237.509959
2.4150,161.9221258,-2.678803357,1237.625134
2.4200,161.4974287,-2.411954446,1237.742433
2.4250,161.0711379,-2.138207979,1237.86231
2.4300,160.6441023,-1.859265354,1237.984287
2.4350,160.2152138,-1.574742064,1238.108712
2.4400,159.7848536,-1.284571469,1238.235553
2.4450,159.3525717,-0.988365397,1238.364973
2.4500,158.917721,-0.686395869,1238.497086
2.4550,158.4800773,-0.3789471451,1238.631928
2.4600,158.0402882,-0.06671528957,1238.769246
2.4650,157.597604,0.2502933329,1238.909224
2.4700,157.1514073,0.5726694523,1239.052114
2.4750,156.7036277,0.8998278946,1239.197422
2.4800,156.2527216,1.23226816,1239.345604
2.4850,155.7981444,1.569650249,1239.496775
2.4900,155.3413342,1.910970849,1239.650454
2.4950,154.8820225,2.257014876,1239.806872
2.5000,154.419974,2.608097004,1239.966172
2.5050,153.9543282,2.964159217,1240.128559
2.5100,153.4846508,3.324924086,1240.294098
2.5150,153.0099885,3.690329987,1240.463014
2.5200,152.5304836,4.058780478,1240.635004
2.5250,152.0463235,4.430816112,1240.810147
2.5300,151.5579567,4.806459201,1240.98838
2.5350,151.0653419,5.184739842,1241.169541
2.5400,150.5686317,5.567150635,1241.353917
2.5450,150.0682916,5.953710428,1241.541424
2.5500,149.5634445,6.344324889,1241.732308
2.5550,149.053968,6.740060247,1241.926852
2.5600,148.539401,7.139335441,1242.124904
2.5650,148.0197042,7.541523606,1242.326363
2.5700,147.4952775,7.946138756,1242.531107
2.5750,146.9661084,8.35457195,1242.739425
2.5800,146.4318809,8.765654833,1242.95119
2.5850,145.8937744,9.179484943,1243.166135
2.5900,145.3517159,9.595376868,1243.384176
2.5950,144.8060172,10.01330907,1243.605236
2.6000,144.2565166,10.43226226,1243.82917
2.6050,143.7043131,10.85187118,1244.055649
2.6100,143.1489729,11.27107222,1244.284605
2.6150,142.5927462,11.69069284,1244.51562
2.6200,142.0347437,12.11086129,1244.74896
2.6250,141.4755645,12.53192954,1244.984525
2.6300,140.9158122,12.95523541,1245.222438
2.6350,140.3562081,13.37867339,1245.462057
2.6400,139.796703,13.80298877,1245.703576
2.6450,139.2364121,14.22741724,1245.947065
2.6500,138.6758411,14.65181739,1246.192349
2.6550,138.115333,15.07612668,1246.439323
2.6600,137.5541008,15.50003822,1246.68814
2.6650,136.9912651,15.92341345,1246.939029
2.6700,136.4274549,16.34486306,1247.191476
2.6750,135.8619712,16.76532209,1247.445924
2.6800,135.2963695,17.1850323,1247.702012
2.6850,134.7292138,17.60326402,1247.959976
2.6900,134.1618268,18.02035088,1248.219552
2.6950,133.5931824,18.43560644,1248.480891
2.7000,133.0246081,18.84867727,1248.743501
2.7050,132.4544798,19.2603445,1249.00807
2.7100,131.8835848,19.67117524,1249.274511
2.7150,131.3113821,20.081161,1249.54301
2.7200,130.738987,20.48990778,1249.813133
2.7250,130.1666191,20.8961542,1250.084487
2.7300,129.5953144,21.30165718,1250.357218
2.7350,129.025318,21.70563185,1250.631033
2.7400,128.4567584,22.10781626,1250.905805
2.7450,127.8894183,22.50878535,1251.181731
2.7500,127.3247541,22.9091049,1251.458488
2.7550,126.7629505,23.30907803,1251.736077
2.7600,126.2031146,23.70983651,1252.015055
2.7650,125.6462132,24.11026515,1252.294791
2.7700,125.0922809,24.51010377,1252.575201
2.7750,124.5399726,24.9091557,1252.856663
2.7800,123.9903049,25.30780117,1253.138959
2.7850,123.4424322,25.70495413,1253.422043
2.7900,122.8946347,26.10229994,1253.706924
2.7950,122.3472443,26.49877751,1253.993179
2.8000,121.80031,26.89445823,1254.280829
2.8050,121.2549012,27.28939245,1254.569516
2.8100,120.7104162,27.68317634,1254.859345
2.8150,120.1677604,28.07628696,1255.150135
2.8200,119.627106,28.46933809,1255.441968
2.8250,119.087773,28.86197933,1255.734964
2.8300,118.5505625,29.25507186,1256.029115
2.8350,118.0151581,29.64741065,1256.32417
2.8400,117.4824867,30.0385784,1256.619646
2.8450,116.951965,30.42804672,1256.915618
2.8500,116.4239149,30.81623676,1257.212055
2.8550,115.8976827,31.20275514,1257.509073
2.8600,115.3729869,31.58641302,1257.806396
2.8650,114.8512552,31.96955567,1258.10417
2.8700,114.3326694,32.35098115,1258.401935
2.8750,113.8177122,32.7310137,1258.699604
2.8800,113.3061294,33.109834,1258.997282
2.8850,112.7976223,33.48618275,1259.294701
2.8900,112.2930373,33.86072751,1259.591718
2.8950,111.7917474,34.23271469,1259.88831
2.9000,111.2939005,34.60273025,1260.184607
2.9050,110.7988566,34.9710227,1260.480894
2.9100,110.3059738,35.33854257,1260.777635
2.9150,109.8138233,35.70359432,1261.074871
2.9200,109.3219751,36.06501559,1261.37244
2.9250,108.8314709,36.42294694,1261.669979
2.9300,108.3417359,36.77630823,1261.967387
2.9350,107.8511989,37.12731579,1262.265926
2.9400,107.3602679,37.47528225,1262.565222
2.9450,106.8701703,37.82129478,1262.865131
2.9500,106.3811461,38.16495147,1263.165384
2.9550,105.8919912,38.50674003,1263.466609
2.9600,105.4047601,38.84761652,1263.768298
2.9650,104.9192152,39.18710091,1264.070352
2.9700,104.4364969,39.52695534,1264.372849
2.9750,103.9579349,39.86553718,1264.67473
2.9800,103.4815529,40.20360295,1264.976994
2.9850,103.0092941,40.54072337,1265.278677
2.9900,102.5390908,40.87800613,1265.580967
2.9950,102.0714322,41.21482985,1265.883438
3.0000,101.6073143,41.55150236,1266.185767
3.0050,101.1465827,41.88762156,1266.487879
3.0100,100.6901827,42.22246691,1266.789132
3.0150,100.2376527,42.5572373,1267.090079
3.0200,99.78839603,42.89077236,1267.390594
3.0250,99.34254946,43.22415752,1267.690955
3.0300,98.89955455,43.55567143,1267.990804
3.0350,98.45874528,43.88698349,1268.290939
3.0400,98.02028399,44.21709297,1268.590978
3.0450,97.58442395,44.54709482,1268.891176
3.0500,97.15081081,44.87603756,1269.19138
3.0550,96.71849904,45.20428095,1269.492113
3.0600,96.28817475,45.53147348,1269.792948
3.0650,95.85918797,45.85821517,1270.094376
3.0700,95.43169832,46.18458888,1270.396356
3.0750,95.00508378,46.51052739,1270.699093
3.0800,94.57912271,46.83602324,1271.00269
3.0850,94.1545121,47.1612125,1271.306854
3.0900,93.73313794,47.48589077,1271.610664
3.0950,93.31484953,47.81111394,1271.914547
3.1000,92.89964242,48.13617356,1272.218183
3.1050,92.48766817,48.46097965,1272.521492
3.1100,92.07930403,48.78539008,1272.824208
3.1150,91.6745771,49.10869708,1273.126066
3.1200,91.27223793,49.43055567,1273.427474
3.1250,90.87332303,49.75110082,1273.728026
3.1300,90.47698428,50.06984655,1274.02788
3.1350,90.08289423,50.38676118,1274.327189
3.1400,89.69169219,50.70320951,1274.626144
3.1450,89.30346631,51.01908831,1274.92463
3.1500,88.91837729,51.33332331,1275.222173
3.1550,88.53721411,51.64639506,1275.518513
3.1600,88.16046517,51.95883922,1275.813626
3.1650,87.78663561,52.2691779,1276.10766
3.1700,87.41477602,52.57869043,1276.401555
3.1750,87.04537203,52.8857464,1276.694497
3.1800,86.67831047,53.19032813,1276.986494
3.1850,86.31228611,53.49328215,1277.278488
3.1900,85.94662729,53.79455724,1277.57078
3.1950,85.58088264,54.09491525,1277.863865
3.2000,85.21599252,54.3937341,1278.15705
3.2050,84.85132304,54.69097947,1278.450611
3.2100,84.48846339,54.98695634,1278.743913
3.2150,84.12542258,55.2820796,1279.038094
3.2200,83.76219772,55.57643875,1279.333168
3.2250,83.39799223,55.86959856,1279.629381
3.2300,83.03360477,56.16284738,1279.926811
3.2350,82.66960764,56.45476998,1280.224624
3.2400,82.30530451,56.74562442,1280.523241
3.2450,81.94143209,57.03544069,1280.822311
3.2500,81.57626942,57.32501754,1281.123027
3.2550,81.21228309,57.61394013,1281.423959
3.2600,80.84858748,57.90177527,1281.725386
3.2650,80.48548981,58.18872652,1282.027246
3.2700,80.1221339,58.47443623,1282.329832
3.2750,79.75858657,58.75994085,1282.633481
3.2800,79.39470185,59.0444988,1282.937985
3.2850,79.03164065,59.32935361,1283.243285
3.2900,78.66982681,59.61368927,1283.548786
3.2950,78.31011602,59.89846868,1283.85444
3.3000,77.95148845,60.18370754,1284.160791
3.3050,77.59455426,60.46970173,1284.467646
3.3100,77.23873196,60.75545488,1284.77488
3.3150,76.88483101,61.04095214,1285.082058
3.3200,76.53236336,61.32621554,1285.389458
3.3250,76.18052856,61.61044959,1285.697155
3.3300,75.82931167,61.89449533,1286.005509
3.3350,75.47891381,62.17662303,1286.313697
3.3400,75.12906365,62.4574578,1286.622094
3.3450,74.7796694,62.73625361,1286.930444
3.3500,74.43008193,63.01257947,1287.238896
3.3550,74.08000862,63.28517793,1287.547051
3.3600,73.7290389,63.5546857,1287.855422
3.3650,73.37719412,63.82093448,1288.163888
3.3700,73.02340661,64.08381319,1288.472986
3.3750,72.6684905,64.34340468,1288.782287
3.3800,72.31223411,64.59856223,1289.091391
3.3850,71.95434767,64.85002933,1289.400806
3.3900,71.59438913,65.09717894,1289.710482
3.3950,71.23181686,65.33942825,1290.02048
3.4000,70.86714939,65.57720844,1290.330711
3.4050,70.50011148,65.81023544,1290.641161
3.4100,70.13138704,66.03866436,1290.95153
3.4150,69.76059511,66.26328746,1291.262342
3.4200,69.38910719,66.48432208,1291.572959
3.4250,69.01649984,66.70119779,1291.883325
3.4300,68.6427601,66.91351927,1292.193256
3.4350,68.26957127,67.12238304,1292.502259
3.4400,67.89621678,67.32720587,1292.810511
3.4450,67.52295043,67.52813235,1293.117891
3.4500,67.14969676,67.72577711,1293.424741
3.4550,66.77606775,67.91974929,1293.731125
3.4600,66.40338538,68.11057241,1294.036507
3.4650,66.03070121,68.29819679,1294.34136
3.4700,65.66012351,68.4824221,1294.644378
3.4750,65.29089816,68.6643526,1294.946444
3.4800,64.92374139,68.84460508,1295.247463
3.4850,64.55904872,69.02214535,1295.546697
3.4900,64.19702926,69.19729047,1295.844144
3.4950,63.83809131,69.37088088,1296.139959
3.5000,63.48143075,69.5429134,1296.434579
3.5050,63.12753887,69.71390895,1296.727934
3.5100,62.77623908,69.88385633,1297.020145
3.5150,62.42940165,70.05314423,1297.310226
3.5200,62.08705142,70.22259553,1297.598516
3.5250,61.74910593,70.39276004,1297.885309
3.5300,61.41463388,70.56333713,1298.171014
3.5350,61.08519031,70.7351458,1298.455052
3.5400,60.7595833,70.90736067,1298.737735
3.5450,60.43792691,71.08114277,1299.01953
3.5500,60.12086797,71.25546834,1299.299523
3.5550,59.80752525,71.43044123,1299.578336
3.5600,59.49871413,71.60727799,1299.855999
3.5650,59.1942899,71.78523061,1300.132218
3.5700,58.89432044,71.96489231,1300.407235
3.5750,58.59818823,72.14625971,1300.681411
3.5800,58.30617076,72.32996934,1300.954843
3.5850,58.01739683,72.51448544,1301.227301
3.5900,57.73185081,72.70014622,1301.498964
3.5950,57.44902998,72.88565688,1301.769505
3.6000,57.16897086,73.07201609,1302.039356
3.6050,56.89150269,73.25846869,1302.308243
3.6100,56.61677557,73.44486584,1302.575985
3.6150,56.34361421,73.63084207,1302.843143
3.6200,56.07185823,73.81595101,1303.10954
3.6250,55.80121357,73.99893511,1303.374788
3.6300,55.53112927,74.17856349,1303.638615
3.6350,55.26045474,74.35490352,1303.901782
3.6400,54.98929674,74.52726356,1304.163895
3.6450,54.71643731,74.6947722,1304.425259
3.6500,54.44186697,74.85712926,1304.685718
3.6550,54.16535193,75.01513324,1304.945816
3.6600,53.88650996,75.16663505,1305.204718
3.6650,53.60452359,75.31135453,1305.462849
3.6700,53.32065709,75.44873823,1305.719098
3.6750,53.03317614,75.57829278,1305.974372
3.6800,52.74149968,75.70047449,1306.229259
3.6850,52.44609483,75.81425074,1306.482938
3.6900,52.14557509,75.91984603,1306.736468
3.6950,51.84025544,76.01725457,1306.989633
3.7000,51.52922634,76.10757971,1307.243575
3.7050,51.21332333,76.19068472,1307.497696
3.7100,50.89265019,76.26731803,1307.752339
3.7150,50.56698875,76.33761731,1308.007722
3.7200,50.23677366,76.40173722,1308.263655
3.7250,49.90211682,76.46044083,1308.520501
3.7300,49.56357731,76.51402649,1308.778043
3.7350,49.22134251,76.56367452,1309.036802
3.7400,48.87446476,76.60880526,1309.297119
3.7450,48.52475705,76.65100318,1309.558594
3.7500,48.17237846,76.68978825,1309.820903
3.7550,47.81865824,76.72673948,1310.083951
3.7600,47.4625504,76.76108482,1310.348085
3.7650,47.10556093,76.79383353,1310.612823
3.7700,46.74665973,76.82545271,1310.879096
3.7750,46.38732574,76.85602073,1311.145969
3.7800,46.02758091,76.88609689,1311.41366
3.7850,45.66848453,76.91669367,1311.682001
3.7900,45.31074795,76.94868099,1311.950967
3.7950,44.95380416,76.98132565,1312.220549
3.8000,44.59920343,77.0164817,1312.490612
3.8050,44.24745717,77.05419488,1312.760848
3.8100,43.89703377,77.09386234,1313.031973
3.8150,43.54863116,77.13681061,1313.304217
3.8200,43.20265568,77.18405625,1313.577781
3.8250,42.8596488,77.23575332,1313.852349
3.8300,42.52024957,77.29225081,1314.127659
3.8350,42.18340813,77.35322704,1314.404252
3.8400,41.85078592,77.42110925,1314.68221
3.8450,41.52163581,77.49425633,1314.961175
3.8500,41.19640496,77.57393178,1315.241509
3.8550,40.87513458,77.65995487,1315.523054
3.8600,40.55614093,77.75162002,1315.806682
3.8650,40.23935475,77.8484946,1316.092207
3.8700,39.92449479,77.95075447,1316.379919
3.8750,39.61092044,78.05645508,1316.669294
3.8800,39.29962848,78.16549789,1316.959532
3.8850,38.9894626,78.27786438,1317.251461
3.8900,38.68074684,78.39246817,1317.544267
3.8950,38.37251144,78.50969272,1317.838873
3.9000,38.06489766,78.62630018,1318.13342
3.9050,37.75675172,78.74216147,1318.428722
3.9100,37.44684829,78.85603993,1318.725031
3.9150,37.13499117,78.96692,1319.021945
3.9200,36.82133757,79.0733614,1319.318564
3.9250,36.50503912,79.17545963,1319.615565
3.9300,36.18677428,79.27221743,1319.911919
3.9350,35.86659489,79.36328838,1320.207361
3.9400,35.54362295,79.44700568,1320.501652
3.9450,35.21755753,79.52297941,1320.794838
3.9500,34.88856837,79.5915173,1321.086942
3.9550,34.55674605,79.65082484,1321.376935
3.9600,34.2210295,79.70152395,1321.665963
3.9650,33.88232629,79.74224914,1321.952569
3.9700,33.53926178,79.77311804,1322.237864
3.9750,33.19301737,79.79457598,1322.521213
3.9800,32.84393439,79.80601488,1322.801998
3.9850,32.49161117,79.80712989,1323.080411
3.9900,32.13702896,79.79821133,1323.355818
3.9950,31.78055404,79.77882924,1323.627695
4.0000,31.42236435,79.74735722,1323.895075
4.0050,31.06242585,79.70478012,1324.158516
4.0100,30.69960485,79.64975856,1324.418163
4.0150,30.33506343,79.58294976,1324.673484
4.0200,29.9688945,79.5036107,1324.923988
4.0250,29.60173658,79.41247174,1325.169544
4.0300,29.23393884,79.3109221,1325.410695
4.0350,28.86588987,79.19817359,1325.646665
4.0400,28.49901697,79.07501524,1325.876779
4.0450,28.13294384,78.94093163,1326.101056
4.0500,27.76890844,78.79756069,1326.319358
4.0550,27.40533143,78.64433832,1326.532674
4.0600,27.0437542,78.48259791,1326.740441
4.0650,26.68477426,78.31376607,1326.942979
4.0700,26.32932293,78.13855093,1327.139906
4.0750,25.97703282,77.95785912,1327.332009
4.0800,25.62852018,77.77264951,1327.519323
4.0850,25.28458529,77.5850424,1327.702313
4.0900,24.94516118,77.39667919,1327.881876
4.0950,24.61246813,77.20898967,1328.056991
4.1000,24.28510846,77.02270677,1328.229182
4.1050,23.96290357,76.83980906,1328.399612
4.1100,23.64883047,76.66198653,1328.566743
4.1150,23.34125318,76.48982853,1328.732171
4.1200,23.04130775,76.32403775,1328.895328
4.1250,22.74931664,76.16579595,1329.056546
4.1300,22.46573735,76.01689517,1329.216391
4.1350,22.19119362,75.87805607,1329.374703
4.1400,21.92534412,75.74835612,1329.531189
4.1450,21.66860079,75.62986933,1329.686591
4.1500,21.42114234,75.5217482,1329.840266
4.1550,21.18297332,75.42444023,1329.992396
4.1600,20.95574305,75.33858664,1330.141839
4.1650,20.73930489,75.26429816,1330.288732
4.1700,20.5341772,75.20085561,1330.432212
4.1750,20.34089215,75.15008298,1330.572739
4.1800,20.1597001,75.11123831,1330.709643
4.1850,19.99075777,75.0842826,1330.842763
4.1900,19.83442556,75.06916563,1330.97173
4.1950,19.69200282,75.06561546,1331.09519
4.2000,19.56325111,75.07410968,1331.213611
4.2050,19.44888839,75.09337417,1331.325636
4.2100,19.35027866,75.12384692,1331.430271
4.2150,19.26662554,75.16406733,1331.527388
4.2200,19.19856877,75.21389309,1331.616332
4.2250,19.14644677,75.27283767,1331.696501
4.2300,19.10885583,75.33997168,1331.768576
4.2350,19.08629393,75.4141111,1331.831437
4.2400,19.07894594,75.49528255,1331.88493
4.2450,19.08653453,75.58116381,1331.928
4.2500,19.10827472,75.67065862,1331.960732
4.2550,19.14317476,75.76192228,1331.982971
4.2600,19.19199737,75.85522937,1331.994191
4.2650,19.25253552,75.9493923,1331.995686
4.2700,19.32489427,76.04343168,1331.986805
4.2750,19.40827359,76.13602453,1331.967545
4.2800,19.50206852,76.22720974,1331.93847
4.2850,19.60567102,76.3167264,1331.899927
4.2900,19.71813044,76.40261424,1331.85171
4.2950,19.83812539,76.48489483,1331.794952
4.3000,19.96510094,76.56257122,1331.729577
4.3050,20.09813605,76.63412035,1331.655586
4.3100,20.23815549,76.70062775,1331.572784
4.3150,20.38406524,76.76074946,1331.481368
4.3200,20.53493637,76.81445699,1331.382141
4.3250,20.69136295,76.86156038,1331.274474
4.3300,20.85325632,76.90211453,1331.158494
4.3350,21.01988328,76.93565507,1331.034575
4.3400,21.19114729,76.96313663,1330.903358
4.3450,21.36693464,76.98424391,1330.764815
4.3500,21.54667786,76.99860983,1330.619242
4.3550,21.73148325,77.00670012,1330.465995
4.3600,21.92037083,77.00866153,1330.306031
4.3650,22.11264977,77.00466839,1330.140038
4.3700,22.3080561,76.99430101,1329.968022
4.3750,22.50712044,76.97882598,1329.790251
4.3800,22.70948565,76.95790984,1329.606868
4.3850,22.91482002,76.93159115,1329.418182
4.3900,23.12292791,76.89961055,1329.224256
4.3950,23.33319496,76.86319684,1329.026282
4.4000,23.54728023,76.8239906,1328.823812
4.4050,23.76557093,76.78289242,1328.617062
4.4100,23.98701489,76.74068593,1328.407328
4.4150,24.21443015,76.69954325,1328.193547
4.4200,24.44720698,76.65983095,1327.976458
4.4250,24.68596245,76.62186135,1327.755743
4.4300,24.93087941,76.58552374,1327.531233
4.4350,25.18142659,76.55162027,1327.303805
4.4400,25.43901025,76.52101306,1327.072819
4.4450,25.70390096,76.49361719,1326.838041
4.4500,25.97655409,76.4705669,1326.599711
4.4550,26.25695039,76.45208158,1326.357977
4.4600,26.54477067,76.43703446,1326.112551
4.4650,26.84018491,76.42621343,1325.863758
4.4700,27.1432173,76.41995614,1325.611752
4.4750,27.45369335,76.41774826,1325.356461
4.4800,27.77126126,76.41883516,1325.097799
4.4850,28.09676255,76.42335758,1324.835197
4.4900,28.42916566,76.43113489,1324.569389
4.4950,28.76796096,76.44142039,1324.300455
4.5000,29.11222156,76.45333678,1324.028671
4.5050,29.46174265,76.46607447,1323.753783
4.5100,29.81496837,76.47917515,1323.47681
4.5150,30.17238766,76.49169463,1323.19688
4.5200,30.53200319,76.50296151,1322.915274
4.5250,30.89471834,76.51266288,1322.631097
4.5300,31.26007943,76.5198573,1322.344226
4.5350,31.6261164,76.52390405,1322.055899
4.5400,31.99155153,76.5231128,1321.766234
4.5450,32.35622437,76.51810377,1321.475657
4.5500,32.71965404,76.50720107,1321.183691
4.5550,33.0812159,76.49121022,1320.891225
4.5600,33.43969668,76.46858037,1320.598354
4.5650,33.79577854,76.44034667,1320.305073
4.5700,34.14854795,76.40441953,1320.011039
4.5750,34.4977141,76.36107671,1319.716572
4.5800,34.84263192,76.30946135,1319.421731
4.5850,35.18317277,76.24950325,1319.126547
4.5900,35.51892308,76.1805735,1318.830978
4.5950,35.85017505,76.10220194,1318.534606
4.6000,36.17746019,76.01615229,1318.237912
4.6050,36.50062108,75.92335528,1317.941442
4.6100,36.82052555,75.82407605,1317.644683
4.6150,37.13833834,75.71920493,1317.347225
4.6200,37.45557889,75.60950675,1317.048327
4.6250,37.77218483,75.49520304,1316.748203
4.6300,38.08814855,75.37578175,1316.446592
4.6350,38.40535344,75.25171232,1316.142383
4.6400,38.7243459,75.12320966,1315.835295
4.6450,39.04503408,74.99083439,1315.525708
4.6500,39.36735659,74.85447092,1315.213659
4.6550,39.69203838,74.71498963,1314.899097
4.6600,40.01989662,74.57230513,1314.581435
4.6650,40.35062096,74.42514791,1314.26027
4.6700,40.68566808,74.2745626,1313.935174
4.6750,41.02377103,74.12100804,1313.60731
4.6800,41.36589487,73.96483592,1313.276227
4.6850,41.71091266,73.80533343,1312.942424
4.6900,42.05956538,73.6437807,1312.606028
4.6950,42.41111215,73.48019882,1312.267638
4.7000,42.76535509,73.31411267,1311.927129
4.7050,43.12247733,73.14563417,1311.584447
4.7100,43.48444454,72.97670769,1311.239195
4.7150,43.85011587,72.80615538,1310.891545
4.7200,44.22099772,72.63521134,1310.541092
4.7250,44.59640613,72.46423519,1310.18853
4.7300,44.9768013,72.29396966,1309.833885
4.7350,45.3630154,72.12433873,1309.476583
4.7400,45.75447261,71.95559601,1309.117159
4.7450,46.15097026,71.78837754,1308.756103
4.7500,46.55304582,71.62168014,1308.392546
4.7550,46.96017993,71.45415636,1308.026256
4.7600,47.37190778,71.2873453,1307.658338
4.7650,47.78874741,71.12105458,1307.288356
4.7700,48.21046009,70.95447459,1306.916139
4.7750,48.63751065,70.7866359,1306.540933
4.7800,49.06859817,70.61740194,1306.163579
4.7850,49.50128228,70.44524641,1305.785013
4.7900,49.93634017,70.26982008,1305.404618
4.7950,50.37189689,70.08956723,1305.022893
4.8000,50.80782114,69.9051291,1304.640267
4.8050,51.24283819,69.71544257,1304.257073
4.8100,51.67599075,69.51948942,1303.873494
4.8150,52.10688862,69.31724182,1303.489764
4.8200,52.53540878,69.10877885,1303.105957
4.8250,52.9602084,68.89378105,1302.722803
4.8300,53.38105401,68.67187535,1302.34024
4.8350,53.79822664,68.44375155,1301.958436
4.8400,54.21212171,68.21016574,1301.577421
4.8450,54.62283487,67.97218099,1301.197644
4.8500,55.03106553,67.7298591,1300.818657
4.8550,55.43745864,67.48429837,1300.440569
4.8600,55.84233924,67.23547928,1300.063189
4.8650,56.24628292,66.98315141,1299.686061
4.8700,56.65014197,66.72907395,1299.30946
4.8750,57.05376255,66.47265564,1298.933183
4.8800,57.4571033,66.21330342,1298.557053
4.8850,57.86004676,65.9507712,1298.181053
4.8900,58.26295278,65.68665317,1297.80567
4.8950,58.66559372,65.42138655,1297.431241
4.9000,59.06746674,65.15430624,1297.057786
4.9050,59.47017402,64.88604594,1296.684637
4.9100,59.87248198,64.61572342,1296.312138
4.9150,60.2732641,64.34299639,1295.940852
4.9200,60.67298695,64.06866653,1295.570853
4.9250,61.0708728,63.79144348,1295.202054
4.9300,61.46749415,63.51227936,1294.834517
4.9350,61.86132763,63.230806,1294.469021
4.9400,62.25300145,62.94725147,1294.105262
4.9450,62.64314788,62.66210999,1293.74309
4.9500,63.03248003,62.37579014,1293.382264
4.9550,63.42103828,62.08794969,1293.022599
4.9600,63.80862654,61.79869752,1292.664255
4.9650,64.19721634,61.51039648,1292.307107
4.9700,64.58633609,61.22250792,1291.951169
4.9750,64.97749392,60.93527176,1291.595707
4.9800,65.370961,60.64907077,1291.240712
4.9850,65.76796711,60.36563102,1290.886249
4.9900,66.1682598,60.08315134,1290.531728
4.9950,66.57327936,59.80259523,1290.176738
5.0000,66.98180995,59.52301027,1289.821627
5.0050,67.39434271,59.24355506,1289.465835
5.0100,67.80947489,58.96356715,1289.109907
5.0150,68.22744942,58.68349034,1288.753928
5.0200,68.64755705,58.40210459,1288.397814
5.0250,69.07044113,58.11988752,1288.041383
5.0300,69.4961111,57.83673853,1287.684621
5.0350,69.92516674,57.55222704,1287.327051
5.0400,70.35702235,57.26660725,1286.969137
5.0450,70.79250346,56.97973247,1286.610369
5.0500,71.23150551,56.69322192,1286.251513
5.0550,71.67576519,56.40860987,1285.89223
5.0600,72.1262842,56.12578042,1285.531921
5.0650,72.58211596,55.84388221,1285.170802
5.0700,73.04302426,55.56355959,1284.809282
5.0750,73.50793075,55.28540842,1284.44819
5.0800,73.97787463,55.00836801,1284.086583
5.0850,74.45370214,54.73208633,1283.723885
5.0900,74.93458724,54.45621477,1283.360373
5.0950,75.42027358,54.18019701,1282.996017
5.1000,75.91088014,53.90317037,1282.630419
5.1050,76.40630901,53.62545291,1282.263788
5.1100,76.90684814,53.34699046,1281.895962
5.1150,77.41300374,53.0688,1281.527075
5.1200,77.92500239,52.79032797,1281.156846
5.1250,78.44229277,52.51084136,1280.785334
5.1300,78.96446682,52.23049963,1280.412864
5.1350,79.49195449,51.94935339,1280.039271
5.1400,80.02433659,51.66660352,1279.664531
5.1450,80.56074812,51.3822237,1279.289091
5.1500,81.09955482,51.09595764,1278.913726
5.1550,81.64080994,50.80742772,1278.538248
5.1600,82.18432722,50.51745945,1278.163075
5.1650,82.72867721,50.22529225,1277.788645
5.1700,83.2751868,49.93215407,1277.414725
5.1750,83.82388372,49.63716994,1277.041015
5.1800,84.37609431,49.34189419,1276.667408
5.1850,84.93208474,49.04721693,1276.2941
5.1900,85.49234849,48.75280535,1275.920764
5.1950,86.05683471,48.4592356,1275.54765
5.2000,86.62682496,48.1670092,1275.174322
5.2050,87.20117165,47.87511465,1274.801005
5.2100,87.7804478,47.58510116,1274.428036
5.2150,88.36497325,47.29643887,1274.055098
5.2200,88.95501856,47.00892783,1273.682022
5.2250,89.55010377,46.72244091,1273.309018
5.2300,90.15111777,46.43714839,1272.935742
5.2350,90.75783136,46.15231912,1272.562046
5.2400,91.36977011,45.86622113,1272.187561
5.2450,91.98643481,45.578316,1271.812349
5.2500,92.60763619,45.28825918,1271.436405
5.2550,93.23264462,44.99578486,1271.060018
5.2600,93.86128635,44.70061777,1270.683234
5.2650,94.49314969,44.40239467,1270.306144
5.2700,95.12689633,44.10146916,1269.929524
5.2750,95.76235089,43.79714513,1269.553226
5.2800,96.39926738,43.48982693,1269.177559
5.2850,97.03790968,43.17877534,1268.802152
5.2900,97.67807234,42.86523198,1268.42758
5.2950,98.31984238,42.54978417,1268.054007
5.3000,98.96333056,42.23230468,1267.681382
5.3050,99.6079658,41.91287027,1267.31
5.3100,100.2528308,41.58966208,1266.939664
5.3150,100.8978239,41.26251733,1266.570399
5.3200,101.5426538,40.93119082,1266.202245
5.3250,102.1864778,40.59543731,1265.835473
5.3300,102.8293367,40.25481799,1265.4699
5.3350,103.4709455,39.90973696,1265.105745
5.3400,104.1121957,39.55950316,1264.742394
5.3450,104.7520036,39.20332251,1264.380028
5.3500,105.390473,38.84022813,1264.018303
5.3550,106.0263328,38.47039251,1263.657806
5.3600,106.6586756,38.09316693,1263.298712
5.3650,107.287994,37.70808183,1262.940695
5.3700,107.914928,37.31543689,1262.583595
5.3750,108.5383793,36.91465707,1262.227707
5.3800,109.1585939,36.50747611,1261.873511
5.3850,109.7756051,36.09352946,1261.520937
5.3900,110.3894767,35.67301614,1261.17004
5.3950,111.0019595,35.24705197,1260.82051
5.4000,111.6133699,34.81614363,1260.472411
5.4050,112.2262511,34.38112445,1260.125023
5.4100,112.8410769,33.94301887,1259.778514
5.4150,113.4576593,33.50019091,1259.432505
5.4200,114.0755034,33.05414659,1259.087645
5.4250,114.6946415,32.60499505,1258.743964
5.4300,115.315705,32.15368233,1258.401501
5.4350,115.9373645,31.69932245,1258.060471
5.4400,116.5590669,31.24265599,1257.721266
5.4450,117.1809051,30.7824631,1257.383511
5.4500,117.8036041,30.3195089,1257.047127
5.4550,118.4264853,29.85298824,1256.712136
5.4600,119.0500336,29.38173666,1256.377997
5.4650,119.6742421,28.90695106,1256.045028
5.4700,120.2970709,28.42739476,1255.713598
5.4750,120.9185751,27.94408218,1255.38397
5.4800,121.5385862,27.4575127,1255.056333
5.4850,122.1571597,26.96849777,1254.730937
5.4900,122.7744906,26.47867084,1254.408165
5.4950,123.3908982,25.98940762,1254.088288
5.5000,124.0057691,25.50104477,1253.771633
5.5050,124.6183475,25.01571474,1253.459022
5.5100,125.2276105,24.53317452,1253.150719
5.5150,125.8339574,24.05390604,1252.846706
5.5200,126.4357636,23.57800184,1252.547499
5.5250,127.0327238,23.10676477,1252.253477
5.5300,127.6241891,22.6381256,1251.964279
5.5350,128.210467,22.1746076,1251.680403
5.5400,128.7904863,21.71647837,1251.402191
5.5450,129.3637978,21.26411571,1251.129826
5.5500,129.9286966,20.8183622,1250.863976
5.5550,130.486151,20.37977729,1250.604365
5.5600,131.0359906,19.94837964,1250.350952
5.5650,131.5779951,19.52521729,1250.103978
5.5700,132.112217,19.11072088,1249.86346
5.5750,132.6376863,18.70546505,1249.62976
5.5800,133.1536893,18.30986036,1249.403093
5.5850,133.660463,17.92439603,1249.183437
5.5900,134.1588626,17.5492698,1248.970478
5.5950,134.6488965,17.18450398,1248.764138
5.6000,135.1326889,16.83085324,1248.563909
5.6050,135.6106874,16.49032402,1248.370039
5.6100,136.08482,16.1641417,1248.182204
5.6150,136.5560163,15.85272943,1248.000129
5.6200,137.0254378,15.55616892,1247.823436
5.6250,137.4940081,15.27404729,1247.651738
5.6300,137.9603119,15.00561752,1247.485204
5.6350,138.4235192,14.75056927,1247.323976
5.6400,138.8835226,14.50850781,1247.167935
5.6450,139.3405333,14.27927852,1247.016947
5.6500,139.793694,14.06186888,1246.870964
5.6550,140.2427155,13.85510129,1246.729698
5.6600,140.6875741,13.65864966,1246.593053
5.6650,141.1273607,13.47285045,1246.46128
5.6700,141.5613861,13.29480494,1246.333853
5.6750,141.9925124,13.12447293,1246.209914
5.6800,142.4189841,12.95921159,1246.089259
5.6850,142.8406111,12.79889242,1245.971863
5.6900,143.2571022,12.64252649,1245.857586
5.6950,143.6680456,12.48924785,1245.746301
5.7000,144.0719361,12.33724776,1245.637995
5.7050,144.4657441,12.18569129,1245.533266
5.7100,144.8483859,12.03338385,1245.432095
5.7150,145.2195487,11.88045937,1245.334531
5.7200,145.5798197,11.72709859,1245.240438
5.7250,145.9297415,11.57247609,1245.149432
5.7300,146.2693386,11.41641798,1245.061467
5.7350,146.6001215,11.25923249,1244.976164
5.7400,146.922457,11.1003076,1244.893284
5.7450,147.2364395,10.94005938,1244.812876
5.7500,147.5434163,10.77954235,1244.734809
5.7550,147.8428235,10.61883519,1244.659209
5.7600,148.1353242,10.45916663,1244.586137
5.7650,148.4217969,10.30099835,1244.515463
5.7700,148.7021914,10.14550619,1244.44743
5.7750,148.9766376,9.992396512,1244.381889
5.7800,149.2447297,9.841632167,1244.318919
5.7850,149.5063348,9.693702858,1244.258617
5.7900,149.7612504,9.547775436,1244.200789
5.7950,150.0106342,9.403658651,1244.145101
5.8000,150.2546196,9.261454318,1244.091486
5.8050,150.4949233,9.121456205,1244.039579
5.8100,150.7326726,8.983650675,1243.989053
5.8150,150.9681675,8.849122061,1243.940084
5.8200,151.2028443,8.719147415,1243.892573
5.8250,151.4379901,8.594349851,1243.846334
5.8300,151.6744527,8.477542148,1243.801735
5.8350,151.9131125,8.368705141,1243.758584
5.8400,152.154612,8.269199647,1243.717032
5.8450,152.4010885,8.179533951,1243.676661
5.8500,152.6535694,8.100679954,1243.637437
5.8550,152.9120502,8.032755763,1243.599391
5.8600,153.1777231,7.977961396,1243.5627
5.8650,153.4500055,7.933832871,1243.526975
5.8700,153.728911,7.899763346,1243.492055
5.8750,154.0133278,7.875337439,1243.458105
5.8800,154.3034231,7.86025024,1243.425012
5.8850,154.597783,7.853768302,1243.392948
5.8900,154.8952175,7.854574943,1243.361887
5.8950,155.1960364,7.861895995,1243.331592
5.9000,155.4979355,7.875047049,1243.302404
5.9050,155.8017422,7.891614655,1243.273639
5.9100,156.1057134,7.911360463,1243.245613
5.9150,156.4086713,7.933235073,1243.218386
5.9200,156.7101626,7.956221921,1243.191835
5.9250,157.0086965,7.980937696,1243.166412
5.9300,157.3051424,8.007427019,1243.14195
5.9350,157.5998208,8.036751544,1243.118585
5.9400,157.8913043,8.06953536,1243.096774
5.9450,158.1790146,8.105320087,1243.076524
5.9500,158.4629255,8.144750655,1243.057973
5.9550,158.7428001,8.187654979,1243.041111
5.9600,159.0181366,8.233953572,1243.026009
5.9650,159.2895414,8.2826058,1243.012278
5.9700,159.5562137,8.334489563,1243.000281
5.9750,159.8160005,8.388315617,1242.990175
5.9800,160.069215,8.445306242,1242.982145
5.9850,160.3146393,8.505069166,1242.97632
5.9900,160.5508078,8.567914269,1242.973032
5.9950,160.7766725,8.633271149,1242.972362
6.0000,160.9923691,8.701691525,1242.974357
6.0050,161.1976137,8.773188422,1242.979034
6.0100,161.3912757,8.84861702,1242.986801
6.0150,161.5712952,8.927550331,1242.99799
6.0200,161.7378228,9.009266148,1243.012382
6.0250,161.8893005,9.094500615,1243.030452
6.0300,162.0239105,9.182389527,1243.052357
6.0350,162.1410974,9.273577692,1243.078367
6.0400,162.241383,9.368229604,1243.108397
6.0450,162.3252162,9.466553651,1243.142402
6.0500,162.3914851,9.568771641,1243.18064
6.0550,162.4416249,9.675202573,1243.222914
6.0600,162.4762433,9.78572832,1243.269083
6.0650,162.4956306,9.900726466,1243.319165
6.0700,162.5015961,10.02101233,1243.372983
6.0750,162.4949582,10.14820114,1243.43075
6.0800,162.4773968,10.2829368,1243.492265
6.0850,162.4510811,10.42507935,1243.557076
6.0900,162.41759,10.57593001,1243.625155
6.0950,162.37792,10.73542082,1243.696278
6.1000,162.3344381,10.90411052,1243.770117
6.1050,162.2882265,11.08104642,1243.846226
6.1100,162.2420036,11.26646755,1243.924099
6.1150,162.1967937,11.46039733,1244.003523
6.1200,162.1539908,11.66076347,1244.08374
6.1250,162.1153214,11.86699277,1244.16425
6.1300,162.0810198,12.07705546,1244.244544
6.1350,162.0520402,12.28969606,1244.324117
6.1400,162.0295927,12.50385224,1244.402456
6.1450,162.0128018,12.71878107,1244.479566
6.1500,162.0029231,12.93323571,1244.554906
6.1550,162.000236,13.14613261,1244.628147
6.1600,162.0037045,13.35678089,1244.699362
6.1650,162.0149085,13.56544611,1244.768268
6.1700,162.0340124,13.77241395,1244.834911
6.1750,162.0625494,13.97611199,1244.898612
6.1800,162.1012119,14.17685017,1244.9593
6.1850,162.1491717,14.37304699,1245.016757
6.1900,162.2069748,14.56497864,1245.070953
6.1950,162.274034,14.752211,1245.121917
6.2000,162.3502034,14.93358339,1245.169418
6.2050,162.4342437,15.10916906,1245.213725
6.2100,162.5265352,15.27818276,1245.25457
6.2150,162.6256264,15.44018956,1245.292145
6.2200,162.7318489,15.59599046,1245.326586
6.2250,162.8454261,15.74446715,1245.357562
6.2300,162.9666672,15.88657259,1245.385244
6.2350,163.0932884,16.02076071,1245.409732
6.2400,163.2258641,16.14726909,1245.430967
6.2450,163.3643444,16.26535543,1245.448763
6.2500,163.5074303,16.37429823,1245.463218
6.2550,163.6548871,16.47485254,1245.474577
6.2600,163.8062464,16.56607991,1245.482689
6.2650,163.9601825,16.64879774,1245.488046
6.2700,164.1163205,16.72340726,1245.490804
6.2750,164.2739593,16.7912301,1245.491442
6.2800,164.4318587,16.851868,1245.490097
6.2850,164.5918573,16.90722565,1245.486889
6.2900,164.7542865,16.95756306,1245.481842
6.2950,164.9183485,17.00472848,1245.475557
6.3000,165.0847336,17.05021617,1245.468282
6.3050,165.2530379,17.09363433,1245.460016
6.3100,165.4239746,17.1355734,1245.450766
6.3150,165.5990522,17.17694321,1245.440476
6.3200,165.7769445,17.21855368,1245.429618
6.3250,165.957381,17.25917461,1245.417947
6.3300,166.1417657,17.30068209,1245.405672
6.3350,166.3288148,17.3411877,1245.392571
6.3400,166.5179137,17.38221352,1245.379159
6.3450,166.707692,17.42331168,1245.365576
6.3500,166.8991988,17.46394515,1245.351514
6.3550,167.0930304,17.50478021,1245.337018
6.3600,167.2882284,17.54667285,1245.3225
6.3650,167.4859824,17.59013563,1245.307874
6.3700,167.6862959,17.63451722,1245.29298
6.3750,167.8900695,17.68041762,1245.277813
6.3800,168.0970935,17.72826576,1245.262542
6.3850,168.3070955,17.77851774,1245.247314
6.3900,168.5204265,17.83121147,1245.232095
6.3950,168.7363976,17.88702677,1245.21719
6.4000,168.9552513,17.94612596,1245.202582
6.4050,169.1767144,18.00877802,1245.188404
6.4100,169.3986085,18.07587321,1245.175286
6.4150,169.6210347,18.1477051,1245.163276
6.4200,169.8443925,18.22519029,1245.15254
6.4250,170.0677086,18.30819191,1245.143228
6.4300,170.2919799,18.39751113,1245.135368
6.4350,170.5178426,18.49288001,1245.128784
6.4400,170.7450615,18.59594255,1245.123942
6.4450,170.9752701,18.70615444,1245.120422
6.4500,171.2082508,18.82358359,1245.118286
6.4550,171.4443915,18.94868992,1245.117593
6.4600,171.6846543,19.08063373,1245.11797
6.4650,171.9278737,19.21841491,1245.1194
6.4700,172.1738524,19.36184396,1245.12187
6.4750,172.4223474,19.51026444,1245.125266
6.4800,172.6712543,19.66162266,1245.129453
6.4850,172.9221604,19.81721453,1245.134502
6.4900,173.1754449,19.97604809,1245.1401
6.4950,173.4305719,20.13700862,1245.146069
6.5000,173.6884626,20.30092592,1245.152471
6.5050,173.9494815,20.46723709,1245.159104
6.5100,174.2140982,20.63664603,1245.16609
6.5150,174.4838812,20.80888626,1245.173112
6.5200,174.7581533,20.98417829,1245.180349
6.5250,175.0367018,21.16168582,1245.187643
6.5300,175.3183827,21.34005391,1245.194834
6.5350,175.6047844,21.51987476,1245.201816
6.5400,175.8957675,21.70002901,1245.208338
6.5450,176.1914323,21.88091692,1245.214511
6.5500,176.492381,22.06329457,1245.220435
6.5550,176.7984945,22.24625071,1245.225912
6.5600,177.1098483,22.43038456,1245.231117
6.5650,177.4264829,22.61555371,1245.236002
6.5700,177.749071,22.80063271,1245.240206
6.5750,178.0787903,22.98410103,1245.243164
6.5800,178.417639,23.16622847,1245.244676
6.5850,178.7660509,23.34516089,1245.244205
6.5900,179.127737,23.5189013,1245.240698
6.5950,179.5050276,23.68667536,1245.233655
6.6000,179.8959851,23.84734117,1245.223096
6.6050,180.3007409,24.00130746,1245.209178
6.6100,180.7176336,24.14727878,1245.191833
6.6150,181.1450883,24.28590167,1245.171513
6.6200,181.5834513,24.41715277,1245.148196
6.6250,182.033633,24.5431276,1245.122359
6.6300,182.4959302,24.66306639,1245.093814
6.6350,182.9713238,24.77924433,1245.0631
6.6400,183.4599161,24.89159056,1245.030239
6.6450,183.9622176,25.00121802,1244.995521
6.6500,184.4788673,25.10951964,1244.959305
6.6550,185.0089532,25.21654008,1244.921796
6.6600,185.5533364,25.3226939,1244.883066
6.6650,186.1100185,25.42826959,1244.843526
6.6700,186.6792926,25.53498975,1244.803673
6.6750,187.2599491,25.64280902,1244.763722
6.6800,187.8500458,25.75215716,1244.724087
6.6850,188.4482173,25.86432514,1244.68535
6.6900,189.0534058,25.97925817,1244.647681
6.6950,189.6645057,26.09685915,1244.611221
6.7000,190.2800179,26.21726567,1244.576234
6.7050,190.8984671,26.3394668,1244.542634
6.7100,191.5196254,26.46215817,1244.510107
6.7150,192.1423494,26.58468529,1244.478624
6.7200,192.7641876,26.70513292,1244.447917
6.7250,193.3852129,26.82358778,1244.417993
6.7300,194.0032402,26.93862918,1244.388678
6.7350,194.616017,27.0501548,1244.360142
6.7400,195.2220957,27.15645294,1244.332015
6.7450,195.818764,27.25761829,1244.304543
6.7500,196.4036235,27.35328268,1244.277783
6.7550,196.974532,27.44358708,1244.251912
6.7600,197.5304321,27.52813282,1244.226837
6.7650,198.0710076,27.60854741,1244.20294
6.7700,198.5972731,27.68406948,1244.179837
6.7750,199.1095883,27.75612449,1244.157807
6.7800,199.6102783,27.82642241,1244.137035
6.7850,200.1000461,27.8946925,1244.11733
6.7900,200.5785098,27.96141722,1244.098803
6.7950,201.0464378,28.0279719,1244.081707
6.8000,201.5048387,28.09408246,1244.065831
6.8050,201.9546526,28.16066535,1244.051314
6.8100,202.3963239,28.22740272,1244.037987
6.8150,202.8322098,28.29496436,1244.025817
6.8200,203.2611738,28.36251033,1244.01463
6.8250,203.6861864,28.43193278,1244.004701
6.8300,204.1085189,28.50304042,1243.995876
6.8350,204.5291774,28.57569475,1243.988036
6.8400,204.9482168,28.65012625,1243.98124
6.8450,205.3669981,28.72652076,1243.975438
6.8500,205.786839,28.80391861,1243.970273
6.8550,206.209135,28.8821511,1243.965608
6.8600,206.6334105,28.96046101,1243.96126
6.8650,207.062189,29.03770938,1243.956781
6.8700,207.4960503,29.11439157,1243.952285
6.8750,207.9354583,29.19101505,1243.94792
6.8800,208.3803046,29.26720178,1243.943608
6.8850,208.8293774,29.34396399,1243.939739
6.8900,209.2806366,29.42240974,1243.936747
6.8950,209.732903,29.50123445,1243.934365
6.9000,210.1864398,29.58196686,1243.93302
6.9050,210.6426722,29.66449371,1243.932613
6.9100,211.10279,29.74960843,1243.93333
6.9150,211.5694209,29.83763598,1243.935154
6.9200,212.0420198,29.92737136,1243.937804
6.9250,212.5207585,30.01895776,1243.941348
6.9300,213.0047727,30.1121692,1243.945794
6.9350,213.4945974,30.20760963,1243.951317
6.9400,213.9903686,30.30449093,1243.957718
6.9450,214.4924101,30.40180283,1243.964732
6.9500,214.9987991,30.4985617,1243.972185
6.9550,215.5097244,30.59542744,1243.980283
6.9600,216.0239328,30.69225955,1243.989045
6.9650,216.5415153,30.78840136,1243.998303
6.9700,217.061194,30.88334571,1244.007966
6.9750,217.5816517,30.97770422,1244.018258
6.9800,218.1037676,31.07126626,1244.029098
6.9850,218.6266627,31.16273037,1244.04015
6.9900,219.1491878,31.25187104,1244.051381
6.9950,219.6698807,31.33879822,1244.06286
7.0000,220.1879003,31.42277662,1244.074388
7.0050,220.7030363,31.50488609,1244.086267
7.0100,221.2139762,31.58365703,1244.098094
7.0150,221.7209604,31.65912596,1244.109849
7.0200,222.2229986,31.7332319,1244.122094
7.0250,222.7196661,31.80521038,1244.134603
7.0300,223.2103485,31.87600357,1244.147628
7.0350,223.6945796,31.94628814,1244.161349
7.0400,224.1714043,32.01641108,1244.175862
7.0450,224.6403102,32.08613177,1244.191066
7.0500,225.1015433,32.15592174,1244.20707
7.0550,225.5553948,32.22576996,1244.223846
7.0600,226.0001375,32.29560029,1244.241346
7.0650,226.4361509,32.36368114,1244.259028
7.0700,226.8631329,32.42949818,1244.276714
7.0750,227.2793686,32.49325,1244.294427
7.0800,227.6854715,32.55329671,1244.311656
7.0850,228.0799306,32.60919834,1244.32823
7.0900,228.4625893,32.65951109,1244.343689
7.0950,228.8344323,32.70414768,1244.357965
7.1000,229.1949549,32.74316079,1244.371031
7.1050,229.5437033,32.77526974,1244.382477
7.1100,229.8824397,32.80049648,1244.392282
7.1150,230.2084308,32.81810779,1244.400175
7.1200,230.5244528,32.82864378,1244.40631
7.1250,230.8282155,32.83103619,1244.410319
7.1300,231.1205051,32.82519692,1244.412147
7.1350,231.4005979,32.81195964,1244.412005
7.1400,231.6699986,32.7908874,1244.409733
7.1450,231.9277943,32.76147603,1244.405164
7.1500,232.1731967,32.7244756,1244.398475
7.1550,232.4073636,32.68060751,1244.389878
7.1600,232.6311573,32.63005897,1244.379417
7.1650,232.8446909,32.57333626,1244.367215
7.1700,233.0481563,32.51021901,1244.353192
7.1750,233.2423956,32.44047708,1244.337274
7.1800,233.4271494,32.36530086,1244.319793
7.1850,233.6029296,32.28350698,1244.300397
7.1900,233.7702231,32.19618376,1244.279411
7.1950,233.9286001,32.10446358,1244.257131
7.2000,234.0801806,32.00769643,1244.233411
7.2050,234.2240638,31.90637252,1244.208348
7.2100,234.3602444,31.79995712,1244.181803
7.2150,234.4879873,31.68750806,1244.153475
7.2200,234.6074149,31.56995556,1244.123639
7.2250,234.7182037,31.44583455,1244.091856
7.2300,234.8208615,31.31656657,1244.058534
7.2350,234.9158916,31.18060674,1244.023243
7.2400,235.0028986,31.03950176,1243.986411
7.2450,235.0819907,30.89330549,1243.948057
7.2500,235.1539458,30.74193743,1243.908179
7.2550,235.2191533,30.58587615,1243.866914
7.2600,235.278225,30.42530169,1243.82434
7.2650,235.331407,30.26083337,1243.780636
7.2700,235.3783234,30.09326289,1243.736023
7.2750,235.4193233,29.92221188,1243.690411
7.2800,235.4534133,29.74747494,1243.643704
7.2850,235.4815801,29.56986029,1243.596169
7.2900,235.5033379,29.39035702,1243.548067
7.2950,235.5210385,29.20853617,1243.499332
7.3000,235.5344011,29.02603053,1243.450416
7.3050,235.5429931,28.84220275,1243.401131
7.3100,235.5476423,28.65854769,1243.351909
7.3150,235.5480945,28.47532545,1243.302816
7.3200,235.5441507,28.29169137,1243.253613
7.3250,235.535956,28.10786902,1243.204357
7.3300,235.5263576,27.92446866,1243.15529
7.3350,235.5159488,27.74216749,1243.106615
7.3400,235.5045965,27.56060254,1243.058216
7.3450,235.4928878,27.38029602,1243.010242
7.3500,235.4806662,27.20134119,1242.96272
7.3550,235.466839,27.02280899,1242.915352
7.3600,235.4521825,26.84512887,1242.86828
7.3650,235.4360998,26.66928386,1242.821751
7.3700,235.416822,26.49581279,1242.775869
7.3750,235.3963463,26.32341507,1242.730322
7.3800,235.3719124,26.15276743,1242.685227
7.3850,235.3438038,25.98324552,1242.640413
7.3900,235.311582,25.81620365,1242.596234
7.3950,235.2735852,25.6497302,1242.55214
7.4000,235.2301352,25.48335326,1242.508012
7.4050,235.1819151,25.31833897,1242.4642
7.4100,235.1273438,25.15487647,1242.420728
7.4150,235.0679878,24.99330425,1242.377718
7.4200,235.0025177,24.83424432,1242.335295
7.4250,234.9321099,24.67665552,1242.293218
7.4300,234.8563291,24.52143346,1242.251709
7.4350,234.7755904,24.36804976,1242.210637
7.4400,234.690808,24.21638674,1242.169994
7.4450,234.6019508,24.06746251,1242.130042
7.4500,234.5101572,23.92034261,1242.090551
7.4550,234.4147823,23.77461716,1242.051396
7.4600,234.3160192,23.63036068,1242.012609
7.4650,234.21331,23.48772884,1241.974209
7.4700,234.1079319,23.34682739,1241.936256
7.4750,233.9978166,23.20894638,1241.899046
7.4800,233.8824329,23.07194616,1241.862009
7.4850,233.7613097,22.93734058,1241.825534
7.4900,233.632608,22.80388141,1241.789265
7.4950,233.4965882,22.67188692,1241.75329
7.5000,233.351106,22.5409686,1241.717477
7.5050,233.1964029,22.41041249,1241.681673
7.5100,233.0311098,22.2798752,1241.645763
7.5150,232.8524307,22.14879045,1241.609573
7.5200,232.6598579,22.01658356,1241.572971
7.5250,232.4529994,21.88450771,1241.536302
7.5300,232.2297974,21.7510237,1241.499175
7.5350,231.9899071,21.6166182,1241.461736
7.5400,231.7334169,21.47963362,1241.423607
7.5450,231.4605188,21.34105435,1241.385083
7.5500,231.1708601,21.2012172,1241.346282
7.5550,230.8647778,21.05918303,1241.307017
7.5600,230.5422817,20.91513911,1241.26738
7.5650,230.2043998,20.76828353,1241.227229
7.5700,229.8529493,20.61797338,1241.186453
7.5750,229.4887126,20.46370287,1241.144981
7.5800,229.113779,20.3053227,1241.102842
7.5850,228.7284449,20.14198277,1241.059844
7.5900,228.3342949,19.97249254,1241.015739
7.5950,227.932437,19.79658888,1240.97051
7.6000,227.5238894,19.61285173,1240.923834
7.6050,227.1100516,19.42099927,1240.875678
7.6100,226.692913,19.22062297,1240.825971
7.6150,226.2748982,19.01140667,1240.77465
7.6200,225.8586787,18.79216228,1240.721429
7.6250,225.4455384,18.56440092,1240.666684
7.6300,225.034613,18.32635603,1240.60999
7.6350,224.6261779,18.07734217,1240.551195
7.6400,224.2214102,17.81773875,1240.490384
7.6450,223.8205652,17.54804723,1240.427698
7.6500,223.4245034,17.26707246,1240.36285
7.6550,223.0336091,16.97552797,1240.296011
7.6600,222.6482466,16.67371306,1240.227262
7.6650,222.2678186,16.36126525,1240.156521
7.6700,221.8922699,16.03883149,1240.083957
7.6750,221.5218996,15.70712229,1240.009748
7.6800,221.1557052,15.36732388,1239.934204
7.6850,220.7950623,15.0207076,1239.857611
7.6900,220.4400201,14.66841677,1239.780238
7.6950,220.0909287,14.31189559,1239.702405
7.7000,219.7479519,13.95336047,1239.62462
7.7050,219.4095811,13.59291065,1239.546927
7.7100,219.0760625,13.23122605,1239.469461
7.7150,218.7470172,12.86926859,1239.392446
7.7200,218.4228012,12.5072819,1239.315915
7.7250,218.1031524,12.14682866,1239.240206
7.7300,217.7885513,11.78841932,1239.165407
7.7350,217.4797939,11.43160436,1239.091363
7.7400,217.1766816,11.07733647,1239.018281
7.7450,216.8808052,10.72572364,1238.946091
7.7500,216.5931189,10.37645689,1238.874673
7.7550,216.3135444,10.02964121,1238.804012
7.7600,216.0440846,9.684680328,1238.733882
7.7650,215.7865667,9.341852789,1238.664243
7.7700,215.5396772,9.001586313,1238.595191
7.7750,215.304994,8.66302389,1238.526444
7.7800,215.0835439,8.32774698,1238.458264
7.7850,214.8744251,7.994096642,1238.390299
7.7900,214.6768745,7.662680177,1238.322672
7.7950,214.489709,7.33283531,1238.255253
7.8000,214.311384,7.004325899,1238.188034
7.8050,214.1410348,6.677475821,1238.121086
7.8100,213.9787202,6.351917072,1238.054302
7.8150,213.824252,6.029452989,1237.988059
7.8200,213.676513,5.709864786,1237.922316
7.8250,213.5342939,5.392556433,1237.856989
7.8300,213.3990942,5.077656387,1237.792019
7.8350,213.2686219,4.764914419,1237.727436
7.8400,213.1430535,4.454946194,1237.663337
7.8450,213.0227184,4.146766987,1237.599486
7.8500,212.9070814,3.840922565,1237.536004
7.8550,212.7959494,3.536759645,1237.472746
7.8600,212.6900897,3.233660157,1237.409541
7.8650,212.5894735,2.931440728,1237.346345
7.8700,212.4945308,2.629030773,1237.282909
7.8750,212.4070791,2.326090111,1237.219057
7.8800,212.3262172,2.021630858,1237.154625
7.8850,212.2536453,1.71552668,1237.089508
7.8900,212.19059,1.40730337,1237.023548
7.8950,212.1374549,1.096490085,1236.956613
7.9000,212.0958814,0.7823098737,1236.888473
7.9050,212.0665629,0.4655142298,1236.81923
7.9100,212.0499449,0.145683328,1236.748779
7.9150,212.045451,-0.1775249944,1236.677089
7.9200,212.0529622,-0.5028839137,1236.604393
7.9250,212.0731853,-0.8311197813,1236.530523
7.9300,212.1047447,-1.160833178,1236.455817
7.9350,212.1481951,-1.491541345,1236.380341
7.9400,212.2025297,-1.822184091,1236.304346
7.9450,212.2680194,-2.152118265,1236.227948
7.9500,212.3431104,-2.479768074,1236.151492
7.9550,212.4284081,-2.8049726,1236.075
7.9600,212.5220839,-3.126033868,1235.998845
7.9650,212.6238574,-3.442868367,1235.923069
7.9700,212.733909,-3.754478034,1235.84784
7.9750,212.8499011,-4.059252576,1235.77355
7.9800,212.9734214,-4.358270494,1235.699913
7.9850,213.1026141,-4.650511589,1235.627189
7.9900,213.2364369,-4.936411706,1235.55533
7.9950,213.3751966,-5.214662033,1235.484549
8.0000,213.5176385,-5.48537477,1235.41486
8.0050,213.6644711,-5.747715837,1235.346373
8.0100,213.8154436,-6.002325457,1235.278975
8.0150,213.9696111,-6.247981119,1235.212902
8.0200,214.1273024,-6.48493146,1235.148075
8.0250,214.2883348,-6.712840043,1235.08455
8.0300,214.4527146,-6.93147977,1235.022351
8.0350,214.6208762,-7.139671225,1234.961649
8.0400,214.7923855,-7.338255753,1234.902304
8.0450,214.9670442,-7.526435933,1234.84444
8.0500,215.1441587,-7.703728436,1234.788178
8.0550,215.3245526,-7.869928767,1234.733511
8.0600,215.5068256,-8.024520078,1234.68055
8.0650,215.6898858,-8.167396387,1234.629369
8.0700,215.874366,-8.297756111,1234.580072
8.0750,216.0590461,-8.416073018,1234.532622
8.0800,216.2417885,-8.523452457,1234.486906
8.0850,216.4235157,-8.619183276,1234.443013
8.0900,216.603481,-8.702993909,1234.401006
8.0950,216.7806451,-8.77529568,1234.36086
8.1000,216.9552449,-8.837375549,1234.322346
8.1050,217.1261131,-8.889577519,1234.285454
8.1100,217.292482,-8.932179665,1234.250158
8.1150,217.4528765,-8.967077191,1234.216191
8.1200,217.6081718,-8.994111844,1234.18355
8.1250,217.7584069,-9.013663332,1234.152162
8.1300,217.9020693,-9.026993334,1234.12188
8.1350,218.0407933,-9.033011379,1234.092819
8.1400,218.1736799,-9.033001694,1234.064808
8.1450,218.3004214,-9.026330404,1234.037951
8.1500,218.4220969,-9.014744668,1234.011937
8.1550,218.5383626,-8.998103673,1233.986802
8.1600,218.6491717,-8.976679275,1233.962482
8.1650,218.7536672,-8.951347422,1233.938867
8.1700,218.8518611,-8.921991899,1233.915969
8.1750,218.9427449,-8.889996088,1233.893607
8.1800,219.0276337,-8.85524775,1233.871747
8.1850,219.1054838,-8.817793178,1233.850416
8.1900,219.1760665,-8.778594117,1233.829443
8.1950,219.2384746,-8.738538417,1233.808728
8.2000,219.2917504,-8.696560893,1233.788465
8.2050,219.3365046,-8.654111366,1233.768391
8.2100,219.3713865,-8.61121922,1233.748549
8.2150,219.3967648,-8.56771682,1233.72894
8.2200,219.4131839,-8.524049231,1233.709475
8.2250,219.4196631,-8.481039922,1233.69005
8.2300,219.415779,-8.439484118,1233.670541
8.2350,219.4010081,-8.399562135,1233.650918
8.2400,219.3764356,-8.3619057,1233.631051
8.2450,219.3402131,-8.327525525,1233.610827
8.2500,219.2929454,-8.295816963,1233.590325
8.2550,219.2340507,-8.266200265,1233.569655
8.2600,219.1643822,-8.239856592,1233.548617
8.2650,219.0837446,-8.213881149,1233.527688
8.2700,218.9923066,-8.188441107,1233.50684
8.2750,218.8910621,-8.164966154,1233.485805
8.2800,218.7795643,-8.140938541,1233.46503
8.2850,218.6585526,-8.116829611,1233.444439
8.2900,218.5298264,-8.090157311,1233.424393
8.2950,218.3927222,-8.060811635,1233.404942
8.3000,218.2491056,-8.029155289,1233.385978
8.3050,218.099565,-7.994126792,1233.367662
8.3100,217.9432987,-7.954646167,1233.350228
8.3150,217.7830127,-7.910550447,1233.333632
8.3200,217.6186903,-7.860342176,1233.318145
8.3250,217.4523308,-7.803921707,1233.30371
8.3300,217.2839464,-7.740686958,1233.290454
8.3350,217.1142453,-7.670668881,1233.278366
8.3400,216.9444452,-7.592932313,1233.267575
8.3450,216.7757727,-7.507586363,1233.258036
8.3500,216.6087416,-7.413734879,1233.249881
8.3550,216.4445407,-7.311151493,1233.243102
8.3600,216.2841744,-7.20065967,1233.237542
8.3650,216.1280633,-7.081155937,1233.23337
8.3700,215.9768021,-6.953934183,1233.230355
8.3750,215.8311388,-6.818552903,1233.228553
8.3800,215.6925367,-6.673979785,1233.228097
8.3850,215.5611826,-6.520603369,1233.228898
8.3900,215.4367621,-6.358883581,1233.230898
8.3950,215.3191873,-6.18768847,1233.23431
8.4000,215.2087998,-6.006437741,1233.239225
8.4050,215.1049619,-5.81555511,1233.24562
8.4100,215.0077627,-5.613988229,1233.253679
8.4150,214.9181527,-5.402155849,1233.263297
8.4200,214.834629,-5.180049869,1233.27457
8.4250,214.7569218,-4.947685072,1233.287525
8.4300,214.6843581,-4.704690361,1233.302278
8.4350,214.6150343,-4.452689824,1233.31865
8.4400,214.5490063,-4.191399663,1233.336698
8.4450,214.4843295,-3.921622422,1233.356414
8.4500,214.4204652,-3.644272317,1233.377665
8.4550,214.3569269,-3.359798612,1233.400431
8.4600,214.2918582,-3.068798115,1233.424719
8.4650,214.2246688,-2.771795738,1233.450495
8.4700,214.1535736,-2.470034864,1233.477668
8.4750,214.0784901,-2.164038077,1233.506146
8.4800,213.9976906,-1.852625452,1233.536273
8.4850,213.9121937,-1.538688919,1233.567465
8.4900,213.8202285,-1.220397449,1233.600178
8.4950,213.7222232,-0.8983378799,1233.634277
8.5000,213.6191781,-0.5753729012,1233.669223
8.5050,213.509618,-0.2509671069,1233.705172
8.5100,213.3942159,0.0740436726,1233.741926
8.5150,213.2723556,0.3992744252,1233.779468
8.5200,213.1413785,0.7234335614,1233.817672
8.5250,213.0011732,1.046290719,1233.856499
8.5300,212.8527682,1.368602368,1233.896046
8.5350,212.6952276,1.689646918,1233.936215
8.5400,212.5281263,2.008757048,1233.976913
8.5450,212.3522861,2.326669224,1234.018241
8.5500,212.1686033,2.642195776,1234.059924
8.5550,211.976376,2.95571679,1234.102107
8.5600,211.7759898,3.267644185,1234.144828
8.5650,211.5680333,3.576890748,1234.187884
8.5700,211.3527536,3.883606067,1234.231291
8.5750,211.1308058,4.188782532,1234.275233
8.5800,210.9026888,4.492220797,1234.319672
8.5850,210.669454,4.794716066,1234.36468
8.5900,210.4303096,5.095180208,1234.410107
8.5950,210.1854608,5.394557179,1234.45616
8.6000,209.9347491,5.692899164,1234.50289
8.6050,209.6784437,5.990896229,1234.550431
8.6100,209.4178852,6.288746869,1234.598759
8.6150,209.153257,6.585789482,1234.647726
8.6200,208.885488,6.883190562,1234.697528
8.6250,208.6157056,7.181652586,1234.748238
8.6300,208.3447076,7.481262072,1234.799841
8.6350,208.0734879,7.783090411,1234.852488
8.6400,207.8014364,8.08753437,1234.906302
8.6450,207.5288918,8.394920226,1234.961357
8.6500,207.2566273,8.704043041,1235.017326
8.6550,206.9838878,9.01552118,1235.074462
8.6600,206.711978,9.331062377,1235.133034
8.6650,206.4394167,9.649715626,1235.192958
8.6700,206.1665754,9.971034367,1235.254133
8.6750,205.8928974,10.29564736,1235.316747
8.6800,205.6184976,10.62304677,1235.380687
8.6850,205.3417317,10.95421969,1235.44631
8.6900,205.063476,11.28910284,1235.51354
8.6950,204.7826985,11.62650691,1235.582211
8.7000,204.4990914,11.96678272,1235.652435
8.7050,204.2123136,12.30964779,1235.72419
8.7100,203.9216072,12.65425121,1235.797365
8.7150,203.6260237,13.00118008,1235.872195
8.7200,203.3247283,13.34888191,1235.948409
8.7250,203.0169263,13.69682353,1236.025991
8.7300,202.7016514,14.04525552,1236.105094
8.7350,202.3786287,14.39402947,1236.185729
8.7400,202.0462942,14.74231178,1236.267898
8.7450,201.7053442,15.08957907,1236.351434
8.7500,201.3541723,15.43575499,1236.436492
8.7550,200.9918629,15.7802507,1236.523035
8.7600,200.6195627,16.12265289,1236.61091
8.7650,200.2379671,16.46363116,1236.700232
8.7700,199.8481291,16.80258086,1236.790773
8.7750,199.4496409,17.14020329,1236.882794
8.7800,199.0428432,17.47455679,1236.975801
8.7850,198.6264353,17.80646285,1237.070162
8.7900,198.2006019,18.13453821,1237.165547
8.7950,197.7651512,18.45894156,1237.26205
8.8000,197.3193814,18.78084733,1237.360024
8.8050,196.8643858,19.10049588,1237.45947
8.8100,196.4002376,19.41824215,1237.560498
8.8150,195.9277199,19.73351473,1237.66293
8.8200,195.4497503,20.04777248,1237.766846
8.8250,194.9665615,20.36089896,1237.872228
8.8300,194.477978,20.67279528,1237.97908
8.8350,193.985417,20.98393898,1238.087426
8.8400,193.490037,21.29615424,1238.197594
8.8450,192.9924319,21.60936062,1238.309498
8.8500,192.4929332,21.92450427,1238.423367
8.8550,191.9933948,22.2414425,1238.538969
8.8600,191.4942468,22.56052591,1238.656364
8.8650,190.9955086,22.88165868,1238.775534
8.8700,190.4983211,23.20513958,1238.896432
8.8750,190.0023264,23.53029269,1239.01893
8.8800,189.5071666,23.85720782,1239.143107
8.8850,189.0126201,24.1855753,1239.268925
8.8900,188.5190788,24.51598924,1239.396491
8.8950,188.0282444,24.84768931,1239.525399
8.9000,187.5418676,25.18263875,1239.655924
8.9050,187.0596562,25.51928124,1239.787697
8.9100,186.5816118,25.85858624,1239.920951
8.9150,186.108016,26.20127323,1240.055839
8.9200,185.6387407,26.54725013,1240.192343
8.9250,185.1727658,26.89622057,1240.330539
8.9300,184.7109571,27.24801838,1240.470227
8.9350,184.2521992,27.60267337,1240.611559
8.9400,183.7973658,27.95963218,1240.754262
8.9450,183.3470058,28.3186045,1240.898176
8.9500,182.9006122,28.68030027,1241.043564
8.9550,182.4585904,29.04350097,1241.190012
8.9600,182.0214412,29.40855068,1241.337521
8.9650,181.5889269,29.77569625,1241.486188
8.9700,181.1604912,30.14514085,1241.636118
8.9750,180.7359279,30.51641222,1241.787197
8.9800,180.3147485,30.88880319,1241.939303
8.9850,179.8970561,31.26163625,1242.092239
8.9900,179.4816206,31.63578807,1242.246435
8.9950,179.0695332,32.01079466,1242.401598
9.0000,178.6599087,32.38740051,1242.558071
9.0050,178.2528564,32.76596254,1242.715935
9.0100,177.847263,33.14551397,1242.875078
9.0150,177.443588,33.52660843,1243.035584
9.0200,177.040641,33.90965797,1243.197753
9.0250,176.6368261,34.2942796,1243.361717
9.0300,176.2313831,34.67981787,1243.527402
9.0350,175.8224393,35.06586779,1243.695006
9.0400,175.4099176,35.45232533,1243.86449
9.0450,174.9926288,35.83848688,1244.035889
9.0500,174.570434,36.22593582,1244.209725
9.0550,174.1438166,36.61417242,1244.385776
9.0600,173.711046,37.00370678,1244.564514
9.0650,173.2717833,37.39423302,1244.74591
9.0700,172.8253652,37.78731011,1244.930612
9.0750,172.3712103,38.18153866,1245.118283
9.0800,171.9103124,38.57797343,1245.30912
9.0850,171.4416541,38.97745933,1245.503621
9.0900,170.9672513,39.37917939,1245.70123
9.0950,170.4866211,39.78343249,1245.902155
9.1000,169.9998421,40.190649,1246.106566
9.1050,169.5076747,40.60043736,1246.314238
9.1100,169.0097834,41.01256878,1246.525204
9.1150,168.5055722,41.42629552,1246.739349
9.1200,167.9935992,41.84181693,1246.957061
9.1250,167.4745051,42.25909572,1247.178239
9.1300,166.9488748,42.67831464,1247.402879
9.1350,166.4162444,43.09771178,1247.630538
9.1400,165.8763408,43.51750963,1247.861414
9.1450,165.3286062,43.9360095,1248.095122
9.1500,164.7724846,44.35275146,1248.331664
9.1550,164.2069996,44.76778765,1248.571276
9.1600,163.6324169,45.18070578,1248.813852
9.1650,163.0486469,45.5917408,1249.05951
9.1700,162.4559508,46.00075421,1249.308214
9.1750,161.8550602,46.40815213,1249.560004
9.1800,161.245894,46.81390099,1249.814916
9.1850,160.6290658,47.21918176,1250.073273
9.1900,160.0055059,47.62424572,1250.334979
9.1950,159.3749655,48.0297636,1250.600333
9.2000,158.7374738,48.43571984,1250.869391
9.2050,158.094465,48.84359557,1251.142361
9.2100,157.4472826,49.25342069,1251.418995
9.2150,156.7955607,49.66505179,1251.69938
9.2200,156.1409022,50.07833847,1251.983147
9.2250,155.4840158,50.49370367,1252.270279
9.2300,154.824285,50.91124145,1252.561022
9.2350,154.1628519,51.330463,1252.854952
9.2400,153.5003011,51.75168138,1253.152103
9.2450,152.8365504,52.17419289,1253.452239
9.2500,152.1712436,52.59741121,1253.755272
9.2550,151.5048339,53.02243884,1254.061495
9.2600,150.8360247,53.44771432,1254.370696
9.2650,150.1666228,53.8734845,1254.682509
9.2700,149.4978302,54.30016662,1254.996819
9.2750,148.8302237,54.72772279,1255.313488
9.2800,148.1631788,55.15696179,1255.632964
9.2850,147.4979003,55.58686932,1255.954584
9.2900,146.8348964,56.0173866,1256.278201
9.2950,146.1738981,56.44865623,1256.60393
9.3000,145.5149972,56.8802262,1256.931574
9.3050,144.8573642,57.31147342,1257.261091
9.3100,144.2018277,57.74346224,1257.592695
9.3150,143.5475092,58.17569522,1257.926376
9.3200,142.8949311,58.6084539,1258.26212
9.3250,142.2456768,59.04212545,1258.599619
9.3300,141.6003555,59.47689174,1258.938765
9.3350,140.9606512,59.91214585,1259.278834
9.3400,140.326349,60.34768619,1259.61979
9.3450,139.6984653,60.78366506,1259.961322
9.3500,139.075875,61.21885461,1260.303258
9.3550,138.4576903,61.65255447,1260.645536
9.3600,137.8440935,62.08345513,1260.987569
9.3650,137.2347385,62.51052099,1261.329025
9.3700,136.6288067,62.93169031,1261.669308
9.3750,136.0266138,63.34693679,1262.00828
9.3800,135.4266625,63.75493692,1262.34584
9.3850,134.8288868,64.1543087,1262.681389
9.3900,134.2317746,64.5445883,1263.015165
9.3950,133.6348376,64.92535676,1263.347109
9.4000,133.0370769,65.29548112,1263.677032
9.4050,132.4379286,65.65411108,1264.004761
9.4100,131.8364862,66.00147674,1264.330642
9.4150,131.2333092,66.33893157,1264.655007
9.4200,130.6286026,66.66550169,1264.977372
9.4250,130.0221119,66.98202925,1265.298132
9.4300,129.4134467,67.28849704,1265.617355
9.4350,128.8019677,67.58562341,1265.935539
9.4400,128.1872268,67.87246747,1266.252416
9.4450,127.5692121,68.15129176,1266.568924
9.4500,126.9473952,68.42200619,1266.885213
9.4550,126.3220073,68.68464191,1267.201211
9.4600,125.6923197,68.9403426,1267.517619
9.4650,125.0579009,69.18985355,1267.834937
9.4700,124.4181948,69.43361645,1268.153535
9.4750,123.7721143,69.67334159,1268.474534
9.4800,123.1210105,69.90946817,1268.797683
9.4850,122.464606,70.14207372,1269.123166
9.4900,121.80357,70.37149205,1269.450952
9.4950,121.1376684,70.59858816,1269.781524
9.5000,120.4668931,70.82348282,1270.114981
9.5050,119.7913749,71.04668991,1270.451538
9.5100,119.1110125,71.26861584,1270.791462
9.5150,118.4262648,71.49055831,1271.135188
9.5200,117.7369096,71.71164945,1271.482443
9.5250,117.0425704,71.9329328,1271.833889
9.5300,116.3436408,72.15467415,1272.189516
9.5350,115.6398923,72.37660032,1272.549372
9.5400,114.9312503,72.59903924,1272.913649
9.5450,114.2168805,72.82203923,1273.28273
9.5500,113.4984545,73.04618486,1273.656279
9.5550,112.7753863,73.26985355,1274.03384
9.5600,112.0476775,73.49323879,1274.415555
9.5650,111.3158158,73.71572283,1274.80104
9.5700,110.5778407,73.93636464,1275.190662
9.5750,109.8344788,74.15506783,1275.58415
9.5800,109.0871036,74.37178588,1275.980986
9.5850,108.3341311,74.58726846,1276.382174
9.5900,107.5762872,74.80175985,1276.787599
9.5950,106.8136438,75.01574207,1277.197483
9.6000,106.0471685,75.22935966,1277.61155
9.6050,105.2771428,75.44359035,1278.030192
9.6100,104.5040737,75.65866648,1278.453331
9.6150,103.7296008,75.87517045,1278.880644
9.6200,102.9549171,76.09369347,1279.311875
9.6250,102.1790021,76.31407144,1279.747421
9.6300,101.4036019,76.53634462,1280.186544
9.6350,100.6285745,76.76074287,1280.629433
9.6400,99.85417209,76.98844329,1281.076518
9.6450,99.08069422,77.21932172,1281.527641
9.6500,98.31044961,77.4532124,1281.981703
9.6550,97.54350667,77.69148493,1282.439333
9.6600,96.78206173,77.93405115,1282.899492
9.6650,96.02601698,78.18179677,1283.362632
9.6700,95.27685604,78.43625848,1283.828743
9.6750,94.53542046,78.69801213,1284.297704
9.6800,93.80187812,78.96642845,1284.769115
9.6850,93.07731816,79.24299318,1285.243161
9.6900,92.36256417,79.52773914,1285.719446
9.6950,91.65865239,79.82077293,1286.197511
9.7000,90.96625861,80.1231896,1286.677501
9.7050,90.285626,80.43526481,1287.159376
9.7100,89.61714532,80.75637305,1287.642613
9.7150,88.9602259,81.08557317,1288.127027
9.7200,88.31524662,81.42295276,1288.612425
9.7250,87.6809656,81.76801929,1289.099119
9.7300,87.05819236,82.11933438,1289.585983
9.7350,86.44698663,82.47741093,1290.073181
9.7400,85.84624796,82.84152962,1290.560851
9.7450,85.25664613,83.20971132,1291.047608
9.7500,84.67809668,83.58096817,1291.532894
9.7550,84.10849155,83.95431548,1292.017214
9.7600,83.54873364,84.32786801,1292.499082
9.7650,82.99762532,84.69870407,1292.977512
9.7700,82.45445889,85.06599832,1293.452398
9.7750,81.91916575,85.42716779,1293.922351
9.7800,81.39064487,85.78070647,1294.387057
9.7850,80.86809338,86.1254038,1294.846215
9.7900,80.3503626,86.46055357,1295.299958
9.7950,79.83676841,86.78453586,1295.74768
9.8000,79.32659156,87.0975583,1296.189752
9.8050,78.81953419,87.39862457,1296.625746
9.8100,78.31495098,87.68631317,1297.055174
9.8150,77.81279545,87.96056412,1297.477932
9.8200,77.31261991,88.22207032,1297.894532
9.8250,76.81300696,88.46978273,1298.305144
9.8300,76.31460742,88.70449028,1298.709737
9.8350,75.81790859,88.92693315,1299.108388
9.8400,75.32129459,89.13736367,1299.502048
9.8450,74.82586967,89.33628229,1299.890349
9.8500,74.33055166,89.52339435,1300.273678
9.8550,73.83579577,89.69985023,1300.652386
9.8600,73.34283429,89.86745444,1301.026692
9.8650,72.85030279,90.0259285,1301.397192
9.8700,72.35917562,90.17586056,1301.763637
9.8750,71.86885468,90.31816081,1302.126805
9.8800,71.37948749,90.45329923,1302.486814
9.8850,70.89193664,90.58220716,1302.843673
9.8900,70.40551433,90.70328469,1303.196842
9.8950,69.9219771,90.81827986,1303.54621
9.9000,69.44088186,90.92670666,1303.891707
9.9050,68.96377528,91.02862071,1304.232423
9.9100,68.49080891,91.12496504,1304.568724
9.9150,68.02145201,91.21476703,1304.900313
9.9200,67.55622669,91.29781536,1305.226726
9.9250,67.09637028,91.37517978,1305.547747
9.9300,66.64157952,91.44707857,1305.863648
9.9350,66.19369728,91.51419457,1306.173663
9.9400,65.75402575,91.57522657,1306.476231
9.9450,65.32262294,91.63060211,1306.771511
9.9500,64.89861091,91.6798796,1307.059739
9.9550,64.48287171,91.72280535,1307.340204
9.9600,64.0735125,91.75950786,1307.614096
9.9650,63.66975319,91.78915091,1307.88138
9.9700,63.27054656,91.81041238,1308.141992
9.9750,62.87356303,91.82311747,1308.397274
9.9800,62.47869748,91.82858644,1308.648047
9.9850,62.08472061,91.8244776,1308.893779
9.9900,61.69101204,91.81227104,1309.135671
9.9950,61.2970782,91.79171868,1309.373908
10.0000,60.90232326,91.76301393,1309.609046
10.0050,60.50541594,91.72625106,1309.841997
10.0100,60.10638293,91.68306504,1310.073667
10.0150,59.70338614,91.63323207,1310.305177
10.0200,59.29631228,91.57789753,1310.537249
10.0250,58.88466843,91.51704238,1310.770215
10.0300,58.46828123,91.45279015,1311.005415
10.0350,58.04650972,91.38526055,1311.243344
10.0400,57.61930517,91.31417101,1311.483888
10.0450,57.18596669,91.24002347,1311.727827
10.0500,56.74628345,91.16408929,1311.976051
10.0550,56.30162058,91.0865894,1312.227816
10.0600,55.85050722,91.00818639,1312.484504
10.0650,55.39364754,90.92989564,1312.746245
10.0700,54.93225149,90.85200332,1313.012406
10.0750,54.46663444,90.77591152,1313.283608
10.0800,53.99782608,90.70218546,1313.559527
10.0850,53.52688331,90.63140931,1313.839779
10.0900,53.05469792,90.56402102,1314.123988
10.0950,52.58222571,90.50061318,1314.411914
10.1000,52.10909057,90.44071961,1314.70355
10.1050,51.6361381,90.38576956,1314.99913
10.1100,51.16367921,90.33749863,1315.299453
10.1150,50.69212176,90.29618699,1315.604379
10.1200,50.22186314,90.26353798,1315.914621
10.1250,49.75569209,90.24124903,1316.229244
10.1300,49.29265452,90.22928545,1316.548903
10.1350,48.83237641,90.22802867,1316.874084
10.1400,48.37708332,90.23874174,1317.203994
10.1450,47.92610911,90.26230037,1317.539585
10.1500,47.47980134,90.30045718,1317.881624
10.1550,47.03847638,90.35361969,1318.230129
10.1600,46.60153862,90.42101651,1318.585137
10.1650,46.16961829,90.5032616,1318.946537
10.1700,45.74381193,90.60077771,1319.313803
10.1750,45.32359223,90.71219228,1319.686533
10.1800,44.90784934,90.83659559,1320.065012
10.1850,44.49636995,90.97234156,1320.448424
10.1900,44.08926362,91.11844309,1320.836142
10.1950,43.68468496,91.27299726,1321.228416
10.2000,43.28197413,91.43453967,1321.624887
10.2050,42.8817163,91.60300939,1322.025036
10.2100,42.4835662,91.77541689,1322.42736
10.2150,42.08722212,91.95099707,1322.831627
10.2200,41.69117107,92.12771338,1323.237726
10.2250,41.29531908,92.3036066,1323.644556
10.2300,40.89977338,92.47732785,1324.05119
10.2350,40.50277836,92.64641162,1324.457421
10.2400,40.10291286,92.80996835,1324.863742
10.2450,39.70011479,92.9670138,1325.269616
10.2500,39.29439169,93.11645494,1325.674335
10.2550,38.88481774,93.25712091,1326.077863
10.2600,38.47140961,93.3879207,1326.479519
10.2650,38.05586142,93.50876508,1326.877948
10.2700,37.63643005,93.61873364,1327.273904
10.2750,37.21451435,93.71739357,1327.66603
10.2800,36.790198,93.80317816,1328.053263
10.2850,36.36318303,93.87693526,1328.436324
10.2900,35.93342841,93.93739078,1328.814485
10.2950,35.50083044,93.98355094,1329.18721
10.3000,35.06556009,94.01443272,1329.553742
10.3050,34.62716867,94.02943217,1329.914014
10.3100,34.1863803,94.02725358,1330.266677
10.3150,33.74489571,94.00801191,1330.610381
10.3200,33.30172715,93.96983394,1330.944749
10.3250,32.85693422,93.91272688,1331.269764
10.3300,32.41047458,93.83586085,1331.58495
10.3350,31.96324059,93.7390476,1331.889442
10.3400,31.51641956,93.62216732,1332.182255
10.3450,31.07035622,93.48679114,1332.464003
10.3500,30.62599957,93.33192154,1332.733321
10.3550,30.18413781,93.15849702,1332.990121
10.3600,29.74611838,92.96624727,1333.233099
10.3650,29.31196275,92.75547149,1333.462381
10.3700,28.88186191,92.52738669,1333.678571
10.3750,28.45619787,92.28108367,1333.880751
10.3800,28.03562604,92.01729824,1334.068822
10.3850,27.6204629,91.73684581,1334.243066
10.3900,27.21189429,91.44145289,1334.403582
10.3950,26.81162137,91.13458401,1334.551053
10.4000,26.41993984,90.8170194,1334.685736
10.4050,26.03801161,90.49057865,1334.807769
10.4100,25.66739062,90.15787065,1334.917418
10.4150,25.30913746,89.82164852,1335.015433
10.4200,24.96539136,89.48362061,1335.101072
10.4250,24.63633056,89.1444419,1335.174486
10.4300,24.32408205,88.80680678,1335.235438
10.4350,24.02963549,88.47238358,1335.284034
10.4400,23.75358275,88.14207524,1335.320215
10.4450,23.49584859,87.81667462,1335.344523
10.4500,23.25849296,87.49741822,1335.355808
10.4550,23.04167937,87.18504757,1335.354303
10.4600,22.84550922,86.87975781,1335.33995
10.4650,22.67093567,86.58192374,1335.312061
10.4700,22.51715025,86.29270075,1335.27194
10.4750,22.38488596,86.01248521,1335.219123
10.4800,22.27468543,85.74102816,1335.152962
10.4850,22.18711865,85.47919794,1335.073389
10.4900,22.12146815,85.22791482,1334.98154
10.4950,22.07787642,84.98612877,1334.876587
10.5000,22.05662129,84.75451377,1334.758674
10.5050,22.0561217,84.5308782,1334.627841
10.5100,22.07548741,84.31550365,1334.48494
10.5150,22.11526783,84.10871852,1334.329679
10.5200,22.17530172,83.90923068,1334.161428
10.5250,22.25516918,83.71566989,1333.979758
10.5300,22.35305588,83.52710158,1333.785678
10.5350,22.46916768,83.34357982,1333.579053
10.5400,22.60426209,83.16432647,1333.358804
10.5450,22.75701374,82.98879472,1333.125727
10.5500,22.92719615,82.81598923,1332.879469
10.5550,23.11396213,82.64538673,1332.620501
10.5600,23.31575407,82.47454007,1332.348793
10.5650,23.53169435,82.30279643,1332.064786
10.5700,23.76153371,82.12958495,1331.768394
10.5750,24.00533239,81.95446585,1331.459428
10.5800,24.26062609,81.77426923,1331.138212
10.5850,24.52669166,81.58795267,1330.804874
10.5900,24.80193711,81.39398674,1330.459968
10.5950,25.08558004,81.19223808,1330.104124
10.6000,25.37668975,80.98166554,1329.737647
10.6050,25.67560449,80.76155156,1329.359946
10.6100,25.98080447,80.53096156,1328.971825
10.6150,26.28989097,80.28927363,1328.575055
10.6200,26.60392538,80.03801001,1328.169668
10.6250,26.92373148,79.77649878,1327.75469
10.6300,27.24884389,79.50537753,1327.330992
10.6350,27.57849015,79.22448856,1326.899176
10.6400,27.91255177,78.93489471,1326.459996
10.6450,28.25126058,78.63543542,1326.012777
10.6500,28.59481763,78.32759731,1325.558202
10.6550,28.94301025,78.01180292,1325.096795
10.6600,29.2954185,77.68824797,1324.629069
10.6650,29.65365811,77.35759983,1324.154205
10.6700,30.01697885,77.01945211,1323.67269
10.6750,30.38586151,76.67486096,1323.184834
10.6800,30.75939267,76.32517581,1322.692157
10.6850,31.13883773,75.97203387,1322.194575
10.6900,31.52381355,75.61518364,1321.692385
10.6950,31.91384017,75.25431792,1321.18586
10.7000,32.3105053,74.8913204,1320.674846
10.7050,32.71278433,74.52592076,1320.16006
10.7100,33.11997348,74.15741103,1319.641788
10.7150,33.53287929,73.78637877,1319.119835
10.7200,33.9505515,73.41288054,1318.595029
10.7250,34.37237865,73.03790261,1318.068425
10.7300,34.79779219,72.6609752,1317.540313
10.7350,35.22588796,72.28310582,1317.011892
10.7400,35.65626138,71.90421523,1316.483496
10.7450,36.09091079,71.52615435,1315.954568
10.7500,36.52877345,71.14927891,1315.426136
10.7550,36.96970686,70.77399882,1314.898508
10.7600,37.41446407,70.40132519,1314.371624
10.7650,37.86239,70.03112911,1313.845912
10.7700,38.31341011,69.66276372,1313.321138
10.7750,38.76827098,69.29709827,1312.797188
10.7800,39.22626862,68.93380102,1312.274359
10.7850,39.68667152,68.57363782,1311.753606
10.7900,40.15017552,68.21621568,1311.234219
10.7950,40.61573538,67.86039585,1310.716406
10.8000,41.08327666,67.50605582,1310.200134
10.8050,41.5520197,67.15268915,1309.685723
10.8100,42.02120159,66.79952849,1309.173364
10.8150,42.48957517,66.44480013,1308.663079
10.8200,42.9555684,66.08795109,1308.155748
10.8250,43.41788033,65.72830789,1307.651888
10.8300,43.87563127,65.36493795,1307.151707
10.8350,44.32739437,64.99762375,1306.65606
10.8400,44.7713738,64.62590257,1306.165927
10.8450,45.20758847,64.24935536,1305.681097
10.8500,45.63578544,63.86844,1305.201852
10.8550,46.05583578,63.48192651,1304.727703
10.8600,46.46869818,63.09227151,1304.259038
10.8650,46.87316087,62.69851745,1303.796241
10.8700,47.26929438,62.30009996,1303.338988
10.8750,47.65563037,61.89673625,1302.8881
10.8800,48.03268706,61.49023155,1302.443995
10.8850,48.40112418,61.08123228,1302.006468
10.8900,48.76151511,60.67016164,1301.575249
10.8950,49.11421469,60.25637426,1301.149784
10.9000,49.45855085,59.84012772,1300.730559
10.9050,49.79365099,59.42122361,1300.318054
10.9100,50.11964798,58.99978332,1299.912201
10.9150,50.43768599,58.57599643,1299.512218
10.9200,50.7468389,58.1486833,1299.11819
10.9250,51.04676719,57.71723331,1298.730052
10.9300,51.33745249,57.28149869,1298.347676
10.9350,51.61904083,56.84150788,1297.970994
10.9400,51.89101913,56.39674065,1297.600082
10.9450,52.15335306,55.94791363,1297.23526
10.9500,52.40548253,55.4949452,1296.876858
10.9550,52.64835616,55.03943022,1296.524881
10.9600,52.88253367,54.5829775,1296.179634
10.9650,53.10825631,54.12668722,1295.841397
10.9700,53.3272911,53.67035964,1295.508912
10.9750,53.53930374,53.21666206,1295.183412
10.9800,53.74655587,52.76546703,1294.863368
10.9850,53.9481851,52.31718471,1294.549439
10.9900,54.14463883,51.87179105,1294.241264
10.9950,54.33750035,51.42947411,1293.937953
11.0000,54.5260558,50.98991423,1293.639777
11.0050,54.71081445,50.55320577,1293.346451
11.0100,54.89360032,50.12033328,1293.057207
11.0150,55.07332298,49.69053364,1292.772395
11.0200,55.25011538,49.26311401,1292.491639
11.0250,55.4257404,48.8396638,1292.214451
11.0300,55.60105874,48.42026786,1291.940282
11.0350,55.77764285,48.00454844,1291.668035
11.0400,55.95587425,47.5938407,1291.397959
11.0450,56.13535157,47.18660241,1291.129665
11.0500,56.31645929,46.78210391,1290.86267
11.0550,56.49980145,46.38136893,1290.596933
11.0600,56.68596592,45.98444139,1290.332137
11.0650,56.87600346,45.59120442,1290.067595
11.0700,57.0702891,45.20173479,1289.803113
11.0750,57.26927522,44.81502965,1289.53805
11.0800,57.47233456,44.43117868,1289.272853
11.0850,57.67960899,44.04854785,1289.006805
11.0900,57.89109162,43.66790574,1288.740175
11.0950,58.10654556,43.28891783,1288.472984
11.1000,58.32602672,42.91150998,1288.205189
11.1050,58.54958755,42.53547679,1287.936711
11.1100,58.77703436,42.16031235,1287.6675
11.1150,59.00799825,41.78642448,1287.397938
11.1200,59.24316258,41.41337724,1287.127433
11.1250,59.48278197,41.04328394,1286.856643
11.1300,59.72776289,40.67630054,1286.585082
11.1350,59.97890402,40.31274117,1286.312369
11.1400,60.23568715,39.95173512,1286.038562
11.1450,60.49798904,39.59363781,1285.763842
11.1500,60.76499671,39.23777912,1285.488523
11.1550,61.0375088,38.88604049,1285.212766
11.1600,61.31353845,38.53775432,1284.937514
11.1650,61.59326999,38.19229241,1284.66241
11.1700,61.87753626,37.85133227,1284.387502
11.1750,62.16586242,37.51435202,1284.11287
11.1800,62.45925235,37.18090616,1283.837805
11.1850,62.7576742,36.85129297,1283.562396
11.1900,63.06170959,36.52444836,1283.285992
11.1950,63.370024,36.2014892,1283.009751
11.2000,63.68284572,35.88165732,1282.733294
11.2050,64.00129365,35.56457993,1282.455874
11.2100,64.32561466,35.24994265,1282.177294
11.2150,64.65599381,34.93752622,1281.897434
11.2200,64.9915959,34.62681994,1281.616599
11.2250,65.33198475,34.31918909,1281.335485
11.2300,65.67668122,34.01222724,1281.053595
11.2350,66.02440942,33.70496892,1280.771314
11.2400,66.37534024,33.39828913,1280.48882
11.2450,66.72879491,33.09094232,1280.206035
11.2500,67.08410394,32.78260282,1279.923228
11.2550,67.44124025,32.47195845,1279.640016
11.2600,67.79951424,32.15739852,1279.356261
11.2650,68.15887101,31.83886924,1279.071978
11.2700,68.51829949,31.51685698,1278.787855
11.2750,68.87960637,31.18969287,1278.50242
11.2800,69.24074334,30.85793083,1278.216987
11.2850,69.60310969,30.52040319,1277.930476
11.2900,69.96678832,30.17884417,1277.643412
11.2950,70.33084333,29.83236061,1277.356052
11.3000,70.69636791,29.48258494,1277.068336
11.3050,71.06377131,29.12924055,1276.779985
11.3100,71.43283513,28.77294837,1276.491291
11.3150,71.80444368,28.41392805,1276.201844
11.3200,72.17959064,28.05212078,1275.911095
11.3250,72.55712844,27.68707871,1275.619535
11.3300,72.93737489,27.31828276,1275.326875
11.3350,73.32132958,26.9455049,1275.032543
11.3400,73.70856926,26.56772825,1274.736503
11.3450,74.09899229,26.18459321,1274.438749
11.3500,74.49357433,25.79642729,1274.138896
11.3550,74.89255756,25.40202682,1273.836545
11.3600,75.29540492,25.0020928,1273.532209
11.3650,75.7014784,24.5960453,1273.226102
11.3700,76.11154398,24.18440466,1272.917982
11.3750,76.52357403,23.76775708,1272.609114
11.3800,76.93882956,23.3472329,1272.299196
11.3850,77.35636037,22.92173443,1271.988442
11.3900,77.77683443,22.49148195,1271.676626
11.3950,78.1986497,22.05631314,1271.364595
11.4000,78.62156375,21.61690646,1271.052679
11.4050,79.04597929,21.17434802,1270.741002
11.4100,79.47232952,20.72873433,1270.429427
11.4150,79.90085664,20.28040052,1270.117978
11.4200,80.33149959,19.83060826,1269.807094
11.4250,80.76462975,19.37941127,1269.496654
11.4300,81.19915638,18.92762903,1269.187442
11.4350,81.63373902,18.47504642,1268.880092
11.4400,82.06943004,18.02302315,1268.574454
11.4450,82.50554144,17.5719997,1268.271005
11.4500,82.94204076,17.12223064,1267.969781
11.4550,83.37710729,16.67327132,1267.671537
11.4600,83.81224196,16.22501334,1267.375489
11.4650,84.24690748,15.77847454,1267.082134
11.4700,84.68096714,15.33267872,1266.791284
11.4750,85.1142441,14.88861649,1266.503245
11.4800,85.54662418,14.44744744,1266.218332
11.4850,85.97863592,14.0102874,1265.936545
11.4900,86.40990961,13.57804132,1265.658232
11.4950,86.84119657,13.14951277,1265.382708
11.5000,87.27399267,12.72550942,1265.109444
11.5050,87.70834205,12.30687689,1264.838576
11.5100,88.14291566,11.89325659,1264.570605
11.5150,88.57706673,11.48332299,1264.305473
11.5200,89.01096901,11.07740208,1264.043166
11.5250,89.44355486,10.67423229,1263.783865
11.5300,89.87395825,10.27344527,1263.527839
11.5350,90.30342133,9.875133376,1263.274527
11.5400,90.73150537,9.478144438,1263.02383
11.5450,91.15847274,9.083172767,1262.775793
11.5500,91.58459466,8.689963337,1262.530185
11.5550,92.00885792,8.297946481,1262.287269
11.5600,92.43355664,7.908511071,1262.046287
11.5650,92.85826991,7.521370429,1261.807322
11.5700,93.28396743,7.136368785,1261.569887
11.5750,93.70924952,6.754547141,1261.334802
11.5800,94.1353343,6.375421504,1261.101362
11.5850,94.56135991,5.999697188,1260.870044
11.5900,94.98621758,5.625945648,1260.640979
11.5950,95.41008014,5.254595898,1260.414107
11.6000,95.83254099,4.884218823,1260.189245
11.6050,96.25368156,4.516188787,1259.966635
11.6100,96.67345641,4.147437364,1259.745572
11.6150,97.09126042,3.77803542,1259.526335
11.6200,97.50556546,3.408539748,1259.309704
11.6250,97.91599269,3.038179977,1259.09567
11.6300,98.3232152,2.667965536,1258.884131
11.6350,98.72663113,2.298618622,1258.675488
11.6400,99.1273146,1.930637417,1258.469373
11.6450,99.52467706,1.564510258,1258.266091
11.6500,99.91847816,1.201004183,1258.065865
11.6550,100.3074943,0.8400646069,1257.869167
11.6600,100.6911379,0.4805756087,1257.67598
11.6650,101.0688544,0.1237874933,1257.486723
11.6700,101.4399606,-0.2305470503,1257.301589
11.6750,101.8046151,-0.58221722,1257.120507
11.6800,102.1617062,-0.9309126956,1256.943928
11.6850,102.5122788,-1.275227806,1256.771673
11.6900,102.8559376,-1.615290118,1256.603823
11.6950,103.1943894,-1.948512327,1256.440149
11.7000,103.5276128,-2.276093247,1256.280406
11.7050,103.8552205,-2.597151638,1256.124899
11.7100,104.1774261,-2.910197969,1255.973782
11.7150,104.4935366,-3.215159867,1255.827304
11.7200,104.8045313,-3.510837696,1255.685248
11.7250,105.1093281,-3.798251964,1255.547796
11.7300,105.4095503,-4.076416429,1255.414437
11.7350,105.706344,-4.345593708,1255.284643
11.7400,105.9985763,-4.606077978,1255.158765
11.7450,106.2868945,-4.858615212,1255.036353
11.7500,106.5713967,-5.102494549,1254.917501
11.7550,106.8533115,-5.339221044,1254.801432
11.7600,107.1327091,-5.569013259,1254.688059
11.7650,107.4104054,-5.791660742,1254.577082
11.7700,107.6859368,-6.006912232,1254.468723
11.7750,107.9607321,-6.2151291,1254.362332
11.7800,108.2348748,-6.416786707,1254.257767
11.7850,108.508061,-6.613581429,1254.154815
11.7900,108.7812913,-6.805528597,1254.05306
11.7950,109.0549306,-6.992345664,1253.95239
11.8000,109.3280422,-7.17401861,1253.853122
11.8050,109.6008945,-7.351390071,1253.754974
11.8100,109.8745469,-7.523636232,1253.657629
11.8150,110.1511251,-7.690858957,1253.560222
11.8200,110.4304502,-7.853636888,1253.462689
11.8250,110.7139539,-8.011620923,1253.364534
11.8300,111.0023078,-8.163214151,1253.265743
11.8350,111.2961005,-8.308395731,1253.166098
11.8400,111.5948163,-8.446559398,1253.065887
11.8450,111.8989591,-8.577922151,1252.964887
11.8500,112.2076188,-8.703111677,1252.863312
11.8550,112.521315,-8.822911051,1252.76084
11.8600,112.8374008,-8.937687006,1252.658394
11.8650,113.1557268,-9.048021894,1252.555936
11.8700,113.4747828,-9.155314261,1252.453772
11.8750,113.7946642,-9.260114062,1252.351764
11.8800,114.1138642,-9.363972282,1252.250202
11.8850,114.4316273,-9.46711735,1252.149302
11.8900,114.7481954,-9.570484408,1252.048815
11.8950,115.0623086,-9.673654211,1251.94928
11.9000,115.3735468,-9.777575215,1251.850699
11.9050,115.6797939,-9.883328162,1251.753641
11.9100,115.979657,-9.988509365,1251.659046
11.9150,116.2733924,-10.09346015,1251.566756
11.9200,116.5604984,-10.19862075,1251.47686
11.9250,116.8407797,-10.30388247,1251.389432
11.9300,117.1122777,-10.40970417,1251.305082
11.9350,117.3742909,-10.51700489,1251.223888
11.9400,117.6235214,-10.62545514,1251.147044
11.9450,117.8608649,-10.73546927,1251.074152
11.9500,118.0849905,-10.84699976,1251.005673
11.9550,118.2970074,-10.96052868,1250.941098
11.9600,118.497041,-11.07566186,1250.880415
11.9650,118.6853337,-11.19152703,1250.823683
11.9700,118.8620999,-11.3081365,1250.770813
11.9750,119.0284242,-11.42364804,1250.721715
11.9800,119.1858171,-11.53853138,1250.675792
11.9850,119.3349624,-11.6511091,1250.633053
11.9900,119.4763541,-11.76080249,1250.593423
11.9950,119.6110793,-11.8675388,1250.556525
12.0000,119.7400635,-11.9694438,1250.522335
12.0050,119.8627668,-12.06771919,1250.49082
12.0100,119.9790585,-12.16269853,1250.461951
12.0150,120.0900251,-12.25496987,1250.435262
12.0200,120.1954856,-12.34592693,1250.410582
12.0250,120.2948508,-12.43646079,1250.387937
12.0300,120.3865219,-12.52820225,1250.36762
12.0350,120.4705157,-12.62128523,1250.349588
12.0400,120.5470698,-12.71555492,1250.333778
12.0450,120.6158956,-12.81181811,1250.320176
12.0500,120.6768894,-12.91093762,1250.308676
12.0550,120.7294726,-13.01138005,1250.299691
12.0600,120.7750926,-13.11286078,1250.292786
12.0650,120.8135247,-13.21674962,1250.287817
12.0700,120.8454002,-13.32169396,1250.284771
12.0750,120.8709823,-13.42826438,1250.283476
12.0800,120.8908958,-13.53686595,1250.283636
12.0850,120.9067394,-13.64619082,1250.28493
12.0900,120.9169213,-13.75649226,1250.287849
12.0950,120.9225281,-13.86717613,1250.292126
12.1000,120.924615,-13.97735867,1250.297555
12.1050,120.9243963,-14.08728426,1250.303675
12.1100,120.923459,-14.19600638,1250.310113
12.1150,120.9204554,-14.30171319,1250.317619
12.1200,120.9172801,-14.40296266,1250.325774
12.1250,120.9130727,-14.49949527,1250.334897
12.1300,120.9092347,-14.59160363,1250.344483
12.1350,120.9047412,-14.67827877,1250.355019
12.1400,120.8996226,-14.7598175,1250.366467
12.1450,120.8935231,-14.8361009,1250.378947
12.1500,120.8865853,-14.90646311,1250.392511
12.1550,120.8780951,-14.97141842,1250.407337
12.1600,120.868933,-15.0319765,1250.422952
12.1650,120.8585795,-15.08741012,1250.439626
12.1700,120.8468028,-15.13828958,1250.457357
12.1750,120.8325459,-15.18517359,1250.476406
12.1800,120.8169217,-15.22761121,1250.496459
12.1850,120.7992405,-15.26674192,1250.517577
12.1900,120.7803583,-15.30177421,1250.539573
12.1950,120.7597583,-15.33454698,1250.562341
12.2000,120.7368217,-15.36442764,1250.586169
12.2050,120.7118847,-15.39218539,1250.610832
12.2100,120.685245,-15.41858529,1250.636116
12.2150,120.6562164,-15.44349875,1250.662264
12.2200,120.624297,-15.46751281,1250.689365
12.2250,120.5903533,-15.49018356,1250.717201
12.2300,120.5538964,-15.51104484,1250.74601
12.2350,120.5154854,-15.53045653,1250.775561
12.2400,120.4773299,-15.54797283,1250.805163
12.2450,120.438623,-15.56303056,1250.835184
12.2500,120.4001469,-15.57629437,1250.86525
12.2550,120.3613349,-15.58618578,1250.895802
12.2600,120.3236991,-15.59354587,1250.926203
12.2650,120.2867091,-15.59850473,1250.956604
12.2700,120.2500928,-15.60163663,1250.987018
12.2750,120.2152951,-15.60450319,1251.016708
12.2800,120.1832767,-15.60704071,1251.045349
12.2850,120.1544795,-15.6102789,1251.072626
12.2900,120.1304217,-15.6143174,1251.098002
12.2950,120.1135682,-15.61946239,1251.120585
12.3000,120.1043766,-15.62725234,1251.139982
12.3050,120.1059669,-15.63692004,1251.15525
12.3100,120.1210536,-15.64930261,1251.165343
12.3150,120.1518391,-15.6645159,1251.169475
12.3200,120.1987503,-15.68159311,1251.167639
12.3250,120.2643744,-15.70204612,1251.158756
12.3300,120.3508181,-15.7255128,1251.142158
12.3350,120.4588521,-15.75296594,1251.11747
12.3400,120.5885488,-15.78550374,1251.084533
12.3450,120.7401139,-15.82338447,1251.043264
12.3500,120.9132661,-15.86728202,1250.993693
12.3550,121.1084114,-15.918772,1250.93551
12.3600,121.3236907,-15.97870919,1250.869246
12.3650,121.5580092,-16.046466,1250.795427
12.3700,121.8117685,-16.12423479,1250.71366
12.3750,122.0832796,-16.21168852,1250.624606
12.3800,122.3724948,-16.30883951,1250.528363
12.3850,122.6780631,-16.41685925,1250.425262
12.3900,123.0011628,-16.53564931,1250.315001
12.3950,123.3410411,-16.66668602,1250.197676
12.4000,123.6976065,-16.80985906,1250.073417
12.4050,124.0699895,-16.96451419,1249.942687
12.4100,124.4584464,-17.13128575,1249.805395
12.4150,124.863765,-17.31134989,1249.661194
12.4200,125.2851204,-17.5054154,1249.510352
12.4250,125.7239805,-17.71351513,1249.3525
12.4300,126.1801715,-17.93457088,1249.187954
12.4350,126.6538985,-18.16914395,1249.016697
12.4400,127.1458318,-18.41664165,1248.838704
12.4450,127.6549429,-18.67734311,1248.654393
12.4500,128.1825186,-18.95201482,1248.463393
12.4550,128.72669,-19.23808424,1248.266763
12.4600,129.2856266,-19.53531943,1248.06524
12.4650,129.8574242,-19.84388758,1247.859492
12.4700,130.4392086,-20.16214307,1247.650732
12.4750,131.02989,-20.48861066,1247.439567
12.4800,131.6264384,-20.82446018,1247.226831
12.4850,132.2285818,-21.16872486,1247.012814
12.4900,132.8340054,-21.52136446,1246.798273
12.4950,133.4413722,-21.88025901,1246.583908
12.5000,134.0488414,-22.24567329,1246.370279
12.5050,134.6557122,-22.61636681,1246.157759
12.5100,135.2601845,-22.99123371,1245.947019
12.5150,135.8592483,-23.36918978,1245.739043
12.5200,136.452861,-23.74968685,1245.5339
12.5250,137.0392111,-24.13167557,1245.332182
12.5300,137.6174462,-24.51525234,1245.134088
12.5350,138.1860754,-24.89903242,1244.940134
12.5400,138.743298,-25.28317831,1244.750748
12.5450,139.2896315,-25.66677189,1244.565831
12.5500,139.8230592,-26.0496105,1244.385901
12.5550,140.3439161,-26.43182121,1244.210772
12.5600,140.8502635,-26.81213632,1244.041044
12.5650,141.3431234,-27.19059436,1243.876374
12.5700,141.8229595,-27.56596608,1243.716682
12.5750,142.2892992,-27.93876025,1243.561973
12.5800,142.7409528,-28.30733674,1243.41266
12.5850,143.1793553,-28.67136625,1243.268337
12.5900,143.6034659,-29.03056162,1243.129215
12.5950,144.0115016,-29.3846917,1242.995713
12.6000,144.4061865,-29.73300158,1242.867106
12.6050,144.787277,-30.07583914,1242.743361
12.6100,145.1559424,-30.41319328,1242.624116
12.6150,145.5125284,-30.74406749,1242.509333
12.6200,145.8581138,-31.06970612,1242.398558
12.6250,146.193756,-31.38979783,1242.291495
12.6300,146.5205894,-31.70423751,1242.187829
12.6350,146.8393261,-32.01311001,1242.087332
12.6400,147.1517318,-32.31746579,1241.989426
12.6450,147.4580949,-32.61738277,1241.893991
12.6500,147.7599141,-32.91316353,1241.800606
12.6550,148.058649,-33.20468755,1241.708898
12.6600,148.3537345,-33.49387343,1241.618814
12.6650,148.6471922,-33.78072562,1241.529839
12.6700,148.9391264,-34.06719346,1241.44176
12.6750,149.2318526,-34.35280839,1241.354059
12.6800,149.5247594,-34.63868849,1241.266778
12.6850,149.8179473,-34.92630333,1241.179758
12.6900,150.1095507,-35.21520447,1241.093495
12.6950,150.4003371,-35.5057449,1241.00777
12.7000,150.690847,-35.80023088,1240.92226
12.7050,150.9820351,-36.09832711,1240.836769
12.7100,151.2740741,-36.40019898,1240.751267
12.7150,151.5680919,-36.70464922,1240.665602
12.7200,151.865086,-37.01182572,1240.57954
12.7250,152.1640342,-37.32081547,1240.493393
12.7300,152.4653788,-37.63201017,1240.407052
12.7350,152.7688959,-37.94418234,1240.320658
12.7400,153.0749209,-38.25734772,1240.234151
12.7450,153.3842868,-38.57097184,1240.147374
12.7500,153.6966263,-38.88379289,1240.060524
12.7550,154.0128118,-39.19690218,1239.973324
12.7600,154.3340387,-39.50824021,1239.885673
12.7650,154.6611173,-39.81806943,1239.79738
12.7700,154.9966566,-40.1252086,1239.707955
12.7750,155.3421676,-40.42983652,1239.617084
12.7800,155.6975532,-40.72908406,1239.524999
12.7850,156.0626301,-41.02150567,1239.431843
12.7900,156.4370381,-41.30624461,1239.337763
12.7950,156.8223702,-41.58345711,1239.242434
12.8000,157.2199913,-41.85107222,1239.145703
12.8050,157.6313965,-42.10810956,1239.047351
12.8100,158.0564387,-42.35323434,1238.947514
12.8150,158.4962693,-42.58614475,1238.846011
12.8200,158.95015,-42.80568096,1238.743098
12.8250,159.4177941,-43.01134643,1238.638909
12.8300,159.8984966,-43.20277314,1238.533627
12.8350,160.3923913,-43.38035195,1238.427248
12.8400,160.8988614,-43.54405885,1238.319935
12.8450,161.4154587,-43.69418026,1238.212191
12.8500,161.9424799,-43.83058292,1238.103997
12.8550,162.4772967,-43.95288526,1237.995926
12.8600,163.01772,-44.06237567,1237.888354
12.8650,163.5608671,-44.15912068,1237.781842
12.8700,164.1042892,-44.24417667,1237.67681
12.8750,164.6448725,-44.31688089,1237.57387
12.8800,165.1813473,-44.38047839,1237.47305
12.8850,165.7115655,-44.43527155,1237.374707
12.8900,166.2346131,-44.4824752,1237.278909
12.8950,166.7494541,-44.5232433,1237.185729
12.9000,167.253191,-44.55853349,1237.09561
12.9050,167.743883,-44.58967947,1237.008759
12.9100,168.2194951,-44.61631175,1236.925491
12.9150,168.6792225,-44.64036477,1236.845778
12.9200,169.1234818,-44.66155316,1236.769492
12.9250,169.5519182,-44.67949168,1236.696657
12.9300,169.9635161,-44.69509159,1236.627337
12.9350,170.3594812,-44.70852646,1236.561246
12.9400,170.739148,-44.71899006,1236.498481
12.9450,171.1044853,-44.72651979,1236.438655
12.9500,171.4550614,-44.73112025,1236.381788
12.9550,171.7910025,-44.7337222,1236.327766
12.9600,172.1139305,-44.73182322,1236.276419
12.9650,172.4242911,-44.72637585,1236.22757
12.9700,172.7213759,-44.71499806,1236.181432
12.9750,173.004201,-44.69977147,1236.138018
12.9800,173.2732249,-44.67929212,1236.097291
12.9850,173.5285634,-44.65317913,1236.059215
12.9900,173.7728977,-44.62300292,1236.023239
12.9950,174.0068595,-44.58746507,1235.989312
13.0000,174.2287372,-44.5464256,1235.957692
13.0050,174.4383132,-44.49975429,1235.928408
13.0100,174.6359283,-44.44942508,1235.901265
13.0150,174.8208943,-44.39508714,1235.876378
13.0200,174.9937763,-44.33699618,1235.853626
13.0250,175.1557501,-44.27637565,1235.832745
13.0300,175.3073761,-44.21357357,1235.813606
13.0350,175.4509796,-44.14981654,1235.795771
13.0400,175.5866943,-44.08543507,1235.779195
13.0450,175.7157947,-44.0201871,1235.763696
13.0500,175.8387158,-43.95577119,1235.749081
13.0550,175.9565705,-43.89126774,1235.73524
13.0600,176.0690907,-43.82770661,1235.722141
13.0650,176.1773735,-43.76396168,1235.709683
13.0700,176.280658,-43.70075331,1235.697934
13.0750,176.3777671,-43.63780209,1235.687087
13.0800,176.4706058,-43.57607305,1235.676792
13.0850,176.5571093,-43.51513181,1235.667384
13.0900,176.6370035,-43.45592227,1235.658849
13.0950,176.7084827,-43.39797012,1235.651462
13.1000,176.7690931,-43.34132707,1235.645599
13.1050,176.816379,-43.28607403,1235.641621
13.1100,176.8488283,-43.23287889,1235.639711
13.1150,176.8653459,-43.18204989,1235.640001
13.1200,176.8645578,-43.13308302,1235.642735
13.1250,176.8452936,-43.08710791,1235.64802
13.1300,176.8058318,-43.04445064,1235.656106
13.1350,176.7454949,-43.00308121,1235.667226
13.1400,176.6642687,-42.96360347,1235.681366
13.1450,176.5622217,-42.92624063,1235.698521
13.1500,176.4378043,-42.89193919,1235.718886
13.1550,176.2920765,-42.86316257,1235.742171
13.1600,176.1258802,-42.83953693,1235.768288
13.1650,175.9391862,-42.82329972,1235.797137
13.1700,175.7323506,-42.81582625,1235.828603
13.1750,175.5061265,-42.81996989,1235.862424
13.1800,175.2595274,-42.83570534,1235.898799
13.1850,174.9931703,-42.86393609,1235.937622
13.1900,174.7069483,-42.90749506,1235.978777
13.1950,174.4008602,-42.96711314,1236.022276
13.2000,174.0758256,-43.04383193,1236.067962
13.2050,173.7327069,-43.13752281,1236.11577
13.2100,173.3734693,-43.24879932,1236.165413
13.2150,172.9994259,-43.37704502,1236.21676
13.2200,172.6105144,-43.52291613,1236.269851
13.2250,172.2092958,-43.68420718,1236.324457
13.2300,171.7984581,-43.86084397,1236.38019
13.2350,171.3789849,-44.05108113,1236.437043
13.2400,170.9542034,-44.25415129,1236.49456
13.2450,170.525417,-44.46818359,1236.552661
13.2500,170.0951045,-44.6915309,1236.611049
13.2550,169.6645651,-44.92251268,1236.669618
13.2600,169.2358997,-45.16029039,1236.728059
13.2650,168.8103494,-45.40208774,1236.786317
13.2700,168.3906794,-45.64707267,1236.843946
13.2750,167.9784271,-45.89303816,1236.900773
13.2800,167.5760271,-46.13841522,1236.956417
13.2850,167.1870835,-46.38173877,1237.010279
13.2900,166.812395,-46.62187546,1237.062206
13.2950,166.4525981,-46.85737976,1237.112098
13.3000,166.1098546,-47.08736639,1237.159551
13.3050,165.7861099,-47.31168639,1237.204144
13.3100,165.4811519,-47.52882972,1237.245919
13.3150,165.1958537,-47.73998901,1237.284588
13.3200,164.9303809,-47.94487444,1237.320069
13.3250,164.6857438,-48.14291841,1237.352132
13.3300,164.4608098,-48.33461399,1237.380905
13.3350,164.2549215,-48.51863265,1237.406508
13.3400,164.068226,-48.69508562,1237.428865
13.3450,163.899652,-48.86473608,1237.448087
13.3500,163.7472225,-49.02538418,1237.46462
13.3550,163.6113714,-49.17785193,1237.4783
13.3600,163.4918605,-49.32256018,1237.489119
13.3650,163.387365,-49.45904935,1237.497316
13.3700,163.2960379,-49.58746262,1237.503209
13.3750,163.2177742,-49.70832492,1237.50676
13.3800,163.151493,-49.82133791,1237.508173
13.3850,163.0959586,-49.92715915,1237.507638
13.3900,163.049983,-50.02452476,1237.505415
13.3950,163.0119578,-50.11404134,1237.501794
13.4000,162.9812702,-50.19582081,1237.49686
13.4050,162.9559662,-50.27042864,1237.490955
13.4100,162.9358978,-50.3378944,1237.484087
13.4150,162.9199235,-50.39867805,1237.476456
13.4200,162.9068872,-50.45317514,1237.468246
13.4250,162.8962941,-50.50169701,1237.459537
13.4300,162.8888187,-50.54400425,1237.450201
13.4350,162.8825214,-50.58183619,1237.440535
13.4400,162.8774032,-50.61536279,1237.430511
13.4450,162.8735244,-50.64420568,1237.420135
13.4500,162.8702836,-50.66945804,1237.409473
13.4550,162.8678913,-50.69009555,1237.398527
13.4600,162.8664355,-50.70770859,1237.387217
13.4650,162.8656833,-50.72125708,1237.37562
13.4700,162.8668261,-50.73109156,1237.36349
13.4750,162.869599,-50.73674252,1237.350903
13.4800,162.8757078,-50.73807625,1237.337514
13.4850,162.8839723,-50.73657273,1237.323492
13.4900,162.8951716,-50.73018375,1237.308766
13.4950,162.9103638,-50.71982734,1237.293088
13.5000,162.9289412,-50.70459934,1237.276609
13.5050,162.9529374,-50.68593398,1237.258866
13.5100,162.9807954,-50.66346341,1237.24017
13.5150,163.011868,-50.63673852,1237.220673
13.5200,163.0473581,-50.60625409,1237.200119
13.5250,163.0859761,-50.57299702,1237.178718
13.5300,163.1264653,-50.53697295,1237.156714
13.5350,163.1693059,-50.49756248,1237.134044
13.5400,163.2139597,-50.45470869,1237.110801
13.5450,163.2600604,-50.40929851,1237.087032
13.5500,163.3070734,-50.36116678,1237.062846
13.5550,163.3564739,-50.30907013,1237.037995
13.5600,163.4078347,-50.25281313,1237.012572
13.5650,163.4609882,-50.19266289,1236.986605
13.5700,163.5154646,-50.12892447,1236.96017
13.5750,163.5720835,-50.06036138,1236.933167
13.5800,163.6301716,-49.9883266,1236.905677
13.5850,163.6890677,-49.91225163,1236.877855
13.5900,163.7484313,-49.83112198,1236.849816
13.5950,163.8083782,-49.74639814,1236.821503
13.6000,163.8686553,-49.65762718,1236.792974
13.6050,163.9282858,-49.56491667,1236.764431
13.6100,163.9872172,-49.46788782,1236.735903
13.6150,164.0450094,-49.36616756,1236.707508
13.6200,164.1008553,-49.26045009,1236.679371
13.6250,164.1538157,-49.15042127,1236.651699
13.6300,164.2036903,-49.03575207,1236.624557
13.6350,164.2495374,-48.91815791,1236.598064
13.6400,164.290731,-48.79782883,1236.57233
13.6450,164.3276249,-48.67442626,1236.54732
13.6500,164.3604786,-48.54813921,1236.522971
13.6550,164.387805,-48.41977654,1236.499533
13.6600,164.4089905,-48.28852179,1236.477185
13.6650,164.4240377,-48.15610383,1236.455852
13.6700,164.4339062,-48.02213202,1236.435385
13.6750,164.4370379,-47.88640986,1236.416108
13.6800,164.4335919,-47.74908447,1236.397991
13.6850,164.4238749,-47.60932601,1236.381032
13.6900,164.4078697,-47.4677184,1236.365222
13.6950,164.3854301,-47.32336906,1236.350624
13.7000,164.356506,-47.17623191,1236.337284
13.7050,164.3214627,-47.02530341,1236.325182
13.7100,164.2802079,-46.87188047,1236.314304
13.7150,164.2322595,-46.71483212,1236.30481
13.7200,164.1776434,-46.55443068,1236.296706
13.7250,164.1167803,-46.38989116,1236.28995
13.7300,164.0493701,-46.22143954,1236.284609
13.7350,163.9759492,-46.04919504,1236.280599
13.7400,163.8962527,-45.8728076,1236.278018
13.7450,163.8089564,-45.69246637,1236.277135
13.7500,163.7151946,-45.50715504,1236.277805
13.7550,163.6141143,-45.31659446,1236.280229
13.7600,163.5064625,-45.12030073,1236.284303
13.7650,163.3933861,-44.91935071,1236.289764
13.7700,163.2744363,-44.71291472,1236.296767
13.7750,163.1498447,-44.49965461,1236.30537
13.7800,163.0202017,-44.28020077,1236.315457
13.7850,162.8855925,-44.05379226,1236.327055
13.7900,162.7466266,-43.82052264,1236.340068
13.7950,162.6029445,-43.5792222,1236.354653
13.8000,162.4557298,-43.33051069,1236.370566
13.8050,162.303697,-43.07332835,1236.38815
13.8100,162.1484813,-42.80881826,1236.407035
13.8150,161.989766,-42.53697564,1236.427286
13.8200,161.8280831,-42.25715811,1236.448868
