type,name,time_units,begin_time,frequency,count,units
signal_3d,"Noraxon MyoMotion-Trajectories-Radial styloid process RT","s",0.0000,200,4984,"mm"

time,x,y,z
0.0000,137.668251,53.37837105,990.052735
0.0050,137.7430051,53.30224099,990.0295929
0.0100,137.8177708,53.22610192,990.006482
0.0150,137.8925481,53.14995387,989.9834024
0.0200,137.9744184,53.06662826,989.9580167
0.0250,138.0631932,52.97641601,989.9303744
0.0300,138.1586276,52.87971113,989.9005494
0.0350,138.2604318,52.77699274,989.8686373
0.0400,138.3682781,52.66880269,989.8347536
0.0450,138.4818045,52.55572035,989.7990289
0.0500,138.6006193,52.43834362,989.7616054
0.0550,138.7243041,52.31727751,989.7226339
0.0600,138.8524113,52.19312338,989.6822737
0.0650,138.984463,52.0664688,989.6406909
0.0700,139.1199575,51.93788355,989.5980562
0.0750,139.2583815,51.80791955,989.5545423
0.0800,139.3992235,51.67711024,989.5103216
0.0850,139.5419823,51.5459703,989.4655664
0.0900,139.6861657,51.41499404,989.4204484
0.0950,139.8312828,51.28465178,989.3751394
0.1000,139.9768352,51.15538826,989.329812
0.1050,140.1223086,51.02762489,989.284641
0.1100,140.2671626,50.90176596,989.239807
0.1150,140.4108126,50.77820794,989.1954999
0.1200,140.5526067,50.65734706,989.1519237
0.1250,140.6918095,50.53958093,989.1092987
0.1300,140.8275965,50.42530573,989.0678596
0.1350,140.9590555,50.31491085,989.0278532
0.1400,141.0851956,50.20876908,988.9895321
0.1450,141.2049675,50.10722332,988.9531474
0.1500,141.317292,50.01057265,988.9189403
0.1550,141.4451734,49.82428787,988.8673519
0.1600,141.5580275,49.64436393,988.8193004
0.1650,141.6542743,49.47215305,988.7752379
0.1700,141.7353694,49.30798478,988.7350185
0.1750,141.7991014,49.15170802,988.698991
0.1800,141.8449413,49.00387666,988.667144
0.1850,141.8720178,48.86433179,988.6394952
0.1900,141.8805161,48.73459596,988.6163709
0.1950,141.8703088,48.61358623,988.5976002
0.2000,141.8410767,48.50254701,988.5834012
0.2050,141.7944649,48.40125402,988.5734658
0.2100,141.7295507,48.30953044,988.5677887
0.2150,141.6469567,48.22798343,988.566481
0.2200,141.5475144,48.15501985,988.5688817
0.2250,141.4320723,48.09201243,988.5752625
0.2300,141.3019768,48.03687012,988.5850141
0.2350,141.1585515,47.99038044,988.5980832
0.2400,141.0047661,47.95340864,988.6141129
0.2450,140.8411057,47.92356217,988.6326804
0.2500,140.6704418,47.90142221,988.6534586
0.2550,140.493523,47.88562677,988.676077
0.2600,140.3129926,47.87701516,988.7003327
0.2650,140.1304317,47.87367956,988.7255938
0.2700,139.9470152,47.87711176,988.7521105
0.2750,139.7634147,47.88561068,988.7793798
0.2800,139.5806722,47.89858796,988.8072743
0.2850,139.4002226,47.91728375,988.8357795
0.2900,139.2228166,47.94004876,988.8646506
0.2950,139.0488266,47.96601064,988.893528
0.3000,138.8788685,47.9954885,988.9224191
0.3050,138.7151785,48.02868971,988.9509933
0.3100,138.558217,48.06442566,988.978873
0.3150,138.4092829,48.10367028,989.0061937
0.3200,138.2677098,48.14400778,989.0324276
0.3250,138.1344733,48.18472529,989.0573903
0.3300,138.0109103,48.22708443,989.0810986
0.3350,137.8978445,48.26920174,989.103048
0.3400,137.7953038,48.31048297,989.1230666
0.3450,137.7038903,48.35004234,989.1409793
0.3500,137.6239416,48.38823284,989.1568146
0.3550,137.5563763,48.42399669,989.1703102
0.3600,137.5029177,48.45609516,989.1809282
0.3650,137.4615809,48.48225171,989.1887403
0.3700,137.4329336,48.50322697,989.1935697
0.3750,137.4165692,48.51752709,989.1954105
0.3800,137.4130377,48.5240352,989.1939315
0.3850,137.4219739,48.52211745,989.1891985
0.3900,137.441926,48.51226034,989.1815086
0.3950,137.4734521,48.49377752,989.1706921
0.4000,137.5143149,48.46544869,989.1568066
0.4050,137.5648723,48.42837635,989.1402175
0.4100,137.623481,48.38096953,989.1209851
0.4150,137.6894379,48.32508907,989.09937
0.4200,137.7624436,48.26095962,989.0756011
0.4250,137.8405018,48.18810044,989.0499166
0.4300,137.9216782,48.10755502,989.0227167
0.4350,138.0071291,48.02080545,988.9939828
0.4400,138.0953875,47.92775,988.9640134
0.4450,138.1864136,47.82878372,988.9328104
0.4500,138.2798876,47.72562633,988.9006223
0.4550,138.3754225,47.6182856,988.8675757
0.4600,138.4742846,47.50696818,988.8334898
0.4650,138.57623,47.39304202,988.7987139
0.4700,138.6805916,47.27624279,988.7631728
0.4750,138.7882491,47.15818168,988.7269548
0.4800,138.8989929,47.03803916,988.6900596
0.4850,139.0128911,46.91732887,988.6528094
0.4900,139.1299669,46.79590719,988.6152037
0.4950,139.2505581,46.67436756,988.5771186
0.5000,139.3745285,46.5515495,988.5384358
0.5050,139.5013454,46.42923946,988.4995487
0.5100,139.6323023,46.30675818,988.4602751
0.5150,139.7663732,46.1836056,988.4206238
0.5200,139.9035058,46.06121955,988.3809872
0.5250,140.0439145,45.93962464,988.3412569
0.5300,140.1873054,45.82074447,988.3016513
0.5350,140.3343584,45.70326218,988.2619227
0.5400,140.4842927,45.58675493,988.2222618
0.5450,140.6366434,45.47254562,988.1827442
0.5500,140.7913823,45.36187924,988.1435521
0.5550,140.9482264,45.25415976,988.1047562
0.5600,141.1061757,45.14838195,988.0662007
0.5650,141.2657183,45.04579702,988.028063
0.5700,141.4252267,44.94421747,987.9902043
0.5750,141.5843263,44.84507091,987.9528363
0.5800,141.7431534,44.74840193,987.9158512
0.5850,141.9000757,44.6518459,987.879195
0.5900,142.0544495,44.55759734,987.8430793
0.5950,142.2053022,44.46598827,987.807904
0.6000,142.3528365,44.37500946,987.7731659
0.6050,142.4943089,44.28335887,987.7391355
0.6100,142.6295688,44.19208917,987.7059755
0.6150,142.7584133,44.09952147,987.6734361
0.6200,142.8809033,44.00572341,987.6416208
0.6250,142.9952703,43.91145211,987.6108762
0.6300,143.1009374,43.81426701,987.5807642
0.6350,143.1963992,43.71568914,987.5519277
0.6400,143.2813834,43.61548547,987.5244329
0.6450,143.3561555,43.51314647,987.4981382
0.6500,143.4197937,43.40884073,987.4731951
0.6550,143.4708528,43.30337502,987.4498435
0.6600,143.5101666,43.19649069,987.428002
0.6650,143.5380139,43.09026965,987.4078548
0.6700,143.5542229,42.9843587,987.3894577
0.6750,143.5594053,42.88044356,987.3730021
0.6800,143.5529267,42.77882076,987.3584313
0.6850,143.5351857,42.68163626,987.3461753
0.6900,143.5075808,42.58722204,987.3356884
0.6950,143.4692928,42.49710967,987.3271693
0.7000,143.4229844,42.41161021,987.3203417
0.7050,143.3680715,42.33221366,987.3154583
0.7100,143.3041475,42.25826783,987.3124827
0.7150,143.2330216,42.18902576,987.3109824
0.7200,143.1547284,42.12500075,987.3111114
0.7250,143.0702481,42.06632504,987.312733
0.7300,142.9820963,42.01159315,987.3151461
0.7350,142.8888726,41.96219014,987.3190343
0.7400,142.7929241,41.91770776,987.3238103
0.7450,142.6948365,41.8774734,987.3294416
0.7500,142.5935934,41.841606,987.3362059
0.7550,142.4903001,41.80941496,987.3436054
0.7600,142.3847738,41.78119646,987.3518011
0.7650,142.2765286,41.75551726,987.3607778
0.7700,142.1656794,41.73190309,987.3705523
0.7750,142.052028,41.7104736,987.381091
0.7800,141.9359649,41.69102938,987.3923808
0.7850,141.8177029,41.67304458,987.4042867
0.7900,141.6966968,41.65634034,987.4168819
0.7950,141.5727086,41.63928972,987.4301874
0.8000,141.4458996,41.62305147,987.4441692
0.8050,141.3151083,41.60654336,987.4587637
0.8100,141.1809435,41.58964857,987.4738222
0.8150,141.0431397,41.5728617,987.4895431
0.8200,140.9011486,41.55549791,987.5059171
0.8250,140.7541674,41.53683391,987.5228005
0.8300,140.6026001,41.51606637,987.5401759
0.8350,140.4457316,41.49389597,987.5581821
0.8400,140.2828727,41.47058729,987.5768928
0.8450,140.1147808,41.44591392,987.5962306
0.8500,139.9418506,41.41793672,987.6157394
0.8550,139.7649146,41.38818706,987.6354265
0.8600,139.5852477,41.35732253,987.6553303
0.8650,139.4031835,41.32551584,987.6753613
0.8700,139.2200546,41.29398952,987.695517
0.8750,139.0369101,41.26339275,987.7157208
0.8800,138.8519489,41.23325429,987.7363125
0.8850,138.6676459,41.20443986,987.7569647
0.8900,138.4842664,41.17716798,987.7777142
0.8950,138.3025232,41.15134643,987.7984441
0.9000,138.1209774,41.12825063,987.8197434
0.9050,137.941534,41.10817046,987.8412286
0.9100,137.7642112,41.09224331,987.8632437
0.9150,137.5880297,41.08012025,987.8858155
0.9200,137.4132836,41.07308029,987.9090789
0.9250,137.2403995,41.06976433,987.9328448
0.9300,137.0702176,41.07200472,987.9572865
0.9350,136.9038601,41.07962847,987.9822694
0.9400,136.7389403,41.09242042,988.0080756
0.9450,136.5755756,41.11058838,988.0347152
0.9500,136.4140352,41.13390387,988.0621812
0.9550,136.2550609,41.16141051,988.0902285
0.9600,136.0972719,41.19474721,988.1192396
0.9650,135.9403542,41.23311152,988.1491954
0.9700,135.7846366,41.27550798,988.1799911
0.9750,135.6300579,41.32173532,988.2115776
0.9800,135.4771753,41.37260843,988.2440377
0.9850,135.3266844,41.42749058,988.2770599
0.9900,135.1798278,41.48643978,988.3104345
0.9950,135.0371488,41.54861337,988.3440287
1.0000,134.898912,41.61388915,988.3776701
1.0050,134.7644916,41.68160767,988.4113365
1.0100,134.6357574,41.75313625,988.4447971
1.0150,134.5120414,41.82812287,988.4782283
1.0200,134.392809,41.90546361,988.5113191
1.0250,134.278838,41.98533236,988.5439428
1.0300,134.168203,42.06762075,988.5764253
1.0350,134.060901,42.15093893,988.608626
1.0400,133.9546726,42.2336682,988.640658
1.0450,133.8487854,42.31569702,988.6724657
1.0500,133.7433405,42.39590149,988.7039211
1.0550,133.6367303,42.47288909,988.7350701
1.0600,133.5284604,42.54684899,988.7660199
1.0650,133.418202,42.61698151,988.7966404
1.0700,133.3041828,42.68290513,988.827107
1.0750,133.1865592,42.74412895,988.8573059
1.0800,133.0642361,42.7996836,988.887058
1.0850,132.9364958,42.84880873,988.9164995
1.0900,132.8025916,42.89136428,988.9455488
1.0950,132.6619485,42.92913782,988.974692
1.1000,132.513589,42.95967905,989.00375
1.1050,132.3581248,42.98362134,989.0326692
1.1100,132.194858,43.00218431,989.0618554
1.1150,132.0234381,43.01486773,989.091195
1.1200,131.8442269,43.02161,989.1207405
1.1250,131.6582381,43.02375839,989.1505825
1.1300,131.4646192,43.02199269,989.1809162
1.1350,131.2643696,43.01697898,989.2118417
1.1400,131.0572331,43.00809283,989.2432951
1.1450,130.8445061,42.99726699,989.2755485
1.1500,130.6245118,42.98634229,989.3094227
1.1550,130.3965976,42.97455151,989.3449489
1.1600,130.1586014,42.96498456,989.3831231
1.1650,129.9107565,42.95656883,989.4239819
1.1700,129.6509286,42.95226303,989.4684101
1.1750,129.3778288,42.95065949,989.516786
1.1800,129.0922999,42.95447112,989.5693404
1.1850,128.7920224,42.9647836,989.6270322
1.1900,128.4763203,42.9828744,989.6903945
1.1950,128.1449302,43.00978233,989.7597529
1.2000,127.7972642,43.04643823,989.8355305
1.2050,127.4323076,43.09448136,989.9184679
1.2100,127.0493475,43.15478392,990.0090216
1.2150,126.6478549,43.22821263,990.1075548
1.2200,126.2277713,43.31586202,990.2144778
1.2250,125.7881165,43.41866275,990.3303519
1.2300,125.3287806,43.53743093,990.4555689
1.2350,124.8484292,43.67172945,990.5906208
1.2400,124.3493943,43.82487119,990.7356829
1.2450,123.8304992,43.99612873,990.8911956
1.2500,123.2914553,44.18660428,991.0574933
1.2550,122.732814,44.39703463,991.2349254
1.2600,122.1530118,44.62657763,991.4239084
1.2650,121.5541879,44.87545865,991.6241888
1.2700,120.9361096,45.14663705,991.836663
1.2750,120.297457,45.43872364,992.0614196
1.2800,119.6394113,45.7519191,992.2987189
1.2850,118.961989,46.08516864,992.5486218
1.2900,118.2634777,46.43993232,992.812039
1.2950,117.5444421,46.81573219,993.0890023
1.3000,116.8046042,47.21378614,993.3802141
1.3050,116.0441973,47.63218654,993.6854429
1.3100,115.2621149,48.07115809,994.005353
1.3150,114.4587979,48.53021734,994.3400516
1.3200,113.6347201,49.00985656,994.6898214
1.3250,112.7879278,49.50870106,995.0550785
1.3300,111.919906,50.0258482,995.4356621
1.3350,111.0285326,50.56098762,995.8320177
1.3400,110.1166084,51.11468791,996.2440682
1.3450,109.1827255,51.68562959,996.6721802
1.3500,108.2273148,52.27336813,997.1162869
1.3550,107.2503248,52.87738811,997.5766211
1.3600,106.2510153,53.49668047,998.0533638
1.3650,105.2305155,54.12983841,998.5462964
1.3700,104.1893698,54.77727756,999.0555216
1.3750,103.1271264,55.43662895,999.5811725
1.3800,102.0424987,56.10704609,1000.123431
1.3850,100.9367887,56.7885012,1000.682174
1.3900,99.81066966,57.47872907,1001.257211
1.3950,98.66344675,58.17813088,1001.848916
1.4000,97.49711722,58.88587098,1002.456969
1.4050,96.31106021,59.60012118,1003.081615
1.4100,95.10477265,60.31954429,1003.722943
1.4150,93.88001523,61.04305825,1004.380806
1.4200,92.63672679,61.77055656,1005.055611
1.4250,91.3752089,62.50150278,1005.74736
1.4300,90.09593973,63.23466295,1006.45613
1.4350,88.79999195,63.96800631,1007.181491
1.4400,87.48753784,64.70251025,1007.923981
1.4450,86.15734943,65.43830264,1008.684159
1.4500,84.81045607,66.1731902,1009.461689
1.4550,83.44678091,66.90857772,1010.257204
1.4600,82.06829051,67.64131535,1011.069812
1.4650,80.67394571,68.37308363,1011.900159
1.4700,79.26410936,69.10208046,1012.748135
1.4750,77.83989595,69.82962307,1013.613645
1.4800,76.40098496,70.55459805,1014.49671
1.4850,74.94787327,71.2774243,1015.397498
1.4900,73.48022879,71.99697384,1016.315897
1.4950,71.99798777,72.71314862,1017.251968
1.5000,70.50169032,73.42654941,1018.206019
1.5050,68.99124882,74.13630924,1019.177547
1.5100,67.46634377,74.84107638,1020.16647
1.5150,65.92656166,75.54294879,1021.173546
1.5200,64.37343016,76.23984973,1022.197712
1.5250,62.8066225,76.93205693,1023.239131
1.5300,61.22681666,77.62020677,1024.297699
1.5350,59.63350573,78.30380933,1025.373278
1.5400,58.02694742,78.98218953,1026.46606
1.5450,56.40920943,79.65677279,1027.575705
1.5500,54.78109257,80.32652232,1028.702022
1.5550,53.14266879,80.99272737,1029.845059
1.5600,51.49549666,81.65529665,1031.004451
1.5650,49.83851082,82.31541997,1032.1808
1.5700,48.17413939,82.97275086,1033.373292
1.5750,46.5025118,83.62919425,1034.582646
1.5800,44.82388171,84.28460354,1035.808589
1.5850,43.13859028,84.94032412,1037.051622
1.5900,41.4486076,85.59605742,1038.311192
1.5950,39.75356483,86.25141066,1039.587689
1.6000,38.05279112,86.90552282,1040.880892
1.6050,36.34783535,87.55971844,1042.191207
1.6100,34.63884507,88.21228369,1043.518638
1.6150,32.92601532,88.86313153,1044.863221
1.6200,31.20808319,89.51008999,1046.224798
1.6250,29.48760612,90.15467167,1047.603617
1.6300,27.76369134,90.79525217,1048.999332
1.6350,26.0403569,91.43119978,1050.41085
1.6400,24.31568459,92.06342798,1051.839468
1.6450,22.59102918,92.69055579,1053.284072
1.6500,20.8672677,93.31319147,1054.74485
1.6550,19.14537896,93.93123601,1056.221793
1.6600,17.42667132,94.54349426,1057.713805
1.6650,15.71277015,95.15217893,1059.221301
1.6700,14.0040722,95.75638328,1060.74378
1.6750,12.30158451,96.3565899,1062.280894
1.6800,10.60813849,96.95510876,1063.832343
1.6850,8.923692999,97.55013524,1065.397804
1.6900,7.248924508,98.14352088,1066.977609
1.6950,5.585344019,98.73386992,1068.570215
1.7000,3.932145309,99.32184529,1070.176086
1.7050,2.290550687,99.9077609,1071.794849
1.7100,0.6626677576,100.4933935,1073.425486
1.7150,-0.9518197124,101.0778491,1075.067912
1.7200,-2.551180611,101.6606588,1076.72099
1.7250,-4.135838387,102.2419536,1078.385676
1.7300,-5.705407047,102.8212362,1080.061732
1.7350,-7.260435206,103.3986345,1081.749239
1.7400,-8.801149139,103.9739328,1083.448518
1.7450,-10.32716602,104.5436662,1085.158169
1.7500,-11.83906653,105.1079797,1086.878463
1.7550,-13.33662257,105.6658474,1088.608834
1.7600,-14.82047769,106.2162596,1090.348886
1.7650,-16.29037778,106.7579897,1092.098469
1.7700,-17.74674263,107.2908101,1093.857246
1.7750,-19.18845936,107.8146836,1095.625091
1.7800,-20.61687249,108.3297475,1097.402649
1.7850,-22.03085856,108.8355104,1099.189053
1.7900,-23.43083028,109.3315099,1100.984162
1.7950,-24.81643551,109.8182186,1102.787865
1.8000,-26.18711976,110.295621,1104.599507
1.8050,-27.5420516,110.7652036,1106.419583
1.8100,-28.88143643,111.2270788,1108.247208
1.8150,-30.20416893,111.6803156,1110.081896
1.8200,-31.51066769,112.1265088,1111.924008
1.8250,-32.80207777,112.5653549,1113.773683
1.8300,-34.07887941,112.9955135,1115.630949
1.8350,-35.33972118,113.4193269,1117.495173
1.8400,-36.5851418,113.8350584,1119.365762
1.8450,-37.81539919,114.2429549,1121.243068
1.8500,-39.03125939,114.6449508,1123.127333
1.8550,-40.23261787,115.0390175,1125.017605
1.8600,-41.42004399,115.4257556,1126.914339
1.8650,-42.59181922,115.8047281,1128.817116
1.8700,-43.75041986,116.1739213,1130.725641
1.8750,-44.89582427,116.5326773,1132.639893
1.8800,-46.02974514,116.8802444,1134.55989
1.8850,-47.15124001,117.2168171,1136.485208
1.8900,-48.26259559,117.5402049,1138.415834
1.8950,-49.36336644,117.8518181,1140.351602
1.9000,-50.45330252,118.1521224,1142.292698
1.9050,-51.53325539,118.4399272,1144.238773
1.9100,-52.60353771,118.7144437,1146.188671
1.9150,-53.66495304,118.9760575,1148.143082
1.9200,-54.71652386,119.2249495,1150.102282
1.9250,-55.75868912,119.4608919,1152.065813
1.9300,-56.79176978,119.6850064,1154.034185
1.9350,-57.81651688,119.8956945,1156.007333
1.9400,-58.83374953,120.0928085,1157.984489
1.9450,-59.84303363,120.2770284,1159.966774
1.9500,-60.84497801,120.4474539,1161.95358
1.9550,-61.8399706,120.604182,1163.944121
1.9600,-62.82834518,120.7473143,1165.939282
1.9650,-63.81058484,120.8767072,1167.937994
1.9700,-64.78580618,120.9929176,1169.940808
1.9750,-65.75383028,121.0956633,1171.947492
1.9800,-66.71491492,121.1839317,1173.958075
1.9850,-67.66788981,121.2595941,1175.97195
1.9900,-68.61312689,121.322192,1177.988855
1.9950,-69.54982087,121.3704734,1180.00836
2.0000,-70.47723328,121.4057855,1182.031235
2.0050,-71.39638753,121.4270403,1184.055924
2.0100,-72.30828547,121.4337791,1186.084054
2.0150,-73.2132215,121.4267834,1188.11517
2.0200,-74.11060694,121.4064108,1190.148591
2.0250,-75.0001132,121.3731727,1192.183165
2.0300,-75.88166763,121.3274548,1194.218711
2.0350,-76.75447887,121.2705872,1196.25533
2.0400,-77.61805231,121.2017987,1198.291051
2.0450,-78.47308871,121.123462,1200.327048
2.0500,-79.3193297,121.0345205,1202.362386
2.0550,-80.15719708,120.934907,1204.396704
2.0600,-80.98725776,120.8260341,1206.430756
2.0650,-81.80895829,120.7084091,1208.463253
2.0700,-82.6230536,120.5828513,1210.495386
2.0750,-83.42848643,120.4503929,1212.527093
2.0800,-84.22511387,120.3105911,1214.557774
2.0850,-85.01379015,120.1649287,1216.587137
2.0900,-85.79472754,120.0139142,1218.615131
2.0950,-86.56674976,119.8589015,1220.641147
2.1000,-87.33043589,119.6992361,1222.665109
2.1050,-88.08694533,119.5351147,1224.68702
2.1100,-88.83430938,119.3662044,1226.706414
2.1150,-89.57374367,119.1935095,1228.723219
2.1200,-90.3052999,119.0165658,1230.737098
2.1250,-91.02735158,118.8358936,1232.746156
2.1300,-91.73943457,118.6519769,1234.75041
2.1350,-92.44040602,118.4656885,1236.749818
2.1400,-93.13068931,118.2781957,1238.745422
2.1450,-93.81088159,118.0899206,1240.73691
2.1500,-94.47953785,117.9005769,1242.723454
2.1550,-95.13606597,117.7113667,1244.706529
2.1600,-95.78030636,117.5219263,1246.68546
2.1650,-96.41443921,117.3328978,1248.659663
2.1700,-97.0377698,117.1437749,1250.629701
2.1750,-97.64875661,116.9551907,1252.594158
2.1800,-98.24833715,116.7670154,1254.554081
2.1850,-98.83764632,116.5787671,1256.509275
2.1900,-99.41655051,116.3909758,1258.460207
2.1950,-99.98526557,116.2047405,1260.406619
2.2000,-100.5440057,116.0184411,1262.349163
2.2050,-101.0932234,115.8340144,1264.287194
2.2100,-101.6328257,115.6526034,1266.221366
2.2150,-102.1628192,115.4731389,1268.151644
2.2200,-102.6839974,115.2980331,1270.077885
2.2250,-103.1971288,115.125821,1272.000353
2.2300,-103.7010326,114.9567257,1273.918721
2.2350,-104.1965687,114.7912875,1275.83332
2.2400,-104.6842273,114.6279751,1277.743803
2.2450,-105.1647032,114.467797,1279.650518
2.2500,-105.6379129,114.3109209,1281.552843
2.2550,-106.1029157,114.1574986,1283.450785
2.2600,-106.5587288,114.0083689,1285.343515
2.2650,-107.0058838,113.8630367,1287.231055
2.2700,-107.444239,113.7219045,1289.113017
2.2750,-107.8743832,113.5850845,1290.990126
2.2800,-108.2950642,113.4535732,1292.862206
2.2850,-108.7063145,113.3276877,1294.728902
2.2900,-109.1077503,113.2067579,1296.589586
2.2950,-109.499736,113.0907433,1298.445437
2.3000,-109.8823255,112.9794385,1300.29589
2.3050,-110.2538345,112.8734268,1302.140818
2.3100,-110.6141014,112.771546,1303.979404
2.3150,-110.9620216,112.6739336,1305.810556
2.3200,-111.2984184,112.5794883,1307.635144
2.3250,-111.6236584,112.4871881,1309.453554
2.3300,-111.9375234,112.3965999,1311.265029
2.3350,-112.2413826,112.306899,1313.069859
2.3400,-112.5354878,112.2175691,1314.868921
2.3450,-112.8205786,112.1261246,1316.660976
2.3500,-113.0965241,112.0343271,1318.446517
2.3550,-113.3636313,111.9397666,1320.226244
2.3600,-113.6221798,111.8433458,1321.999166
2.3650,-113.8724308,111.7444059,1323.766805
2.3700,-114.1143167,111.641965,1325.527542
2.3750,-114.3490451,111.5350511,1327.281152
2.3800,-114.5763468,111.4251304,1329.028364
2.3850,-114.7965976,111.3109935,1330.769249
2.3900,-115.0084663,111.1935917,1332.5035
2.3950,-115.2144755,111.0709051,1334.231601
2.4000,-115.4141404,110.9446441,1335.953482
2.4050,-115.6068453,110.8138247,1337.667992
2.4100,-115.7941791,110.6783832,1339.375863
2.4150,-115.9758052,110.5371495,1341.076235
2.4200,-116.1521187,110.3899066,1342.76981
2.4250,-116.3235502,110.2368084,1344.457455
2.4300,-116.4919036,110.0759117,1346.138413
2.4350,-116.6588765,109.9058125,1347.812638
2.4400,-116.8242044,109.7268883,1349.479704
2.4450,-116.9879958,109.5387429,1351.140291
2.4500,-117.1514467,109.3406097,1352.794612
2.4550,-117.3148634,109.1333448,1354.442074
2.4600,-117.4773323,108.9172162,1356.081524
2.4650,-117.6385865,108.6915636,1357.713865
2.4700,-117.7997376,108.4570579,1359.339076
2.4750,-117.9614641,108.2147558,1360.957628
2.4800,-118.1214465,107.9667979,1362.569708
2.4850,-118.2798611,107.7126513,1364.17488
2.4900,-118.4357337,107.4538732,1365.77316
2.4950,-118.589095,107.1897432,1367.364075
2.5000,-118.7393034,106.9221227,1368.94726
2.5050,-118.8867351,106.6517096,1370.524462
2.5100,-119.0291028,106.3793213,1372.096084
2.5150,-119.164503,106.1068371,1373.661002
2.5200,-119.2930716,105.8338425,1375.218869
2.5250,-119.4144879,105.5607716,1376.769213
2.5300,-119.5280997,105.287517,1378.311729
2.5350,-119.633693,105.0151851,1379.847155
2.5400,-119.7296975,104.7451569,1381.37453
2.5450,-119.8158369,104.4765344,1382.892951
2.5500,-119.8914436,104.2092045,1384.403416
2.5550,-119.956171,103.9440589,1385.90518
2.5600,-120.0094861,103.6795985,1387.398436
2.5650,-120.0504767,103.4165653,1388.883166
2.5700,-120.0811079,103.1536773,1390.358681
2.5750,-120.0994814,102.892212,1391.824661
2.5800,-120.1067953,102.6315032,1393.281378
2.5850,-120.1016927,102.369387,1394.728479
2.5900,-120.0836808,102.1078819,1396.166562
2.5950,-120.0528982,101.8469911,1397.595058
2.6000,-120.0078762,101.5874749,1399.012461
2.6050,-119.9505741,101.3282844,1400.419994
2.6100,-119.880592,101.0703555,1401.816921
2.6150,-119.7993772,100.8136422,1403.204546
2.6200,-119.7068498,100.5579086,1404.582439
2.6250,-119.6037339,100.3041792,1405.950932
2.6300,-119.4906447,100.0507382,1407.310239
2.6350,-119.3669543,99.79908213,1408.660989
2.6400,-119.2315526,99.54945664,1410.002938
2.6450,-119.0836665,99.30259123,1411.336482
2.6500,-118.9233078,99.05633499,1412.661202
2.6550,-118.7517047,98.81301706,1413.977178
2.6600,-118.5686821,98.57067379,1415.284096
2.6650,-118.3755577,98.32915247,1416.581916
2.6700,-118.1724397,98.08806157,1417.870926
2.6750,-117.9617518,97.84689682,1419.15164
2.6800,-117.7434383,97.60510922,1420.424282
2.6850,-117.5181998,97.3632484,1421.687787
2.6900,-117.2870014,97.11966638,1422.943316
2.6950,-117.0496976,96.87486438,1424.190422
2.7000,-116.8064358,96.62940883,1425.429574
2.7050,-116.5572002,96.3842652,1426.660868
2.7100,-116.3020381,96.13956262,1427.884275
2.7150,-116.0416468,95.89553604,1429.100161
2.7200,-115.777324,95.65091549,1430.308085
2.7250,-115.5081284,95.40647459,1431.508563
2.7300,-115.2339641,95.16403955,1432.702041
2.7350,-114.9549481,94.92268091,1433.888665
2.7400,-114.6716132,94.68239375,1435.068021
2.7450,-114.3841689,94.4434173,1436.239334
2.7500,-114.0936948,94.2062714,1437.402679
2.7550,-113.8016163,93.97061082,1438.55849
2.7600,-113.5084254,93.73666274,1439.70781
2.7650,-113.2129972,93.50414151,1440.85079
2.7700,-112.914552,93.27454048,1441.987435
2.7750,-112.6130007,93.04785,1443.118312
2.7800,-112.308342,92.82334327,1444.241205
2.7850,-112.0002004,92.60196773,1445.357169
2.7900,-111.6891099,92.38369122,1446.465639
2.7950,-111.3744804,92.1678794,1447.567714
2.8000,-111.0561011,91.95629046,1448.66309
2.8050,-110.7327037,91.74679135,1449.750302
2.8100,-110.4057005,91.53949787,1450.828524
2.8150,-110.0765732,91.33361775,1451.899586
2.8200,-109.7438607,91.12905563,1452.963421
2.8250,-109.4070444,90.92735146,1454.019824
2.8300,-109.0668972,90.72603524,1455.069781
2.8350,-108.7226356,90.52690825,1456.11214
2.8400,-108.3739,90.32830596,1457.14718
2.8450,-108.0204578,90.1302682,1458.174433
2.8500,-107.6628221,89.93146767,1459.194461
2.8550,-107.3013839,89.73188451,1460.20792
2.8600,-106.9357836,89.5320571,1461.214741
2.8650,-106.567324,89.33112318,1462.215301
2.8700,-106.1946885,89.12847932,1463.211152
2.8750,-105.8195114,88.92318675,1464.20135
2.8800,-105.440836,88.71536508,1465.18591
2.8850,-105.0602228,88.50625703,1466.165991
2.8900,-104.6769602,88.29519578,1467.141354
2.8950,-104.2900599,88.08291677,1468.111565
2.9000,-103.9010712,87.86896124,1469.077703
2.9050,-103.5073362,87.65338343,1470.039518
2.9100,-103.1080073,87.43762271,1470.997072
2.9150,-102.7021417,87.22222565,1471.949814
2.9200,-102.2891826,87.0066401,1472.897474
2.9250,-101.8671533,86.78992196,1473.839292
2.9300,-101.4358402,86.57196861,1474.774964
2.9350,-100.9953317,86.35136519,1475.703509
2.9400,-100.5473939,86.12683854,1476.625289
2.9450,-100.0912874,85.89822899,1477.540323
2.9500,-99.62800216,85.66609356,1478.449263
2.9550,-99.15614621,85.42959433,1479.35139
2.9600,-98.67611024,85.19010464,1480.248838
2.9650,-98.18801483,84.94637318,1481.140447
2.9700,-97.69083709,84.69917099,1482.02531
2.9750,-97.18428537,84.44794496,1482.904411
2.9800,-96.66830392,84.19211201,1483.776344
2.9850,-96.14293243,83.93243733,1484.642405
2.9900,-95.60854949,83.66939401,1485.501907
2.9950,-95.06444881,83.40294576,1486.355767
3.0000,-94.51215133,83.13261408,1487.203131
3.0050,-93.95172905,82.8578819,1488.044014
3.0100,-93.38348931,82.57963893,1488.879149
3.0150,-92.8069462,82.29811186,1489.707723
3.0200,-92.22173883,82.01486682,1490.529409
3.0250,-91.6272329,81.73077677,1491.344019
3.0300,-91.02227086,81.44516638,1492.150555
3.0350,-90.40585134,81.15878066,1492.94819
3.0400,-89.77947489,80.87037817,1493.73744
3.0450,-89.14427,80.58020129,1494.517966
3.0500,-88.50098782,80.28679249,1495.289806
3.0550,-87.85047686,79.99016525,1496.052686
3.0600,-87.19264844,79.68893916,1496.80682
3.0650,-86.52897322,79.38348436,1497.551828
3.0700,-85.8627014,79.07287602,1498.287482
3.0750,-85.19504745,78.7571073,1499.013723
3.0800,-84.52838745,78.4345028,1499.73235
3.0850,-83.86377258,78.10588999,1500.443082
3.0900,-83.20174406,77.77081035,1501.146334
3.0950,-82.54441222,77.43100368,1501.842542
3.1000,-81.8944516,77.08515463,1502.532004
3.1050,-81.2534806,76.73450483,1503.215632
3.1100,-80.62233672,76.38084174,1503.895108
3.1150,-80.00053972,76.02605648,1504.569384
3.1200,-79.38909528,75.67083112,1505.238688
3.1250,-78.78796898,75.31669247,1505.902948
3.1300,-78.1982508,74.96630569,1506.562883
3.1350,-77.62030601,74.62044509,1507.218922
3.1400,-77.0543327,74.28122356,1507.871107
3.1450,-76.49975272,73.95002097,1508.520141
3.1500,-75.95616645,73.62783629,1509.163868
3.1550,-75.42185221,73.31484562,1509.802944
3.1600,-74.89647753,73.01243314,1510.436803
3.1650,-74.37794866,72.72158316,1511.064858
3.1700,-73.86494361,72.44278828,1511.685213
3.1750,-73.354916,72.17651663,1512.297684
3.1800,-72.8479676,71.92327224,1512.902036
3.1850,-72.34355356,71.68196959,1513.497865
3.1900,-71.8411645,71.45181869,1514.084775
3.1950,-71.34030724,71.23296906,1514.663373
3.2000,-70.8396765,71.02360707,1515.233219
3.2050,-70.33823636,70.82537915,1515.79377
3.2100,-69.83665678,70.63528933,1516.345518
3.2150,-69.33189476,70.45125158,1516.887982
3.2200,-68.82484995,70.27446743,1517.42221
3.2250,-68.31651287,70.10250822,1517.948072
3.2300,-67.80675188,69.93686911,1518.466258
3.2350,-67.29379106,69.77720021,1518.976287
3.2400,-66.77591122,69.62344568,1519.478996
3.2450,-66.25298711,69.47407278,1519.973989
3.2500,-65.72536648,69.32771198,1520.462195
3.2550,-65.19225302,69.18457023,1520.944162
3.2600,-64.65372505,69.04229974,1521.418561
3.2650,-64.10916797,68.90198056,1521.886607
3.2700,-63.55929438,68.76139228,1522.349638
3.2750,-63.00352905,68.62120501,1522.807059
3.2800,-62.44324418,68.48066109,1523.259792
3.2850,-61.8773663,68.33835342,1523.707222
3.2900,-61.30718786,68.19389609,1524.150234
3.2950,-60.73278118,68.04804978,1524.588548
3.3000,-60.15489119,67.89915863,1525.023035
3.3050,-59.57306937,67.747418,1525.454364
3.3100,-58.98796566,67.59301539,1525.882387
3.3150,-58.40100611,67.43642905,1526.308108
3.3200,-57.81249496,67.27716896,1526.732493
3.3250,-57.22527803,67.11500795,1527.156282
3.3300,-56.64239276,66.95044715,1527.580862
3.3350,-56.06512183,66.7840705,1528.007209
3.3400,-55.49436038,66.61676896,1528.436156
3.3450,-54.93053756,66.44961683,1528.868059
3.3500,-54.37536544,66.28421226,1529.304055
3.3550,-53.82874817,66.12017682,1529.743936
3.3600,-53.29457859,65.95925676,1530.188536
3.3650,-52.77471365,65.80184788,1530.638656
3.3700,-52.26885938,65.64867078,1531.095396
3.3750,-51.77901173,65.50021588,1531.559182
3.3800,-51.30487272,65.35781983,1532.030057
3.3850,-50.8491187,65.2222613,1532.508735
3.3900,-50.41328317,65.09363852,1532.996362
3.3950,-49.99807702,64.97291616,1533.492234
3.4000,-49.60275781,64.86063968,1533.997088
3.4050,-49.22715989,64.7588822,1534.510613
3.4100,-48.87127367,64.66832424,1535.031908
3.4150,-48.53586485,64.5890301,1535.561403
3.4200,-48.21990154,64.52121325,1536.098351
3.4250,-47.923949,64.46482557,1536.64272
3.4300,-47.64686121,64.42087126,1537.193216
3.4350,-47.3876477,64.38902311,1537.749043
3.4400,-47.14471588,64.36768529,1538.309064
3.4450,-46.91671349,64.35740021,1538.872395
3.4500,-46.70164471,64.3588135,1539.438675
3.4550,-46.49935188,64.37087931,1540.006598
3.4600,-46.30802245,64.39379899,1540.575496
3.4650,-46.1283754,64.42492457,1541.14481
3.4700,-45.95979272,64.46390817,1541.714178
3.4750,-45.80039118,64.50999962,1542.283146
3.4800,-45.64885349,64.5620354,1542.850358
3.4850,-45.50204999,64.61848136,1543.414274
3.4900,-45.35871852,64.67802607,1543.974463
3.4950,-45.21836342,64.73929882,1544.52959
3.5000,-45.08080558,64.80061817,1545.079561
3.5050,-44.9461109,64.86042183,1545.62397
3.5100,-44.81249984,64.91733281,1546.162522
3.5150,-44.68059823,64.97151771,1546.695447
3.5200,-44.54913246,65.01983448,1547.222085
3.5250,-44.41630297,65.06211889,1547.741975
3.5300,-44.2807212,65.09607123,1548.254621
3.5350,-44.14340885,65.1187488,1548.761633
3.5400,-44.00406684,65.13092764,1549.261877
3.5450,-43.86282512,65.13204093,1549.756004
3.5500,-43.71893111,65.12249799,1550.244292
3.5550,-43.57255315,65.10161369,1550.726472
3.5600,-43.42298843,65.069412,1551.202342
3.5650,-43.26984629,65.02538574,1551.672054
3.5700,-43.11385391,64.96949685,1552.135778
3.5750,-42.95437222,64.90250281,1552.593555
3.5800,-42.7912528,64.82519739,1553.045534
3.5850,-42.62563626,64.73699923,1553.493033
3.5900,-42.45693416,64.63832261,1553.935771
3.5950,-42.28629018,64.52963178,1554.37388
3.6000,-42.11238845,64.41208716,1554.806984
3.6050,-41.93720678,64.28600664,1555.235886
3.6100,-41.76119522,64.15290804,1555.660746
3.6150,-41.58380381,64.01332122,1556.081294
3.6200,-41.40521593,63.86846863,1556.497291
3.6250,-41.22461273,63.71983546,1556.908655
3.6300,-41.04203635,63.56852958,1557.315205
3.6350,-40.85846478,63.41560291,1557.717752
3.6400,-40.67535219,63.2618087,1558.115901
3.6450,-40.4932418,63.10811894,1558.510606
3.6500,-40.31084623,62.95422328,1558.900427
3.6550,-40.12877462,62.80247504,1559.287081
3.6600,-39.9479298,62.65305635,1559.670843
3.6650,-39.7677463,62.50668381,1560.050777
3.6700,-39.58896317,62.3646477,1560.427751
3.6750,-39.41181059,62.22605287,1560.801529
3.6800,-39.23706717,62.09278894,1561.172412
3.6850,-39.06444014,61.96367089,1561.539855
3.6900,-38.89453409,61.84141479,1561.903977
3.6950,-38.72669085,61.72507677,1562.265009
3.7000,-38.56214122,61.61595032,1562.622536
3.7050,-38.40119586,61.51479008,1562.97696
3.7100,-38.2439406,61.42072171,1563.3283
3.7150,-38.09045824,61.3338588,1563.676
3.7200,-37.94049973,61.25480256,1564.020115
3.7250,-37.79534177,61.18454,1564.361205
3.7300,-37.65433381,61.12135743,1564.698481
3.7350,-37.51670989,61.06561995,1565.031813
3.7400,-37.38338761,61.01778642,1565.360706
3.7450,-37.25458159,60.97800959,1565.685581
3.7500,-37.13155112,60.94523999,1566.005529
3.7550,-37.01381748,60.91982804,1566.3203
3.7600,-36.90162398,60.90114116,1566.630103
3.7650,-36.79379348,60.88913793,1566.933714
3.7700,-36.68964577,60.88507717,1567.2314
3.7750,-36.59121541,60.88826817,1567.522441
3.7800,-36.49766716,60.89782819,1567.806352
3.7850,-36.41014208,60.91398443,1568.084335
3.7900,-36.32945641,60.93755986,1568.355356
3.7950,-36.25526244,60.96750118,1568.620055
3.8000,-36.18725141,61.0054771,1568.877166
3.8050,-36.12500373,61.04847315,1569.125616
3.8100,-36.06855959,61.0982036,1569.364872
3.8150,-36.01843752,61.15260781,1569.594788
3.8200,-35.97478083,61.21319666,1569.814512
3.8250,-35.93669761,61.27941894,1570.023417
3.8300,-35.90457019,61.35098518,1570.220641
3.8350,-35.87848591,61.42976094,1570.405426
3.8400,-35.85831147,61.51408769,1570.577629
3.8450,-35.84490391,61.60462313,1570.737
3.8500,-35.83728154,61.70183971,1570.881979
3.8550,-35.83479005,61.80513748,1571.012247
3.8600,-35.83892337,61.91338591,1571.128278
3.8650,-35.85008581,62.02757415,1571.229422
3.8700,-35.86745461,62.14829525,1571.314275
3.8750,-35.89181422,62.27536271,1571.383803
3.8800,-35.92336966,62.40742011,1571.43693
3.8850,-35.96171014,62.54620237,1571.472956
3.8900,-36.00648756,62.69154521,1571.491255
3.8950,-36.05825896,62.8435946,1571.492451
3.9000,-36.11687674,63.00233978,1571.475938
3.9050,-36.18137788,63.16785808,1571.441209
3.9100,-36.25214353,63.33861324,1571.387898
3.9150,-36.32851026,63.51583811,1571.316382
3.9200,-36.41107199,63.69891271,1571.227117
3.9250,-36.50077296,63.88749208,1571.120089
3.9300,-36.59621661,64.08086804,1570.995665
3.9350,-36.69838036,64.27938001,1570.85388
3.9400,-36.80587949,64.4833635,1570.694313
3.9450,-36.91838633,64.69172242,1570.517409
3.9500,-37.03642399,64.90608205,1570.324656
3.9550,-37.16097077,65.12420355,1570.114906
3.9600,-37.29075216,65.34642644,1569.888668
3.9650,-37.42657147,65.57236598,1569.647415
3.9700,-37.56834129,65.80058554,1569.390789
3.9750,-37.71653057,66.0329802,1569.119704
3.9800,-37.87154439,66.26813748,1568.835232
3.9850,-38.03208413,66.50812289,1568.537983
3.9900,-38.19804171,66.75077216,1568.228324
3.9950,-38.37030579,66.99753208,1567.907084
4.0000,-38.54874172,67.24804706,1567.574719
4.0050,-38.7340326,67.50107925,1567.232177
4.0100,-38.92684824,67.75655368,1566.880015
4.0150,-39.12834029,68.01374868,1566.519598
4.0200,-39.33896102,68.27389011,1566.151587
4.0250,-39.55778917,68.53534493,1565.776197
4.0300,-39.78627421,68.79988152,1565.394779
4.0350,-40.02519934,69.06625453,1565.007288
4.0400,-40.27386093,69.33541911,1564.614579
4.0450,-40.53320928,69.60631961,1564.216377
4.0500,-40.8018198,69.87951203,1563.813148
4.0550,-41.08068434,70.1552457,1563.404976
4.0600,-41.36979302,70.43263324,1562.991239
4.0650,-41.66957771,70.71234733,1562.572004
4.0700,-41.97993961,70.9933483,1562.147216
4.0750,-42.29984217,71.27647517,1561.716731
4.0800,-42.63014563,71.56195758,1561.281407
4.0850,-42.97196418,71.84971798,1560.840146
4.0900,-43.3231571,72.13891323,1560.392113
4.0950,-43.68468639,72.43027563,1559.937095
4.1000,-44.05519127,72.72366117,1559.474716
4.1050,-44.43470391,73.02003614,1559.005262
4.1100,-44.82319038,73.31884987,1558.527967
4.1150,-45.2191762,73.62158881,1558.041958
4.1200,-45.62239954,73.92607685,1557.547299
4.1250,-46.03337472,74.23374163,1557.044331
4.1300,-46.45192155,74.54464516,1556.534085
4.1350,-46.87782978,74.85778855,1556.015132
4.1400,-47.31173272,75.17318132,1555.488612
4.1450,-47.75220426,75.49042946,1554.954003
4.1500,-48.20106494,75.80864935,1554.411904
4.1550,-48.65865724,76.12838175,1553.862466
4.1600,-49.12398466,76.45017232,1553.306194
4.1650,-49.59720678,76.77233153,1552.742622
4.1700,-50.07778304,77.09503877,1552.172725
4.1750,-50.56673164,77.41767515,1551.595558
4.1800,-51.06172302,77.74074283,1551.010728
4.1850,-51.56370343,78.06242755,1550.418522
4.1900,-52.07137686,78.38428769,1549.81852
4.1950,-52.5835716,78.70472236,1549.21029
4.2000,-53.10141813,79.02382453,1548.594466
4.2050,-53.6237636,79.34311431,1547.970797
4.2100,-54.15060223,79.66123244,1547.339852
4.2150,-54.68297876,79.97811225,1546.70193
4.2200,-55.21890725,80.29307975,1546.057103
4.2250,-55.75868328,80.60602741,1545.405424
4.2300,-56.30309394,80.91791282,1544.747129
4.2350,-56.85039776,81.22764305,1544.081808
4.2400,-57.40025754,81.53562485,1543.409898
4.2450,-57.95340927,81.84221716,1542.731558
4.2500,-58.50987916,82.14593539,1542.046771
4.2550,-59.06875774,82.4490552,1541.356442
4.2600,-59.62991349,82.75117292,1540.660679
4.2650,-60.19390236,83.0528862,1539.959816
4.2700,-60.75959991,83.35503176,1539.254454
4.2750,-61.32579561,83.65617149,1538.545051
4.2800,-61.89294551,83.95683301,1537.830978
4.2850,-62.46243863,84.25652387,1537.113724
4.2900,-63.03424977,84.55660603,1536.39305
4.2950,-63.60813879,84.85634109,1535.669542
4.3000,-64.18369851,85.15580806,1534.943763
4.3050,-64.76141838,85.45530709,1534.214925
4.3100,-65.33968269,85.75524442,1533.482724
4.3150,-65.91871061,86.05679446,1532.747444
4.3200,-66.49780552,86.35899139,1532.008803
4.3250,-67.0753933,86.66347771,1531.266615
4.3300,-67.65218018,86.97048078,1530.521039
4.3350,-68.22733674,87.2800257,1529.771287
4.3400,-68.80147237,87.59292318,1529.017809
4.3450,-69.37448516,87.90904718,1528.260167
4.3500,-69.9460879,88.22895198,1527.499152
4.3550,-70.51752101,88.55218017,1526.734622
4.3600,-71.08923303,88.8794471,1525.966743
4.3650,-71.66122298,89.21012093,1525.195175
4.3700,-72.23352152,89.5444085,1524.419426
4.3750,-72.80683782,89.8829565,1523.64011
4.3800,-73.38044176,90.22599141,1522.856083
4.3850,-73.95290899,90.57374842,1522.067952
4.3900,-74.52474089,90.92791099,1521.275524
4.3950,-75.09432596,91.28849726,1520.478012
4.4000,-75.66331663,91.65458267,1519.675911
4.4050,-76.23104715,92.02654319,1518.868899
4.4100,-76.7971547,92.40366801,1518.056158
4.4150,-77.36312049,92.78682583,1517.237801
4.4200,-77.92735786,93.17609246,1516.413086
4.4250,-78.49006536,93.56966086,1515.582096
4.4300,-79.0497974,93.97059682,1514.743076
4.4350,-79.60665911,94.37844594,1513.897021
4.4400,-80.15915727,94.79325261,1513.041677
4.4450,-80.70834221,95.21570156,1512.176899
4.4500,-81.25151618,95.64663949,1511.302485
4.4550,-81.78882759,96.08569737,1510.418206
4.4600,-82.31952825,96.53181573,1509.522191
4.4650,-82.84297764,96.98590404,1508.614627
4.4700,-83.3607696,97.44751166,1507.694597
4.4750,-83.87243229,97.91505794,1506.762417
4.4800,-84.37976149,98.38897688,1505.817589
4.4850,-84.88250607,98.86931207,1504.859577
4.4900,-85.38191722,99.35453684,1503.888883
4.4950,-85.87721915,99.84515376,1502.904299
4.5000,-86.36823572,100.3410179,1501.905249
4.5050,-86.85658097,100.8406791,1500.892142
4.5100,-87.34060443,101.3470108,1499.864535
4.5150,-87.81970051,101.8585364,1498.821779
4.5200,-88.29444803,102.3767592,1497.763408
4.5250,-88.76351701,102.9010151,1496.68884
4.5300,-89.2272463,103.4306678,1495.597329
4.5350,-89.68666559,103.9654402,1494.489474
4.5400,-90.14223643,104.5043595,1493.365688
4.5450,-90.59287223,105.0464114,1492.22522
4.5500,-91.04008894,105.5911794,1491.068225
4.5550,-91.4825893,106.1396826,1489.89517
4.5600,-91.92065699,106.6915255,1488.705365
4.5650,-92.35423446,107.2460998,1487.499042
4.5700,-92.78457829,107.8026738,1486.276021
4.5750,-93.21246483,108.3619314,1485.035961
4.5800,-93.63742896,108.9233839,1483.779482
4.5850,-94.05963297,109.4877022,1482.506326
4.5900,-94.4792365,110.0548304,1481.217211
4.5950,-94.89607888,110.6251918,1479.911803
4.6000,-95.30970753,111.1982248,1478.590114
4.6050,-95.71938173,111.7726546,1477.252605
4.6100,-96.12605015,112.3485047,1475.900289
4.6150,-96.5293971,112.9247742,1474.533233
4.6200,-96.92960305,113.5022773,1473.151201
4.6250,-97.32860696,114.0786507,1471.754116
4.6300,-97.72331959,114.654335,1470.342082
4.6350,-98.1149822,115.2286236,1468.915876
4.6400,-98.50143909,115.8005669,1467.475329
4.6450,-98.8830131,116.3712593,1466.021392
4.6500,-99.26060343,116.9392242,1464.55364
4.6550,-99.63276663,117.5054324,1463.073201
4.6600,-99.99975996,118.0678739,1461.580373
4.6650,-100.3604857,118.6279847,1460.076311
4.6700,-100.7150711,119.1856439,1458.561293
4.6750,-101.0630474,119.7400789,1457.034327
4.6800,-101.4048925,120.2910607,1455.495633
4.6850,-101.7406062,120.8368577,1453.944747
4.6900,-102.0717579,121.3770923,1452.382894
4.6950,-102.3975454,121.9111258,1450.810325
4.7000,-102.7167007,122.4396396,1449.22714
4.7050,-103.0288245,122.9643693,1447.632832
4.7100,-103.3343388,123.4850095,1446.028622
4.7150,-103.6331466,124.0002525,1444.414152
4.7200,-103.9239355,124.5129574,1442.789029
4.7250,-104.2076578,125.0225042,1441.152944
4.7300,-104.4849331,125.5279153,1439.507297
4.7350,-104.7553515,126.0288945,1437.851425
4.7400,-105.0192273,126.5275117,1436.185696
4.7450,-105.2754475,127.021638,1434.510044
4.7500,-105.5244042,127.5118213,1432.824459
4.7550,-105.7671332,127.9963477,1431.128361
4.7600,-106.003831,128.4775587,1429.422842
4.7650,-106.2344884,128.9553793,1427.707671
4.7700,-106.4578708,129.4305867,1425.982648
4.7750,-106.6734366,129.903632,1424.247001
4.7800,-106.8821654,130.3742147,1422.501639
4.7850,-107.0839611,130.842608,1420.746262
4.7900,-107.2778172,131.3091303,1418.981197
4.7950,-107.4646954,131.7748939,1417.206341
4.8000,-107.6449222,132.2390998,1415.422214
4.8050,-107.8179333,132.7028362,1413.627488
4.8100,-107.9832604,133.1643759,1411.821563
4.8150,-108.1411958,133.6239331,1410.003693
4.8200,-108.2908371,134.0799518,1408.173056
4.8250,-108.4338778,134.5330757,1406.331026
4.8300,-108.568759,134.9847947,1404.477703
4.8350,-108.6941694,135.4351059,1402.613265
4.8400,-108.8096932,135.8850345,1400.737025
4.8450,-108.9150451,136.3351666,1398.849661
4.8500,-109.0081217,136.7863352,1396.950182
4.8550,-109.0916313,137.2365195,1395.038282
4.8600,-109.1649698,137.6866545,1393.114896
4.8650,-109.2286408,138.137746,1391.179501
4.8700,-109.2822752,138.5893181,1389.230944
4.8750,-109.3257892,139.0412377,1387.270131
4.8800,-109.3584554,139.4930722,1385.297067
4.8850,-109.3806193,139.9439494,1383.310864
4.8900,-109.391405,140.3925054,1381.311531
4.8950,-109.3903297,140.8386144,1379.299496
4.9000,-109.3774419,141.2816276,1377.274922
4.9050,-109.3512473,141.7226258,1375.238585
4.9100,-109.3119393,142.1615567,1373.189957
4.9150,-109.2579284,142.5999896,1371.128284
4.9200,-109.1918887,143.0361261,1369.054315
4.9250,-109.1125144,143.4708918,1366.967265
4.9300,-109.0212598,143.9041937,1364.867341
4.9350,-108.918242,144.3360957,1362.754139
4.9400,-108.8059625,144.7658798,1360.627901
4.9450,-108.6840082,145.1928894,1358.487754
4.9500,-108.5529181,145.6164912,1356.333479
4.9550,-108.412788,146.0365716,1354.164172
4.9600,-108.2641461,146.455393,1351.980263
4.9650,-108.1080805,146.8705777,1349.781967
4.9700,-107.9438752,147.2821204,1347.568586
4.9750,-107.7713525,147.689644,1345.342037
4.9800,-107.5900516,148.0943045,1343.101776
4.9850,-107.4004773,148.4984112,1340.848722
4.9900,-107.2035195,148.9016454,1338.582923
4.9950,-107.0011743,149.3035057,1336.303781
5.0000,-106.7930499,149.7044091,1334.010733
5.0050,-106.580088,150.1030022,1331.704695
5.0100,-106.3606651,150.5005089,1329.385718
5.0150,-106.1349005,150.8975968,1327.055117
5.0200,-105.9042243,151.2938069,1324.711991
5.0250,-105.6686817,151.6897498,1322.356957
5.0300,-105.4275437,152.0840947,1319.989975
5.0350,-105.179314,152.4768893,1317.612009
5.0400,-104.9233642,152.8663393,1315.224017
5.0450,-104.661416,153.2519685,1312.826552
5.0500,-104.3925238,153.633473,1310.41987
5.0550,-104.1160341,154.0118191,1308.005274
5.0600,-103.8312078,154.3842154,1305.583124
5.0650,-103.5376195,154.750629,1303.153319
5.0700,-103.2365509,155.1098686,1300.717708
5.0750,-102.9283345,155.4626349,1298.275791
5.0800,-102.612581,155.8091014,1295.828429
5.0850,-102.2890896,156.1497084,1293.375906
5.0900,-101.9567864,156.4850063,1290.917725
5.0950,-101.6157059,156.8146799,1288.455232
5.1000,-101.2635303,157.1387899,1285.989103
5.1050,-100.8983441,157.4559205,1283.519816
5.1100,-100.5203845,157.7670759,1281.04892
5.1150,-100.1283822,158.0710385,1278.577428
5.1200,-99.72281741,158.3678856,1276.105789
5.1250,-99.30338513,158.6564698,1273.63333
5.1300,-98.86954204,158.935963,1271.159426
5.1350,-98.42035005,159.2087612,1268.683832
5.1400,-97.95515094,159.4742405,1266.206987
5.1450,-97.47314565,159.734024,1263.728462
5.1500,-96.97594058,159.9891686,1261.25042
5.1550,-96.46034973,160.2390978,1258.771964
5.1600,-95.9249636,160.4843099,1256.293878
5.1650,-95.36736942,160.725348,1253.817192
5.1700,-94.78595388,160.9624554,1251.34181
5.1750,-94.1793996,161.1968566,1248.867942
5.1800,-93.54793515,161.4294975,1246.395785
5.1850,-92.88979014,161.6604014,1243.925082
5.1900,-92.20433876,161.8914646,1241.45758
5.1950,-91.49180426,162.1220928,1238.99317
5.2000,-90.75224706,162.351962,1236.531672
5.2050,-89.98751592,162.5803663,1234.072887
5.2100,-89.19657127,162.8077581,1231.617288
5.2150,-88.38063601,163.0315009,1229.16598
5.2200,-87.53891922,163.2524064,1226.720202
5.2250,-86.67187149,163.4710251,1224.28112
5.2300,-85.77965603,163.6851122,1221.848633
5.2350,-84.86306182,163.8971453,1219.425344
5.2400,-83.92076821,164.1068737,1217.009427
5.2450,-82.95431297,164.3133169,1214.603158
5.2500,-81.96387645,164.5171524,1212.206995
5.2550,-80.95040617,164.7175802,1209.821185
5.2600,-79.91450678,164.912625,1207.445774
5.2650,-78.85637696,165.1028183,1205.080062
5.2700,-77.77879679,165.2866938,1202.725585
5.2750,-76.68185115,165.4633773,1200.38091
5.2800,-75.56752909,165.6315414,1198.047758
5.2850,-74.4359642,165.7900509,1195.724915
5.2900,-73.28640892,165.9368596,1193.412788
5.2950,-72.11770204,166.0733668,1191.11217
5.3000,-70.93184032,166.1990062,1188.824513
5.3050,-69.72945942,166.3141938,1186.549833
5.3100,-68.51300703,166.4177149,1184.288535
5.3150,-67.2825177,166.5092543,1182.039907
5.3200,-66.03908441,166.5879292,1179.805774
5.3250,-64.78103592,166.6562277,1177.586116
5.3300,-63.50936575,166.7150213,1175.380573
5.3350,-62.22479371,166.765996,1173.189424
5.3400,-60.92887804,166.8071094,1171.011633
5.3450,-59.62172716,166.8408044,1168.848329
5.3500,-58.30505163,166.8645952,1166.698055
5.3550,-56.97990621,166.877325,1164.560925
5.3600,-55.64810356,166.8804009,1162.436275
5.3650,-54.31165268,166.8721036,1160.324191
5.3700,-52.97072418,166.8538704,1158.224306
5.3750,-51.62488925,166.8251258,1156.136952
5.3800,-50.27437558,166.7864863,1154.062549
5.3850,-48.9187971,166.737489,1152.001396
5.3900,-47.55918759,166.6789166,1149.953889
5.3950,-46.19560366,166.6112906,1147.919378
5.4000,-44.82771467,166.5355823,1145.896967
5.4050,-43.45689149,166.4521963,1143.887236
5.4100,-42.08217524,166.3628398,1141.890611
5.4150,-40.70301652,166.2673527,1139.906898
5.4200,-39.31923617,166.1672899,1137.936973
5.4250,-37.92846871,166.0641373,1135.981314
5.4300,-36.53074221,165.9598851,1134.040813
5.4350,-35.12569616,165.8536387,1132.116295
5.4400,-33.71237221,165.7465375,1130.208081
5.4450,-32.29084664,165.6363669,1128.315428
5.4500,-30.85898344,165.5234777,1126.438195
5.4550,-29.41955548,165.4070059,1124.577037
5.4600,-27.97132405,165.285859,1122.731082
5.4650,-26.51572239,165.1604604,1120.900898
5.4700,-25.05343442,165.0294543,1119.086832
5.4750,-23.58494546,164.8919121,1117.289177
5.4800,-22.10919057,164.7473901,1115.507876
5.4850,-20.62709443,164.5962224,1113.744654
5.4900,-19.13781884,164.4366759,1111.997887
5.4950,-17.64122831,164.268953,1110.26782
5.5000,-16.13541839,164.0955269,1108.555524
5.5050,-14.62005763,163.9156745,1106.8609
5.5100,-13.0939001,163.7299382,1105.183621
5.5150,-11.55790748,163.5405134,1103.524762
5.5200,-10.00971822,163.3470458,1101.883033
5.5250,-8.448789392,163.1491382,1100.258447
5.5300,-6.874538508,162.9476794,1098.650635
5.5350,-5.285391639,162.7391354,1097.058025
5.5400,-3.683171421,162.5257976,1095.482693
5.5450,-2.066282752,162.3061379,1093.923053
5.5500,-0.4351932405,162.0796145,1092.378886
5.5550,1.210045823,161.8445858,1090.850295
5.5600,2.867528047,161.6005946,1089.337706
5.5650,4.537334768,161.3477869,1087.840792
5.5700,6.218316193,161.0857505,1086.359267
5.5750,7.909802039,160.8143342,1084.893092
5.5800,9.610225274,160.5325439,1083.44133
5.5850,11.31921821,160.2414354,1082.004614
5.5900,13.03491035,159.9427164,1080.582816
5.5950,14.7555848,159.6367089,1079.175787
5.6000,16.48109742,159.3236054,1077.783027
5.6050,18.2087779,159.0040896,1076.40549
5.6100,19.93988567,158.6768927,1075.041792
5.6150,21.67264358,158.3437424,1073.6935
5.6200,23.4055776,158.0058425,1072.360623
5.6250,25.13589307,157.6608873,1071.042945
5.6300,26.86336332,157.3112203,1069.741423
5.6350,28.58610699,156.9559321,1068.456167
5.6400,30.30365492,156.5987999,1067.188365
5.6450,32.01590466,156.2408018,1065.93809
5.6500,33.72321528,155.8847482,1064.705998
5.6550,35.42533679,155.5325239,1063.492078
5.6600,37.12283213,155.1851867,1062.296367
5.6650,38.81567816,154.8456197,1061.119472
5.6700,40.50482808,154.5125179,1059.960104
5.6750,42.18837655,154.1872623,1058.818546
5.6800,43.86635369,153.8680337,1057.693922
5.6850,45.53804795,153.5560218,1056.586336
5.6900,47.20382109,153.2486188,1055.494637
5.6950,48.86289729,152.9452147,1054.418912
5.7000,50.51453108,152.6450288,1053.359259
5.7050,52.15886764,152.3486499,1052.315313
5.7100,53.7962695,152.0541493,1051.286331
5.7150,55.4261099,151.7623338,1050.272302
5.7200,57.04931515,151.4735334,1049.272719
5.7250,58.66498136,151.1872865,1048.287429
5.7300,60.27395974,150.9033924,1047.316288
5.7350,61.87612107,150.6219632,1046.358981
5.7400,63.47165885,150.3436867,1045.415492
5.7450,65.06203974,150.0693821,1044.48608
5.7500,66.64879265,149.7977193,1043.569719
5.7550,68.23482654,149.5315508,1042.666827
5.7600,69.81996604,149.271147,1041.777387
5.7650,71.40621623,149.0154956,1040.900682
5.7700,72.99429172,148.7664719,1040.037207
5.7750,74.58553549,148.524622,1039.1872
5.7800,76.18149905,148.2900114,1038.350394
5.7850,77.78219162,148.0630485,1037.526686
5.7900,79.3876324,147.843543,1036.716289
5.7950,80.99815502,147.6321418,1035.919511
5.8000,82.61254116,147.4262302,1035.135208
5.8050,84.23044804,147.2268436,1034.363939
5.8100,85.84890384,147.0328547,1033.605951
5.8150,87.47085435,146.8422132,1032.859641
5.8200,89.09277368,146.6543635,1032.125612
5.8250,90.71430209,146.4706236,1031.404161
5.8300,92.33524784,146.2903522,1030.695173
5.8350,93.9544085,146.1149842,1029.999179
5.8400,95.57202011,145.9429103,1029.315564
5.8450,97.18617872,145.7745007,1028.644689
5.8500,98.79695324,145.6099749,1027.98647
5.8550,100.4048949,145.4502919,1027.341002
5.8600,102.0106365,145.2955081,1026.708109
5.8650,103.6125134,145.1452407,1026.088066
5.8700,105.2129743,144.9996426,1025.480359
5.8750,106.809767,144.859603,1024.885631
5.8800,108.4048197,144.7253061,1024.303699
5.8850,109.9965296,144.5951169,1023.734126
5.8900,111.5873634,144.4698733,1023.176912
5.8950,113.1755984,144.3498125,1022.632323
5.9000,114.7630842,144.2354185,1022.100139
5.9050,116.3505033,144.1247795,1021.579485
5.9100,117.9370481,144.020397,1021.071091
5.9150,119.5221824,143.9201827,1020.574024
5.9200,121.1061158,143.8263649,1020.088744
5.9250,122.69015,143.7404057,1019.615428
5.9300,124.272957,143.6612401,1019.153722
5.9350,125.8545077,143.5895661,1018.703423
5.9400,127.4340008,143.5254013,1018.264539
5.9450,129.0121952,143.467604,1017.836308
5.9500,130.587685,143.4153397,1017.418549
5.9550,132.1601441,143.3677538,1017.010822
5.9600,133.7294122,143.3238946,1016.612896
5.9650,135.2955219,143.2826745,1016.224149
5.9700,136.8582102,143.2459987,1015.845141
5.9750,138.419052,143.2133875,1015.475514
5.9800,139.9782995,143.1863022,1015.115636
5.9850,141.5373621,143.1642697,1014.764871
5.9900,143.0952678,143.148904,1014.423954
5.9950,144.6554242,143.1414511,1014.092664
6.0000,146.2164571,143.1413086,1013.771036
6.0050,147.7780602,143.1474969,1013.458936
6.0100,149.3398484,143.1597037,1013.156275
6.0150,150.9034734,143.1784936,1012.863032
6.0200,152.4672035,143.2022003,1012.579248
6.0250,154.0304156,143.2305044,1012.304842
6.0300,155.5911577,143.2626522,1012.03995
6.0350,157.1490503,143.2985206,1011.784514
6.0400,158.7033036,143.3360133,1011.538056
6.0450,160.2517915,143.3759495,1011.300824
6.0500,161.7936953,143.4184484,1011.073275
6.0550,163.3290508,143.4619173,1010.854651
6.0600,164.8583453,143.5050973,1010.644372
6.0650,166.3815863,143.5477259,1010.442251
6.0700,167.8985859,143.5910278,1010.248773
6.0750,169.4108754,143.6347544,1010.063221
6.0800,170.9172377,143.6792406,1009.8857
6.0850,172.4184275,143.7238857,1009.715943
6.0900,173.9156217,143.7680681,1009.553283
6.0950,175.4095936,143.8113729,1009.397283
6.1000,176.902552,143.8555324,1009.248082
6.1050,178.3955103,143.8998694,1009.105214
6.1100,179.8930135,143.944262,1008.967974
6.1150,181.394223,143.9907298,1008.836959
6.1200,182.9017183,144.03991,1008.711924
6.1250,184.416567,144.0916728,1008.592624
6.1300,185.937729,144.1462502,1008.479049
6.1350,187.4654968,144.2048013,1008.37147
6.1400,189.0000319,144.2659727,1008.269197
6.1450,190.5421751,144.3311448,1008.172632
6.1500,192.0905282,144.3988277,1008.081277
6.1550,193.6425743,144.4691337,1007.99529
6.1600,195.1966972,144.5424468,1007.914841
6.1650,196.7519554,144.6176126,1007.839637
6.1700,198.3064725,144.6945004,1007.769594
6.1750,199.8592338,144.7724585,1007.704448
6.1800,201.4083064,144.8513282,1007.644279
6.1850,202.9534931,144.9315986,1007.589166
6.1900,204.4904973,145.0117373,1007.538704
6.1950,206.0194854,145.0917023,1007.492839
6.2000,207.5369132,145.1711461,1007.451591
6.2050,209.040763,145.2497714,1007.414724
6.2100,210.5293811,145.3275814,1007.382163
6.2150,212.0030381,145.4046677,1007.353859
6.2200,213.4609552,145.4796428,1007.329301
6.2250,214.9029798,145.5522439,1007.308267
6.2300,216.3287109,145.6222528,1007.290634
6.2350,217.7387016,145.689247,1007.276127
6.2400,219.1332013,145.7527442,1007.264435
6.2450,220.5123207,145.8118572,1007.255117
6.2500,221.8777703,145.8692018,1007.248764
6.2550,223.229236,145.9232607,1007.244659
6.2600,224.5680792,145.974665,1007.242772
6.2650,225.8957583,146.0232858,1007.242896
6.2700,227.2111295,146.0675118,1007.244505
6.2750,228.5144821,146.1074382,1007.247507
6.2800,229.804995,146.1436083,1007.251977
6.2850,231.0828554,146.1746031,1007.25741
6.2900,232.3479982,146.2003464,1007.263744
6.2950,233.598031,146.220143,1007.270668
6.3000,234.8340802,146.2346173,1007.278295
6.3050,236.054865,146.2441162,1007.286544
6.3100,237.2600199,146.2478901,1007.295146
6.3150,238.4466209,146.245759,1007.303859
6.3200,239.6132527,146.2382116,1007.312689
6.3250,240.7587555,146.2250069,1007.321556
6.3300,241.8824288,146.2066217,1007.330384
6.3350,242.9815045,146.1830851,1007.338982
6.3400,244.0555789,146.1547178,1007.347285
6.3450,245.1032557,146.1207322,1007.355054
6.3500,246.123957,146.0815399,1007.362019
6.3550,247.1156442,146.038317,1007.368608
6.3600,248.0761902,145.9916041,1007.374757
6.3650,249.0042961,145.9413907,1007.380435
6.3700,249.8995985,145.8869936,1007.385153
6.3750,250.7615987,145.8273188,1007.388451
6.3800,251.5898972,145.7620321,1007.390055
6.3850,252.3850722,145.6904167,1007.389605
6.3900,253.1472529,145.6123242,1007.386911
6.3950,253.8750034,145.527276,1007.381748
6.4000,254.5679568,145.4348329,1007.373851
6.4050,255.2271453,145.3358503,1007.363486
6.4100,255.8512929,145.2296305,1007.350203
6.4150,256.4403821,145.1154762,1007.33364
6.4200,256.9940464,144.9932639,1007.313813
6.4250,257.5115395,144.8626271,1007.290399
6.4300,257.9948909,144.7248351,1007.263658
6.4350,258.4435292,144.5803179,1007.23374
6.4400,258.8577101,144.4303686,1007.200834
6.4450,259.2367611,144.2744025,1007.164758
6.4500,259.5813545,144.115306,1007.126324
6.4550,259.891117,143.9518969,1007.085067
6.4600,260.168612,143.7829376,1007.040687
6.4650,260.4123741,143.6096817,1006.993247
6.4700,260.6238636,143.4321441,1006.942857
6.4750,260.8031466,143.2503169,1006.889529
6.4800,260.9510904,143.0649115,1006.833488
6.4850,261.0686333,142.8753971,1006.774478
6.4900,261.1594387,142.6826086,1006.712812
6.4950,261.2237926,142.483649,1006.647506
6.5000,261.2642353,142.2795009,1006.578873
6.5050,261.2852152,142.0702659,1006.507222
6.5100,261.2878389,141.85476,1006.432171
6.5150,261.2725274,141.6339959,1006.354127
6.5200,261.2406186,141.406419,1006.272523
6.5250,261.192859,141.172176,1006.187535
6.5300,261.1303408,140.9312572,1006.099315
6.5350,261.0540739,140.6829569,1006.007619
6.5400,260.9654608,140.4257981,1005.912151
6.5450,260.8645572,140.1624414,1005.813796
6.5500,260.7514603,139.8901021,1005.711737
6.5550,260.6280241,139.6100062,1005.606632
6.5600,260.4920685,139.322791,1005.498648
6.5650,260.3435107,139.0290869,1005.38816
6.5700,260.1825188,138.7299094,1005.275373
6.5750,260.0080373,138.4268394,1005.160828
6.5800,259.8230748,138.1189415,1005.044385
6.5850,259.6254472,137.8081465,1004.926603
6.5900,259.4161173,137.4946176,1004.807652
6.5950,259.1956592,137.1786912,1004.687677
6.6000,258.9634556,136.8608059,1004.56689
6.6050,258.7197417,136.5405987,1004.445267
6.6100,258.4639953,136.2205343,1004.323642
6.6150,258.1979787,135.8992558,1004.201546
6.6200,257.9233641,135.5779309,1004.079529
6.6250,257.6411443,135.2570231,1003.957619
6.6300,257.3519946,134.9358646,1003.83569
6.6350,257.0586642,134.6156776,1003.714231
6.6400,256.7614925,134.295234,1003.592832
6.6450,256.4615439,133.975336,1003.471743
6.6500,256.1585211,133.6561763,1003.351122
6.6550,255.8529242,133.3371902,1003.230743
6.6600,255.5467326,133.019567,1003.111089
6.6650,255.239645,132.7031796,1002.992162
6.6700,254.9318113,132.3874519,1002.873736
6.6750,254.6227087,132.072968,1002.756138
6.6800,254.3115445,131.7604112,1002.639518
6.6850,253.9996311,131.4502958,1002.524006
6.6900,253.6856178,131.1428201,1002.409646
6.6950,253.3707322,130.8390634,1002.296822
6.7000,253.0532707,130.5387029,1002.18542
6.7050,252.7343904,130.2412523,1002.075246
6.7100,252.4118905,129.9486941,1001.9669
6.7150,252.086212,129.6612076,1001.860446
6.7200,251.7573257,129.3795508,1001.756119
6.7250,251.4263782,129.1030932,1001.653669
6.7300,251.09219,128.8325925,1001.553485
6.7350,250.7555145,128.5662066,1001.454828
6.7400,250.4163161,128.3038454,1001.357773
6.7450,250.0748959,128.0443826,1001.261912
6.7500,249.7316849,127.7880294,1001.16744
6.7550,249.3869953,127.5348206,1001.074195
6.7600,249.0405267,127.286288,1000.982652
6.7650,248.6929946,127.0415047,1000.892643
6.7700,248.3433559,126.800288,1000.803986
6.7750,247.991592,126.5636757,1000.716987
6.7800,247.6370527,126.3312504,1000.631435
6.7850,247.2789679,126.1029839,1000.547435
6.7900,246.9159204,125.8780886,1000.464674
6.7950,246.5483731,125.6583645,1000.383749
6.8000,246.1755547,125.4429929,1000.30439
6.8050,245.7948523,125.2327119,1000.226803
6.8100,245.4048934,125.0278431,1000.151189
6.8150,245.0063431,124.8271467,1000.076987
6.8200,244.5961814,124.6315214,1000.004643
6.8250,244.1754511,124.4404633,999.9338923
6.8300,243.7423059,124.2540741,999.864889
6.8350,243.2967337,124.0724579,999.7974966
6.8400,242.8372309,123.8967682,999.7322208
6.8450,242.364291,123.7255842,999.6686574
6.8500,241.8762416,123.5596889,999.6070148
6.8550,241.3723606,123.4008367,999.5477511
6.8600,240.8545394,123.2473937,999.4904674
6.8650,240.3210087,123.1005638,999.4353884
6.8700,239.774114,122.9604154,999.3828132
6.8750,239.2139418,122.8257844,999.3323719
6.8800,238.6391106,122.6970508,999.2840351
6.8850,238.0512573,122.5752785,999.2383166
6.8900,237.4491538,122.4604409,999.1951475
6.8950,236.8323299,122.3519504,999.1543997
6.9000,236.2004875,122.2501198,999.1162469
6.9050,235.5539204,122.1558958,999.0810009
6.9100,234.8935199,122.0669067,999.0479553
6.9150,234.218128,121.9852324,999.018033
6.9200,233.5274451,121.9088409,998.990515
6.9250,232.8213045,121.8386002,998.9658629
6.9300,232.0990722,121.7746533,998.9442525
6.9350,231.3614009,121.7152534,998.9251698
6.9400,230.6060756,121.6617325,998.9091402
6.9450,229.8348485,121.6130328,998.8959612
6.9500,229.0480614,121.5699072,998.8859492
6.9550,228.2465452,121.5309303,998.8785893
6.9600,227.4302666,121.4961456,998.8741801
6.9650,226.6018482,121.4642644,998.8723277
6.9700,225.7627037,121.4353426,998.8731262
6.9750,224.9129239,121.4083877,998.876349
6.9800,224.0565803,121.38312,998.8819833
6.9850,223.1928216,121.3583117,998.8898634
6.9900,222.3232787,121.3343207,998.9001556
6.9950,221.4497298,121.3090217,998.9122015
7.0000,220.5751316,121.2827009,998.9261719
7.0050,219.6990619,121.2541012,998.941711
7.0100,218.8235557,121.2228015,998.958743
7.0150,217.9496745,121.188908,998.9773694
7.0200,217.078464,121.1518507,998.9973149
7.0250,216.2091704,121.1115313,999.0187109
7.0300,215.3428138,121.0676738,999.0415507
7.0350,214.4797403,121.0215971,999.0663535
7.0400,213.6181465,120.9743016,999.0936617
7.0450,212.7574773,120.9266955,999.1238208
7.0500,211.8971088,120.8772289,999.1564265
7.0550,211.0363168,120.8273157,999.1922156
7.0600,210.1740363,120.7762366,999.2310709
7.0650,209.3085363,120.7261036,999.2737832
7.0700,208.4384077,120.6771157,999.3206322
7.0750,207.5636659,120.6292884,999.3716963
7.0800,206.6820943,120.5826237,999.4271704
7.0850,205.7937071,120.538194,999.4874306
7.0900,204.8969776,120.496213,999.5528023
7.0950,203.9913451,120.4575768,999.6236408
7.1000,203.0749753,120.4222768,999.7002933
7.1050,202.1461119,120.3901466,999.7828493
7.1100,201.2042712,120.3618421,999.8714467
7.1150,200.2490703,120.3373684,999.9663138
7.1200,199.281873,120.3178489,1000.067704
7.1250,198.3010585,120.3039725,1000.176069
7.1300,197.3064701,120.294968,1000.291077
7.1350,196.2983922,120.2914287,1000.413056
7.1400,195.2770856,120.2943009,1000.542124
7.1450,194.2408565,120.3038298,1000.678639
7.1500,193.1906145,120.3209532,1000.82283
7.1550,192.1265171,120.3446017,1000.974454
7.1600,191.0468863,120.376636,1001.134086
7.1650,189.9526765,120.4168707,1001.301856
7.1700,188.8426982,120.465373,1001.477796
7.1750,187.7158831,120.5219819,1001.662083
7.1800,186.5729517,120.5885489,1001.855534
7.1850,185.4121473,120.6629806,1002.05757
7.1900,184.2347639,120.7458641,1002.268728
7.1950,183.0395166,120.8373329,1002.489179
7.2000,181.8262752,120.9369414,1002.719104
7.2050,180.595953,121.0440432,1002.958495
7.2100,179.3460869,121.1595471,1003.207861
7.2150,178.0772672,121.2821305,1003.467097
7.2200,176.7896538,121.4130009,1003.736769
7.2250,175.483643,121.5499336,1004.016601
7.2300,174.1607153,121.6932618,1004.306651
7.2350,172.8202748,121.8423954,1004.607087
7.2400,171.4635993,121.9968861,1004.918133
7.2450,170.090798,122.1557235,1005.239536
7.2500,168.7028003,122.3175687,1005.570979
7.2550,167.2997003,122.4823975,1005.912811
7.2600,165.8824488,122.648958,1006.264872
7.2650,164.4506642,122.8168444,1006.627309
7.2700,163.0059903,122.9853909,1007.000069
7.2750,161.5491078,123.1542339,1007.383142
7.2800,160.0807892,123.3237752,1007.776786
7.2850,158.6015252,123.4926087,1008.180655
7.2900,157.1126059,123.6599215,1008.594702
7.2950,155.6126668,123.8265341,1009.019419
7.3000,154.1018186,123.9907986,1009.454484
7.3050,152.5796464,124.1535014,1009.900489
7.3100,151.0476649,124.3141612,1010.357181
7.3150,149.5064881,124.4720624,1010.824524
7.3200,147.9550984,124.6268174,1011.302706
7.3250,146.3947514,124.7790304,1011.79199
7.3300,144.8247723,124.928064,1012.292597
7.3350,143.2453973,125.0738841,1012.804303
7.3400,141.6576011,125.2162202,1013.327464
7.3450,140.0618394,125.3554811,1013.861908
7.3500,138.4573323,125.4929029,1014.408537
7.3550,136.8443963,125.6283082,1014.967158
7.3600,135.2232108,125.7631992,1015.538239
7.3650,133.5950987,125.8972849,1016.121435
7.3700,131.9604373,126.0301564,1016.716724
7.3750,130.3197246,126.1635911,1017.324743
7.3800,128.6740804,126.2979758,1017.945462
7.3850,127.0225416,126.4336954,1018.578692
7.3900,125.3674709,126.5723585,1019.22468
7.3950,123.7078743,126.7141463,1019.883331
7.4000,122.0460615,126.8589833,1020.55429
7.4050,120.3825123,127.0082738,1021.238144
7.4100,118.7182222,127.1613983,1021.934371
7.4150,117.0524634,127.3194887,1022.643589
7.4200,115.3854728,127.4808832,1023.365226
7.4250,113.7166717,127.6457462,1024.099508
7.4300,112.0475833,127.8144583,1024.846088
7.4350,110.3770856,127.9862622,1025.605099
7.4400,108.7051827,128.1604001,1026.376292
7.4450,107.0331792,128.3365502,1027.159175
7.4500,105.3612707,128.5145853,1027.953866
7.4550,103.6900013,128.6950925,1028.760472
7.4600,102.0200218,128.8772811,1029.578812
7.4650,100.3523113,129.0605492,1030.408342
7.4700,98.68694758,129.2452353,1031.249054
7.4750,97.02552353,129.4316186,1032.100804
7.4800,95.3677823,129.6182058,1032.963475
7.4850,93.71504036,129.806113,1033.83726
7.4900,92.06632817,129.9938797,1034.721608
7.4950,90.42495711,130.1829427,1035.616545
7.5000,88.78992039,130.3729512,1036.521924
7.5050,87.16225541,130.5633599,1037.43782
7.5100,85.54325824,130.7539426,1038.364213
7.5150,83.93332618,130.9455108,1039.301004
7.5200,82.33278939,131.1370086,1040.248045
7.5250,80.74312788,131.329446,1041.205116
7.5300,79.16292639,131.5223864,1042.172834
7.5350,77.59266503,131.7160087,1043.151408
7.5400,76.03478774,131.911015,1044.140272
7.5450,74.4871921,132.1081371,1045.140304
7.5500,72.9516927,132.3068883,1046.150805
7.5550,71.42808749,132.5088896,1047.172543
7.5600,69.91767667,132.7138672,1048.20478
7.5650,68.42154274,132.9225012,1049.247571
7.5700,66.93862264,133.1344201,1050.30154
7.5750,65.46979817,133.349861,1051.365909
7.5800,64.01429448,133.5680587,1052.440765
7.5850,62.57261167,133.7892229,1053.525856
7.5900,61.14430862,134.0145314,1054.622048
7.5950,59.73011268,134.2433134,1055.729068
7.6000,58.32965557,134.4759715,1056.846888
7.6050,56.9450392,134.7118091,1057.975426
7.6100,55.57564587,134.9517869,1059.115329
7.6150,54.21913315,135.1942413,1060.266637
7.6200,52.87752839,135.4401945,1061.429386
7.6250,51.5489849,135.6900027,1062.604143
7.6300,50.23445303,135.9438451,1063.789932
7.6350,48.93343384,136.2012624,1064.987906
7.6400,47.6453047,136.4639516,1066.197981
7.6450,46.36913386,136.7319415,1067.420539
7.6500,45.10524556,137.0049999,1068.655315
7.6550,43.85375869,137.2853891,1069.903371
7.6600,42.61402554,137.5729292,1071.164747
7.6650,41.38659295,137.8687568,1072.439397
7.6700,40.17076025,138.1732537,1073.727323
7.6750,38.96492574,138.4872145,1075.029102
7.6800,37.76866201,138.8110941,1076.344593
7.6850,36.58160995,139.1447725,1077.674648
7.6900,35.40227579,139.489046,1079.019283
7.6950,34.23072761,139.8433561,1080.378773
7.7000,33.06435176,140.2067161,1081.753485
7.7050,31.90241489,140.5794567,1083.143159
7.7100,30.74268288,140.9614276,1084.548997
7.7150,29.58514154,141.3518677,1085.970429
7.7200,28.42750939,141.7499727,1087.408233
7.7250,27.26923249,142.1554942,1088.862123
7.7300,26.10876654,142.5666337,1090.33221
7.7350,24.94578262,142.9838234,1091.81994
7.7400,23.77916107,143.4054834,1093.324424
7.7450,22.60914342,143.8305144,1094.846008
7.7500,21.43434044,144.2582532,1096.385056
7.7550,20.25477906,144.6876951,1097.941611
7.7600,19.06920317,145.1184808,1099.51577
7.7650,17.8773222,145.5490469,1101.107741
7.7700,16.67958289,145.9783878,1102.717517
7.7750,15.47549498,146.4064565,1104.345099
7.7800,14.26498953,146.8327902,1105.990338
7.7850,13.04868642,147.257274,1107.653291
7.7900,11.82820259,147.6797981,1109.334155
7.7950,10.60248056,148.0989175,1111.03233
7.8000,9.374065279,148.5144152,1112.748256
7.8050,8.142206559,148.927309,1114.481705
7.8100,6.907725249,149.3368574,1116.232992
7.8150,5.672429775,149.7433797,1118.001373
7.8200,4.436589119,150.1465536,1119.787232
7.8250,3.20178081,150.5466745,1121.589813
7.8300,1.968504871,150.9432917,1123.408505
7.8350,0.7382017203,151.3361923,1125.243727
7.8400,-0.4907152,151.7239286,1127.095184
7.8450,-1.715930281,152.1072448,1128.962136
7.8500,-2.93859539,152.485526,1130.845048
7.8550,-4.15765952,152.8575128,1132.742982
7.8600,-5.373197734,153.2225694,1134.655566
7.8650,-6.586404352,153.5814483,1136.582956
7.8700,-7.796008193,153.9344185,1138.524272
7.8750,-9.001005376,154.2809929,1140.480191
7.8800,-10.2019168,154.6199468,1142.449833
7.8850,-11.39719572,154.9525713,1144.43349
7.8900,-12.58732576,155.2777581,1146.430375
7.8950,-13.77028776,155.5958852,1148.439684
7.9000,-14.94591631,155.9071791,1150.460731
7.9050,-16.11474154,156.2126976,1152.493531
7.9100,-17.27688294,156.5118225,1154.538023
7.9150,-18.43036087,156.8053416,1156.593091
7.9200,-19.57628488,157.0932431,1158.659153
7.9250,-20.71262928,157.3761482,1160.735402
7.9300,-21.83914827,157.6540008,1162.821987
7.9350,-22.95569444,157.9271378,1164.918325
7.9400,-24.06048149,158.1948948,1167.02368
7.9450,-25.15303037,158.4579336,1169.138047
7.9500,-26.23327689,158.7167881,1171.261318
7.9550,-27.30030268,158.9700434,1173.391958
7.9600,-28.35523085,159.2175449,1175.529855
7.9650,-29.39814636,159.4585842,1177.674359
7.9700,-30.42948689,159.6938492,1179.825455
7.9750,-31.44876143,159.9230532,1181.982112
7.9800,-32.45615868,160.1458864,1184.1445
7.9850,-33.45249454,160.3625497,1186.311562
7.9900,-34.43777688,160.5719924,1188.482821
7.9950,-35.41356623,160.7735193,1190.657521
8.0000,-36.37892127,160.9684798,1192.835876
8.0050,-37.33329759,161.1561301,1195.016665
8.0100,-38.27629244,161.3365654,1197.199352
8.0150,-39.20831397,161.5085172,1199.383457
8.0200,-40.12762853,161.6732279,1201.568221
8.0250,-41.03386669,161.8302066,1203.753384
8.0300,-41.92677686,161.9790982,1205.938053
8.0350,-42.80719433,162.1204743,1208.121706
8.0400,-43.6745477,162.254376,1210.304942
8.0450,-44.5306433,162.3808235,1212.486581
8.0500,-45.37374471,162.5004057,1214.666813
8.0550,-46.20374891,162.6126402,1216.84454
8.0600,-47.01905537,162.7182706,1219.020317
8.0650,-47.82054145,162.8165588,1221.19425
8.0700,-48.60812833,162.9080377,1223.365405
8.0750,-49.38098166,162.9913724,1225.53372
8.0800,-50.13949104,163.0655426,1227.698328
8.0850,-50.88365371,163.1306507,1229.859498
8.0900,-51.61489712,163.1863379,1232.017414
8.0950,-52.33296999,163.2327843,1234.1728
8.1000,-53.03813224,163.269836,1236.323806
8.1050,-53.73067663,163.2970255,1238.470629
8.1100,-54.40925842,163.3146955,1240.612198
8.1150,-55.07601235,163.3233416,1242.749761
8.1200,-55.73005657,163.3230873,1244.882693
8.1250,-56.37248644,163.31257,1247.011763
8.1300,-57.0029329,163.2921495,1249.136197
8.1350,-57.62232607,163.2628522,1251.256029
8.1400,-58.22984212,163.2242948,1253.370857
8.1450,-58.82545537,163.1768549,1255.481675
8.1500,-59.40874085,163.1216058,1257.587626
8.1550,-59.97920046,163.058927,1259.688705
8.1600,-60.53699826,162.9884021,1261.785178
8.1650,-61.08120729,162.90933,1263.876573
8.1700,-61.61177123,162.8232125,1265.963625
8.1750,-62.12810224,162.7309736,1268.045818
8.1800,-62.63001014,162.6326589,1270.123278
8.1850,-63.11830774,162.5271325,1272.195255
8.1900,-63.59133643,162.4150415,1274.26082
8.1950,-64.05138731,162.2958586,1276.320425
8.2000,-64.49827787,162.1691809,1278.374837
8.2050,-64.93321418,162.0336737,1280.423272
8.2100,-65.35555032,161.8902921,1282.464333
8.2150,-65.76783538,161.7383636,1284.498674
8.2200,-66.17076318,161.5775547,1286.525982
8.2250,-66.56472441,161.406651,1288.546385
8.2300,-66.94975803,161.2271073,1290.559896
8.2350,-67.32640425,161.0392152,1292.566371
8.2400,-67.69637004,160.8444941,1294.565919
8.2450,-68.05835429,160.6437695,1296.558654
8.2500,-68.41302417,160.4384388,1298.544679
8.2550,-68.76032858,160.2282983,1300.523851
8.2600,-69.09928652,160.0140457,1302.495518
8.2650,-69.43029894,159.7961618,1304.460614
8.2700,-69.75274057,159.5750936,1306.418465
8.2750,-70.06673946,159.3505696,1308.369081
8.2800,-70.37317656,159.1239075,1310.312637
8.2850,-70.67101834,158.8963711,1312.24874
8.2900,-70.96025589,158.6676413,1314.178717
8.2950,-71.23923424,158.4383374,1316.101376
8.3000,-71.50791132,158.2087799,1318.017415
8.3050,-71.76572701,157.9791952,1319.926279
8.3100,-72.01078796,157.7501401,1321.827488
8.3150,-72.24513765,157.5207702,1323.721099
8.3200,-72.47006645,157.2909623,1325.606876
8.3250,-72.68674126,157.0603244,1327.486035
8.3300,-72.89533276,156.829543,1329.359069
8.3350,-73.09669606,156.5983146,1331.224851
8.3400,-73.29063912,156.3662612,1333.083019
8.3450,-73.47713931,156.1346567,1334.934805
8.3500,-73.65732807,155.9032572,1336.77982
8.3550,-73.83176781,155.6729347,1338.619059
8.3600,-74.00020078,155.4434794,1340.451068
8.3650,-74.16326343,155.2166909,1342.27605
8.3700,-74.31958918,154.9939073,1344.094814
8.3750,-74.46853405,154.7760163,1345.908079
8.3800,-74.60899973,154.5638067,1347.715861
8.3850,-74.74170935,154.3575832,1349.517766
8.3900,-74.86413384,154.1576165,1351.313463
8.3950,-74.97671822,153.9639225,1353.103003
8.4000,-75.07889945,153.7772777,1354.887354
8.4050,-75.17066292,153.5969714,1356.666194
8.4100,-75.2518385,153.4221876,1358.439858
8.4150,-75.32135297,153.2510281,1360.206495
8.4200,-75.38118995,153.0831115,1361.96698
8.4250,-75.43188115,152.9180456,1363.72139
8.4300,-75.47382408,152.754777,1365.470235
8.4350,-75.50742387,152.5918409,1367.212388
8.4400,-75.53223603,152.4299503,1368.94863
8.4450,-75.54890722,152.2689554,1370.678874
8.4500,-75.55678647,152.1075169,1372.404221
8.4550,-75.55626352,151.9446401,1374.123961
8.4600,-75.54575066,151.7820854,1375.838179
8.4650,-75.52562545,151.6192835,1377.546968
8.4700,-75.49733598,151.4543034,1379.249419
8.4750,-75.46245372,151.2853683,1380.945689
8.4800,-75.42074111,151.1128983,1382.63614
8.4850,-75.3735198,150.9361107,1384.321842
8.4900,-75.32239789,150.7529627,1386.002978
8.4950,-75.26713659,150.5643951,1387.679526
8.5000,-75.20928755,150.3705126,1389.351374
8.5050,-75.14768611,150.1719427,1391.017952
8.5100,-75.08314781,149.9682178,1392.681017
8.5150,-75.01372416,149.7601056,1394.339356
8.5200,-74.93762483,149.5485941,1395.992985
8.5250,-74.85591306,149.33469,1397.641804
8.5300,-74.76965414,149.1165889,1399.286012
8.5350,-74.67703713,148.8946598,1400.925279
8.5400,-74.57820788,148.6677981,1402.559378
8.5450,-74.47479911,148.4341315,1404.187728
8.5500,-74.36685814,148.1939051,1405.810179
8.5550,-74.25538707,147.9476735,1407.427176
8.5600,-74.13971509,147.6948665,1409.039419
8.5650,-74.01978987,147.4365299,1410.646098
8.5700,-73.89675023,147.172505,1412.247875
8.5750,-73.76987093,146.9018244,1413.843861
8.5800,-73.6385981,146.6257394,1415.433466
8.5850,-73.50270154,146.3424748,1417.016737
8.5900,-73.36285269,146.0522574,1418.592825
8.5950,-73.21927565,145.7542645,1420.161632
8.6000,-73.07385969,145.4488336,1421.72236
8.6050,-72.92672098,145.1358883,1423.274712
8.6100,-72.78134745,144.8143628,1424.818959
8.6150,-72.63333414,144.4863562,1426.354794
8.6200,-72.48292423,144.1515307,1427.88206
8.6250,-72.3314871,143.8100496,1429.399448
8.6300,-72.17871904,143.4629686,1430.907551
8.6350,-72.0252742,143.1095541,1432.405704
8.6400,-71.8714281,142.7528418,1433.894827
8.6450,-71.71699112,142.3916053,1435.373295
8.6500,-71.56123059,142.0284045,1436.841049
8.6550,-71.40472001,141.6634553,1438.297634
8.6600,-71.24720914,141.2984003,1439.744054
8.6650,-71.08650295,140.9335527,1441.17858
8.6700,-70.92385717,140.5688805,1442.601369
8.6750,-70.75960034,140.2057876,1444.012457
8.6800,-70.59340729,139.8464233,1445.41202
8.6850,-70.42315689,139.48967,1446.79903
8.6900,-70.24902172,139.1373914,1448.174152
8.6950,-70.07005009,138.7899067,1449.535626
8.7000,-69.88561975,138.4463948,1450.88406
8.7050,-69.69516379,138.1071235,1452.218786
8.7100,-69.49871083,137.7735235,1453.540134
8.7150,-69.29721614,137.4444922,1454.848121
8.7200,-69.08858951,137.1203657,1456.142209
8.7250,-68.87397593,136.8005396,1457.421921
8.7300,-68.65220611,136.4853316,1458.687044
8.7350,-68.42436885,136.1744949,1459.937614
8.7400,-68.18955337,135.8683886,1461.173519
8.7450,-67.9475897,135.5649176,1462.393133
8.7500,-67.70083534,135.2623037,1463.596837
8.7550,-67.44946097,134.9613839,1464.784777
8.7600,-67.19588492,134.659385,1465.957919
8.7650,-66.94129419,134.3563709,1467.116695
8.7700,-66.68446168,134.0519828,1468.260919
8.7750,-66.42574642,133.7469757,1469.391678
8.7800,-66.16498161,133.4416085,1470.508131
8.7850,-65.90144116,133.1375084,1471.611087
8.7900,-65.63458507,132.8358787,1472.700457
8.7950,-65.36340563,132.5358237,1473.776525
8.8000,-65.08573915,132.2376068,1474.838515
8.8050,-64.80267947,131.9410118,1475.88746
8.8100,-64.51348253,131.6450612,1476.922812
8.8150,-64.21700617,131.3513431,1477.944589
8.8200,-63.91504767,131.0590719,1478.952752
8.8250,-63.60692803,130.7677535,1479.947483
8.8300,-63.29150458,130.4781751,1480.928794
8.8350,-62.9699415,130.1904471,1481.896435
8.8400,-62.64194436,129.9048036,1482.850408
8.8450,-62.30751143,129.621595,1483.791124
8.8500,-61.9673405,129.3416548,1484.717913
8.8550,-61.6209408,129.0640215,1485.632051
8.8600,-61.26927486,128.7902151,1486.533067
8.8650,-60.913473,128.5197555,1487.421323
8.8700,-60.55380548,128.2523495,1488.297236
8.8750,-60.1919784,127.9879949,1489.161191
8.8800,-59.8276934,127.7263554,1490.013472
8.8850,-59.46221182,127.4677432,1490.854757
8.8900,-59.09604714,127.2138358,1491.685624
8.8950,-58.72952502,126.9643121,1492.506639
8.9000,-58.36187836,126.7190363,1493.3181
8.9050,-57.9919734,126.478094,1494.120402
8.9100,-57.61953693,126.2423821,1494.914245
8.9150,-57.24742155,126.0118785,1495.699933
8.9200,-56.87550239,125.7868044,1496.477599
8.9250,-56.50166501,125.5664184,1497.248112
8.9300,-56.12573844,125.3517479,1498.011088
8.9350,-55.74673167,125.1437547,1498.767891
8.9400,-55.36340637,124.9407381,1499.51808
8.9450,-54.9743581,124.744065,1500.263688
8.9500,-54.57953636,124.5517625,1501.003586
8.9550,-54.17660716,124.3640903,1501.73851
8.9600,-53.76527999,124.1805079,1502.467921
8.9650,-53.34490502,124.000621,1503.193531
8.9700,-52.91597777,123.8229008,1503.914766
8.9750,-52.47828318,123.6458681,1504.631284
8.9800,-52.03098073,123.467473,1505.343719
8.9850,-51.57499735,123.2888672,1506.052435
8.9900,-51.11016724,123.1089388,1506.757048
8.9950,-50.63576156,122.9262584,1507.458083
9.0000,-50.15151063,122.740484,1508.154654
9.0050,-49.65672135,122.5509607,1508.84706
9.0100,-49.15094836,122.3562469,1509.535436
9.0150,-48.6336705,122.1557052,1510.219482
9.0200,-48.10496882,121.9485095,1510.89929
9.0250,-47.56136179,121.7348422,1511.574262
9.0300,-47.00291993,121.5123782,1512.244678
9.0350,-46.42944587,121.2810156,1512.909776
9.0400,-45.84082626,121.0390853,1513.570219
9.0450,-45.23924925,120.7854062,1514.226211
9.0500,-44.6236309,120.5215351,1514.878198
9.0550,-43.99548155,120.2452454,1515.526098
9.0600,-43.35501788,119.9568719,1516.16972
9.0650,-42.70198764,119.6566522,1516.809699
9.0700,-42.03745201,119.3443047,1517.445851
9.0750,-41.36223277,119.0196703,1518.078066
9.0800,-40.67866544,118.6823694,1518.706931
9.0850,-39.98799449,118.3322351,1519.332054
9.0900,-39.291267,117.9698434,1519.953828
9.0950,-38.59108395,117.5961569,1520.573383
9.1000,-37.88985809,117.2116587,1521.191535
9.1050,-37.18857913,116.818077,1521.808589
9.1100,-36.49017954,116.4176066,1522.4241
9.1150,-35.7959493,116.0104324,1523.038771
9.1200,-35.10640831,115.5999045,1523.652986
9.1250,-34.42350515,115.1883027,1524.266928
9.1300,-33.74875045,114.7768972,1524.880005
9.1350,-33.08207563,114.3691871,1525.493007
9.1400,-32.4238268,113.9673255,1526.105345
9.1450,-31.77424492,113.5737596,1526.716773
9.1500,-31.1331215,113.1889882,1527.327161
9.1550,-30.50152639,112.816884,1527.935253
9.1600,-29.87974306,112.4583912,1528.542138
9.1650,-29.26827342,112.1143291,1529.146361
9.1700,-28.66548147,111.7866873,1529.746943
9.1750,-28.07055407,111.4764496,1530.344116
9.1800,-27.48300628,111.1831452,1530.936884
9.1850,-26.90228237,110.9084176,1531.52484
9.1900,-26.32985817,110.6508803,1532.107485
9.1950,-25.76428245,110.4108021,1532.684142
9.2000,-25.2067702,110.1892207,1533.255053
9.2050,-24.65780697,109.9847584,1533.820223
9.2100,-24.1174736,109.796727,1534.378294
9.2150,-23.58492889,109.6238063,1534.929214
9.2200,-23.06026943,109.4660373,1535.473504
9.2250,-22.54410671,109.3231944,1536.010855
9.2300,-22.03877514,109.1923605,1536.541574
9.2350,-21.54445909,109.07258,1537.065482
9.2400,-21.06327039,108.9625668,1537.582575
9.2450,-20.59581736,108.8603927,1538.092423
9.2500,-20.14178125,108.7658343,1538.596134
9.2550,-19.70137621,108.6789891,1539.093079
9.2600,-19.27392876,108.5988489,1539.58383
9.2650,-18.85903923,108.5246057,1540.067502
9.2700,-18.45458535,108.4559859,1540.544408
9.2750,-18.06002886,108.3929648,1541.014697
9.2800,-17.67632043,108.3348537,1541.477938
9.2850,-17.3015461,108.2805276,1541.934633
9.2900,-16.93566745,108.2284785,1542.384868
9.2950,-16.57812792,108.1801379,1542.829223
9.3000,-16.22878334,108.1344001,1543.268346
9.3050,-15.88567044,108.0921507,1543.701935
9.3100,-15.5490518,108.0537661,1544.130845
9.3150,-15.21706347,108.0189843,1544.555379
9.3200,-14.88988996,107.9882909,1544.975158
9.3250,-14.56900138,107.9624816,1545.39184
9.3300,-14.25468509,107.9419882,1545.806111
9.3350,-13.94680349,107.9267571,1546.218807
9.3400,-13.64634718,107.9172226,1546.630444
9.3450,-13.3511728,107.9143865,1547.042181
9.3500,-13.0623601,107.918006,1547.454356
9.3550,-12.77852835,107.9299716,1547.868084
9.3600,-12.49908046,107.9507499,1548.284294
9.3650,-12.22422768,107.9800296,1548.702834
9.3700,-11.95448549,108.0197563,1549.126504
9.3750,-11.69046747,108.0686518,1549.555049
9.3800,-11.43253337,108.1270259,1549.990237
9.3850,-11.17934888,108.1943953,1550.431859
9.3900,-10.93229498,108.2712449,1550.881688
9.3950,-10.68974701,108.3571439,1551.337967
9.4000,-10.45129568,108.4514794,1551.800573
9.4050,-10.21485098,108.5551603,1552.268829
9.4100,-9.980462534,108.6668297,1552.742926
9.4150,-9.748444946,108.7868225,1553.222674
9.4200,-9.517987081,108.9135521,1553.707128
9.4250,-9.287422855,109.0461472,1554.19494
9.4300,-9.056531208,109.1855605,1554.686336
9.4350,-8.825764675,109.3282368,1555.180191
9.4400,-8.594353325,109.474138,1555.675806
9.4450,-8.361926799,109.6231914,1556.172254
9.4500,-8.128798303,109.7746506,1556.668888
9.4550,-7.895335176,109.9260607,1557.164637
9.4600,-7.661327994,110.0770448,1557.657995
9.4650,-7.426891298,110.2260739,1558.149148
9.4700,-7.193360523,110.3719063,1558.637092
9.4750,-6.961822813,110.5138063,1559.119912
9.4800,-6.734075973,110.6514348,1559.597662
9.4850,-6.510005928,110.7840863,1560.068708
9.4900,-6.287902473,110.9105842,1560.5316
9.4950,-6.069865803,111.0313997,1560.986229
9.5000,-5.855900844,111.1449435,1561.431633
9.5050,-5.646245193,111.2515017,1561.867067
9.5100,-5.44118178,111.3502216,1562.291651
9.5150,-5.241883029,111.4415244,1562.70536
9.5200,-5.049142982,111.5254957,1563.107279
9.5250,-4.861874629,111.6020286,1563.496199
9.5300,-4.680266556,111.6718306,1563.871617
9.5350,-4.503136316,111.7342998,1564.232294
9.5400,-4.330586244,111.7910151,1564.577962
9.5450,-4.163248761,111.8424507,1564.90822
9.5500,-4.001970055,111.888559,1565.221834
9.5550,-3.846942822,111.9307228,1565.51962
9.5600,-3.698682182,111.9681424,1565.80023
9.5650,-3.558526333,112.0028291,1566.064827
9.5700,-3.426670461,112.0347937,1566.312247
9.5750,-3.303112784,112.065289,1566.542421
9.5800,-3.18628794,112.0953825,1566.754421
9.5850,-3.07726299,112.1252467,1566.948391
9.5900,-2.976675555,112.1565793,1567.124673
9.5950,-2.883581881,112.1887398,1567.282281
9.6000,-2.798697157,112.223728,1567.421561
9.6050,-2.723052071,112.2606424,1567.542664
9.6100,-2.656147141,112.2998101,1567.64459
9.6150,-2.598539873,112.3423398,1567.727849
9.6200,-2.550573249,112.3876164,1567.792918
9.6250,-2.511946285,112.4355423,1567.839686
9.6300,-2.481932269,112.4867427,1567.867384
9.6350,-2.460470882,112.542243,1567.876712
9.6400,-2.447332082,112.6022456,1567.867941
9.6450,-2.442389235,112.6664933,1567.84107
9.6500,-2.445861993,112.7352996,1567.796215
9.6550,-2.458446354,112.8084791,1567.7342
9.6600,-2.480176024,112.8863775,1567.65578
9.6650,-2.511944345,112.968339,1567.561084
9.6700,-2.553365124,113.0541919,1567.450216
9.6750,-2.60466821,113.1449243,1567.324273
9.6800,-2.664231369,113.2404823,1567.182588
9.6850,-2.733388925,113.3413431,1567.026592
9.6900,-2.812068109,113.4470546,1566.855655
9.6950,-2.900970581,113.556579,1566.671227
9.7000,-2.999188695,113.6715454,1566.474039
9.7050,-3.109042654,113.7892893,1566.264306
9.7100,-3.229478264,113.9115158,1566.04277
9.7150,-3.359928749,114.0373203,1565.809403
9.7200,-3.501521346,114.1661736,1565.565031
9.7250,-3.65438907,114.2984285,1565.31006
9.7300,-3.819309577,114.4329721,1565.045094
9.7350,-3.9951649,114.5717696,1564.770332
9.7400,-4.181820963,114.7140854,1564.48623
9.7450,-4.379923672,114.8590634,1564.193323
9.7500,-4.587659699,115.0076266,1563.891734
9.7550,-4.80540468,115.1598339,1563.582893
9.7600,-5.033706357,115.3152278,1563.266187
9.7650,-5.273106383,115.4742342,1562.942668
9.7700,-5.523403868,115.6376602,1562.612635
9.7750,-5.783859548,115.8061524,1562.277452
9.7800,-6.054712626,115.9797811,1561.937565
9.7850,-6.336394837,116.1579407,1561.59424
9.7900,-6.629917669,116.3407869,1561.24767
9.7950,-6.933660754,116.5288082,1560.898535
9.8000,-7.247011239,116.7218066,1560.546083
9.8050,-7.57043617,116.9203095,1560.190955
9.8100,-7.904720063,117.1231419,1559.833584
9.8150,-8.249301051,117.3313256,1559.474589
9.8200,-8.603547171,117.5434575,1559.113591
9.8250,-8.968860126,117.760555,1558.751142
9.8300,-9.343870022,117.9820533,1558.386251
9.8350,-9.729439589,118.2076325,1558.019051
9.8400,-10.12445611,118.4376315,1557.649452
9.8450,-10.52794341,118.6713063,1557.276142
9.8500,-10.94023448,118.9088835,1556.900082
9.8550,-11.36129992,119.1494398,1556.520229
9.8600,-11.7898688,119.3944931,1556.136716
9.8650,-12.22583319,119.6429261,1555.748548
9.8700,-12.66841345,119.8958278,1555.35643
9.8750,-13.11758815,120.1524055,1554.958864
9.8800,-13.5742199,120.4119764,1554.557073
9.8850,-14.0369133,120.6761812,1554.149609
9.8900,-14.50649489,120.9428785,1553.735722
9.8950,-14.98309772,121.2127728,1553.315578
9.9000,-15.46610594,121.4857644,1552.88852
9.9050,-15.95599765,121.7605946,1552.454569
9.9100,-16.45178879,122.0376598,1552.013269
9.9150,-16.95370403,122.316704,1551.564338
9.9200,-17.4621244,122.5984676,1551.108632
9.9250,-17.9755505,122.8824614,1550.644887
9.9300,-18.49430967,123.1679898,1550.173777
9.9350,-19.01654107,123.454641,1549.694836
9.9400,-19.54197212,123.7414297,1549.207432
9.9450,-20.07138937,124.0289296,1548.711624
9.9500,-20.60403171,124.3165994,1548.207907
9.9550,-21.13970931,124.6039406,1547.695922
9.9600,-21.67926881,124.8900966,1547.175688
9.9650,-22.22171414,125.1766291,1546.64786
9.9700,-22.76702808,125.4616122,1546.111318
9.9750,-23.31399463,125.7450383,1545.565926
9.9800,-23.86498156,126.0256952,1545.011806
9.9850,-24.41890797,126.3035041,1544.448657
9.9900,-24.97489089,126.5784722,1543.87672
9.9950,-25.53236416,126.8525169,1543.295339
10.0000,-26.09063195,127.1243339,1542.70478
10.0050,-26.65029186,127.3942825,1542.105451
10.0100,-27.21019042,127.6604774,1541.496832
10.0150,-27.77065034,127.9240688,1540.879576
10.0200,-28.3306954,128.1858574,1540.252442
10.0250,-28.89192463,128.4449627,1539.616578
10.0300,-29.45323675,128.7021534,1538.97164
10.0350,-30.01621177,128.9560901,1538.317344
10.0400,-30.58259236,129.2076281,1537.654492
10.0450,-31.15151208,129.4571287,1536.982611
10.0500,-31.72410647,129.70419,1536.301256
10.0550,-32.29984261,129.9489318,1535.61039
10.0600,-32.87774661,130.1919128,1534.910464
10.0650,-33.45721983,130.4340789,1534.201277
10.0700,-34.03859852,130.6754146,1533.483563
10.0750,-34.62202327,130.9161468,1532.757067
10.0800,-35.2058896,131.1565156,1532.021427
10.0850,-35.78960975,131.3979323,1531.276161
10.0900,-36.37239967,131.6408624,1530.521533
10.0950,-36.95587714,131.8846045,1529.757451
10.1000,-37.54026603,132.1294975,1528.984717
10.1050,-38.12577148,132.3772244,1528.203507
10.1100,-38.71114439,132.6282212,1527.413239
10.1150,-39.29573195,132.8815384,1526.613573
10.1200,-39.87950664,133.1372223,1525.80408
10.1250,-40.46285423,133.3945203,1524.984704
10.1300,-41.04499131,133.6546774,1524.155576
10.1350,-41.62510944,133.9180158,1523.31649
10.1400,-42.20397145,134.1834528,1522.466865
10.1450,-42.78250004,134.4504951,1521.60724
10.1500,-43.35945166,134.7190646,1520.737424
10.1550,-43.93449017,134.9884148,1519.856481
10.1600,-44.50797339,135.2585995,1518.964436
10.1650,-45.07883237,135.5293513,1518.061248
10.1700,-45.6488424,135.8006275,1517.147092
10.1750,-46.21748376,136.0727144,1516.222084
10.1800,-46.78477493,136.3461744,1515.286061
10.1850,-47.35183594,136.6196467,1514.339773
10.1900,-47.91705507,136.8947161,1513.382894
10.1950,-48.48148618,137.1711305,1512.415245
10.2000,-49.04475019,137.4478661,1511.437149
10.2050,-49.60750625,137.7264562,1510.44802
10.2100,-50.17039521,138.0057474,1509.448262
10.2150,-50.73301933,138.2858629,1508.438077
10.2200,-51.29441317,138.5674648,1507.41655
10.2250,-51.85563658,138.8495927,1506.384695
10.2300,-52.41688819,139.1348202,1505.341756
10.2350,-52.97935804,139.4214461,1504.287645
10.2400,-53.54386854,139.7112207,1503.22335
10.2450,-54.11027916,140.0033706,1502.148886
10.2500,-54.67736019,140.2979024,1501.063683
10.2550,-55.2436551,140.5949417,1499.967385
10.2600,-55.8085979,140.893843,1498.858815
10.2650,-56.37192552,141.195506,1497.738012
10.2700,-56.93519556,141.4987349,1496.605277
10.2750,-57.49822505,141.803065,1495.460156
10.2800,-58.06041149,142.1102389,1494.302538
10.2850,-58.62148668,142.4187965,1493.131986
10.2900,-59.18219119,142.7286572,1491.948301
10.2950,-59.7430461,143.038611,1490.751372
10.3000,-60.30470907,143.3484094,1489.540936
10.3050,-60.86540932,143.6595661,1488.317319
10.3100,-61.42742906,143.9734106,1487.08043
10.3150,-61.99102269,144.2891267,1485.830136
10.3200,-62.55669521,144.6072524,1484.567193
10.3250,-63.12235769,144.9292371,1483.291157
10.3300,-63.68802677,145.2542936,1482.000999
10.3350,-64.25417937,145.5832985,1480.697716
10.3400,-64.8194638,145.9154246,1479.379771
10.3450,-65.38500221,146.2498543,1478.047603
10.3500,-65.95045308,146.589165,1476.702135
10.3550,-66.5159967,146.9320196,1475.342835
10.3600,-67.08191453,147.2788217,1473.970052
10.3650,-67.64722207,147.6299321,1472.583309
10.3700,-68.21243488,147.9848978,1471.182875
10.3750,-68.77732996,148.3443392,1469.768352
10.3800,-69.34155207,148.7087248,1468.340988
10.3850,-69.90499237,149.0772455,1466.900918
10.3900,-70.46753382,149.4507955,1465.448503
10.3950,-71.02788823,149.8295436,1463.983576
10.4000,-71.58682742,150.2129713,1462.506251
10.4050,-72.14440167,150.599417,1461.017175
10.4100,-72.70033158,150.9897937,1459.51776
10.4150,-73.25487818,151.3836567,1458.006944
10.4200,-73.80744936,151.7819754,1456.486403
10.4250,-74.3573884,152.1837746,1454.956307
10.4300,-74.9052534,152.5894185,1453.418352
10.4350,-75.45216605,152.9976754,1451.872722
10.4400,-75.99680861,153.4093309,1450.32018
10.4450,-76.53756201,153.8259839,1448.761288
10.4500,-77.07377169,154.2476375,1447.195179
10.4550,-77.60576429,154.6746586,1445.624052
10.4600,-78.13407539,155.1067056,1444.046799
10.4650,-78.65698554,155.5446789,1442.46274
10.4700,-79.17397846,155.988104,1440.87212
10.4750,-79.68517184,156.4360768,1439.274966
10.4800,-80.18947592,156.8876141,1437.670223
10.4850,-80.68673784,157.3428993,1436.058092
10.4900,-81.17724339,157.8004468,1434.439437
10.4950,-81.65938232,158.2592221,1432.814228
10.5000,-82.1325641,158.7195681,1431.181977
10.5050,-82.595413,159.181586,1429.542425
10.5100,-83.04874189,159.6457074,1427.894707
10.5150,-83.49309712,160.1119633,1426.238512
10.5200,-83.92731177,160.577433,1424.573069
10.5250,-84.35178988,161.0427937,1422.897421
10.5300,-84.76539634,161.5076417,1421.211831
10.5350,-85.16790703,161.9728408,1419.515833
10.5400,-85.55870389,162.4364606,1417.807953
10.5450,-85.93711981,162.8990717,1416.088844
10.5500,-86.30466405,163.3603391,1414.356837
10.5550,-86.66288736,163.818887,1412.611499
10.5600,-87.01160287,164.2751432,1410.85356
10.5650,-87.35123758,164.7275803,1409.082291
10.5700,-87.67991448,165.17729,1407.297792
10.5750,-87.99680219,165.6248499,1405.498707
10.5800,-88.30133458,166.0692936,1403.685578
10.5850,-88.59439149,166.5117138,1401.857533
10.5900,-88.87537547,166.9519334,1400.014336
10.5950,-89.14271106,167.3914377,1398.155798
10.6000,-89.39558766,167.829771,1396.280088
10.6050,-89.63402387,168.2667887,1394.38737
10.6100,-89.85713583,168.7010942,1392.477007
10.6150,-90.06495082,169.1325794,1390.548466
10.6200,-90.25642401,169.5607811,1388.602621
10.6250,-90.43264273,169.9858237,1386.637929
10.6300,-90.59434292,170.405992,1384.654816
10.6350,-90.74149846,170.8207829,1382.653607
10.6400,-90.87348322,171.2299253,1380.634452
10.6450,-90.98906729,171.6327213,1378.597244
10.6500,-91.08897832,172.0261883,1376.542136
10.6550,-91.17274298,172.4118464,1374.468982
10.6600,-91.24084662,172.788558,1372.377195
10.6650,-91.29397072,173.1551181,1370.267547
10.6700,-91.33122401,173.5118727,1368.139103
10.6750,-91.35282388,173.8593081,1365.993247
10.6800,-91.3583355,174.196848,1363.829017
10.6850,-91.34800617,174.5232648,1361.646696
10.6900,-91.32332378,174.8371963,1359.447655
10.6950,-91.28325015,175.1394853,1357.232184
10.7000,-91.22875236,175.4307013,1355.000852
10.7050,-91.1568054,175.712423,1352.75234
10.7100,-91.068396,175.9843438,1350.486535
10.7150,-90.96358834,176.2452381,1348.204305
10.7200,-90.84266782,176.4959158,1345.904625
10.7250,-90.70554635,176.7374237,1343.586966
10.7300,-90.55222265,176.9684767,1341.250997
10.7350,-90.38128295,177.1900014,1338.897454
10.7400,-90.19346561,177.4016386,1336.526261
10.7450,-89.98890794,177.6038761,1334.136984
10.7500,-89.76949942,177.7963194,1331.731144
10.7550,-89.53437585,177.9795116,1329.307525
10.7600,-89.28435489,178.1533498,1326.868824
10.7650,-89.02108307,178.3180721,1324.415723
10.7700,-88.74337533,178.4734989,1321.947676
10.7750,-88.45204068,178.6196588,1319.464717
10.7800,-88.14669413,178.7579164,1316.967612
10.7850,-87.82526858,178.8888046,1314.455718
10.7900,-87.48864508,179.0132049,1311.928959
10.7950,-87.1375977,179.130621,1309.386723
10.8000,-86.77302364,179.2408554,1306.829627
10.8050,-86.39453721,179.3428817,1304.258175
10.8100,-86.00157847,179.4361443,1301.674599
10.8150,-85.59284824,179.5213287,1299.080436
10.8200,-85.17025975,179.5981927,1296.477054
10.8250,-84.73402685,179.6678341,1293.865818
10.8300,-84.28552398,179.7294075,1291.248109
10.8350,-83.82654605,179.7811177,1288.625072
10.8400,-83.35812114,179.8245907,1285.997826
10.8450,-82.87968862,179.8596817,1283.3665
10.8500,-82.39076798,179.8879858,1280.73221
10.8550,-81.89093233,179.9095233,1278.096705
10.8600,-81.3803348,179.9257722,1275.460322
10.8650,-80.85894619,179.9352933,1272.823394
10.8700,-80.32612064,179.9378323,1270.186234
10.8750,-79.78348033,179.9322493,1267.550994
10.8800,-79.22996449,179.918308,1264.918412
10.8850,-78.66552448,179.8956788,1262.290349
10.8900,-78.08945259,179.8652204,1259.666649
10.8950,-77.5041315,179.8249601,1257.048317
10.9000,-76.90923807,179.7764501,1254.436728
10.9050,-76.30431138,179.7186718,1251.831317
10.9100,-75.68776996,179.6514303,1249.232929
10.9150,-75.05812493,179.5751246,1246.641583
10.9200,-74.41580824,179.488463,1244.056601
10.9250,-73.75936221,179.3903554,1241.478905
10.9300,-73.08771639,179.2810917,1238.908821
10.9350,-72.3996503,179.1612662,1236.345784
10.9400,-71.6954091,179.0303814,1233.789949
10.9450,-70.97582293,178.8898173,1231.241608
10.9500,-70.24131517,178.7388906,1228.699997
10.9550,-69.49251455,178.5771922,1226.165114
10.9600,-68.73130287,178.4049872,1223.638611
10.9650,-67.95842864,178.2209307,1221.119633
10.9700,-67.17443465,178.0247196,1218.608811
10.9750,-66.38018334,177.8139697,1216.105666
10.9800,-65.5759004,177.587753,1213.610814
10.9850,-64.76181411,177.3473623,1211.124711
10.9900,-63.93707419,177.0930907,1208.646205
10.9950,-63.10225576,176.8252315,1206.175546
11.0000,-62.25406899,176.5450994,1203.712461
11.0050,-61.39415122,176.2520522,1201.258289
11.0100,-60.52065924,175.9469921,1198.812498
11.0150,-59.63507492,175.6310899,1196.375855
11.0200,-58.73611693,175.3040048,1193.947972
11.0250,-57.82313837,174.9665471,1191.52989
11.0300,-56.89564393,174.6207232,1189.121495
11.0350,-55.95243687,174.2653126,1186.72184
11.0400,-54.99325547,173.9022622,1184.332092
11.0450,-54.01716883,173.5307067,1181.952439
11.0500,-53.02289848,173.1510051,1179.582377
11.0550,-52.00885735,172.7652674,1177.222394
11.0600,-50.97589745,172.3724638,1174.873042
11.0650,-49.92269799,171.9730012,1172.533995
11.0700,-48.85144378,171.5657028,1170.206429
11.0750,-47.76248251,171.152227,1167.891617
11.0800,-46.65603771,170.7322729,1165.589958
11.0850,-45.5343568,170.3058103,1163.302101
11.0900,-44.39745615,169.8736276,1161.029109
11.0950,-43.24674249,169.4357947,1158.772592
11.1000,-42.08177857,168.9932207,1156.532411
11.1050,-40.90429263,168.5463575,1154.309649
11.1100,-39.71438792,168.095632,1152.103358
11.1150,-38.51229019,167.6409646,1149.913422
11.1200,-37.29698092,167.1843032,1147.739987
11.1250,-36.06781766,166.7248874,1145.583286
11.1300,-34.82448071,166.2625858,1143.443406
11.1350,-33.56677701,165.7987996,1141.321139
11.1400,-32.29394696,165.3329838,1139.216964
11.1450,-31.00629538,164.8644999,1137.130804
11.1500,-29.70549394,164.3922897,1135.063629
11.1550,-28.39197284,163.9165593,1133.015542
11.1600,-27.06566895,163.4346705,1130.986105
11.1650,-25.72759779,162.9474567,1128.975913
11.1700,-24.3793597,162.454636,1126.984807
11.1750,-23.02112697,161.9563546,1125.012633
11.1800,-21.65317249,161.4527834,1123.058553
11.1850,-20.27420085,160.943321,1121.121981
11.1900,-18.88421176,160.4287449,1119.203358
11.1950,-17.4836577,159.9095728,1117.303021
11.2000,-16.07322515,159.3847055,1115.420897
11.2050,-14.6534129,158.8549787,1113.556827
11.2100,-13.22528445,158.3213108,1111.710152
11.2150,-11.7901832,157.7835692,1109.881553
11.2200,-10.34840009,157.2421684,1108.070598
11.2250,-8.900580334,156.6968986,1106.277053
11.2300,-7.446452171,156.1496196,1104.501271
11.2350,-5.985663707,155.5995825,1102.742376
11.2400,-4.518941167,155.0478991,1101.000402
11.2450,-3.04523747,154.4957572,1099.275433
11.2500,-1.564773977,153.9435098,1097.567785
11.2550,-0.07707974106,153.3911653,1095.877186
11.2600,1.418366514,152.8384663,1094.202969
11.2650,2.923070051,152.2878069,1092.544966
11.2700,4.437359289,151.7400714,1090.903264
11.2750,5.960771364,151.1949878,1089.277596
11.2800,7.494058745,150.6557262,1087.667479
11.2850,9.037442026,150.1215478,1086.072145
11.2900,10.59091463,149.5921693,1084.491748
11.2950,12.15424195,149.0666174,1082.926006
11.3000,13.72497438,148.5445779,1081.375593
11.3050,15.30205569,148.0255375,1079.840293
11.3100,16.88340751,147.5079199,1078.320176
11.3150,18.46916375,146.9913081,1076.815165
11.3200,20.05541695,146.4753401,1075.326323
11.3250,21.64041288,145.9594461,1073.853771
11.3300,23.2246192,145.4433595,1072.397371
11.3350,24.8066063,144.92782,1070.95756
11.3400,26.38696316,144.4115285,1069.533619
11.3450,27.9643177,143.8944544,1068.125846
11.3500,29.53897491,143.3772832,1066.734084
11.3550,31.10962764,142.8566143,1065.358252
11.3600,32.6777614,142.3327236,1063.997633
11.3650,34.23957711,141.8059938,1062.653383
11.3700,35.79642099,141.2759363,1061.324979
11.3750,37.3472534,140.7435523,1060.012879
11.3800,38.89330413,140.2070238,1058.716031
11.3850,40.43510334,139.6676607,1057.435103
11.3900,41.97305829,139.1252063,1056.170082
11.3950,43.50779461,138.579732,1054.920376
11.4000,45.04001797,138.0319833,1053.686496
11.4050,46.57066373,137.4827329,1052.468567
11.4100,48.10141207,136.9330456,1051.266894
11.4150,49.63324673,136.3828407,1050.081253
11.4200,51.16714724,135.8321785,1048.91165
11.4250,52.70360621,135.2812373,1047.757786
11.4300,54.24381507,134.730855,1046.61978
11.4350,55.79071889,134.1813139,1045.497233
11.4400,57.34605854,133.6328325,1044.389617
11.4450,58.90993176,133.085795,1043.297061
11.4500,60.48305771,132.5403217,1042.219413
11.4550,62.06805598,131.9961795,1041.155856
11.4600,63.66414928,131.4548607,1040.106722
11.4650,65.27197452,130.9150862,1039.071711
11.4700,66.89305545,130.3769478,1038.050601
11.4750,68.52588654,129.8402958,1037.043717
11.4800,70.17106043,129.3055532,1036.051094
11.4850,71.82719836,128.7734803,1035.073041
11.4900,73.49296555,128.2440499,1034.10981
11.4950,75.16902049,127.7191854,1033.161752
11.5000,76.8542871,127.199985,1032.228611
11.5050,78.54660574,126.6869923,1031.311099
11.5100,80.2447371,126.1816528,1030.409691
11.5150,81.94808458,125.6857221,1029.524336
11.5200,83.65529552,125.2002064,1028.655092
11.5250,85.36517746,124.7271957,1027.802335
11.5300,87.07637974,124.268361,1026.966146
11.5350,88.78702355,123.8240569,1026.146232
11.5400,90.49589482,123.3965095,1025.34309
11.5450,92.20013233,122.9840557,1024.556295
11.5500,93.89984733,122.5881035,1023.78556
11.5550,95.59279593,122.2085145,1023.030955
11.5600,97.27827368,121.8457154,1022.292311
11.5650,98.95222327,121.4983478,1021.569674
11.5700,100.6121047,121.1663922,1020.863066
11.5750,102.2566304,120.8505527,1020.17262
11.5800,103.8826734,120.5481394,1019.497717
11.5850,105.4877642,120.259086,1018.8387
11.5900,107.0715434,119.9837939,1018.19526
11.5950,108.6326727,119.7228388,1017.567437
11.6000,110.1712527,119.4737785,1016.954293
11.6050,111.6876428,119.2362719,1016.355444
11.6100,113.1832579,119.0122004,1015.771127
11.6150,114.6572721,118.8008615,1015.201074
11.6200,116.1122825,118.601778,1014.644979
11.6250,117.5496002,118.4148035,1014.102369
11.6300,118.9686385,118.2386965,1013.573401
11.6350,120.3701476,118.0749192,1013.058207
11.6400,121.753861,117.9226946,1012.55702
11.6450,123.1216674,117.781704,1012.069331
11.6500,124.4731929,117.6506667,1011.595282
11.6550,125.8089271,117.5309526,1011.134976
11.6600,127.1301701,117.4222198,1010.688229
11.6650,128.4405298,117.32324,1010.254486
11.6700,129.7424464,117.2343717,1009.833481
11.6750,131.0380772,117.1528066,1009.424328
11.6800,132.3272545,117.0795372,1009.027446
11.6850,133.6106291,117.0112477,1008.64203
11.6900,134.8894078,116.9479223,1008.267729
11.6950,136.1647214,116.8881674,1007.904112
11.7000,137.436053,116.8312536,1007.551126
11.7050,138.7050315,116.7764681,1007.208299
11.7100,139.9702181,116.7219711,1006.875345
11.7150,141.2313715,116.6668335,1006.551926
11.7200,142.4893942,116.611653,1006.237926
11.7250,143.7450319,116.5560725,1005.93303
11.7300,144.9989421,116.4979458,1005.636334
11.7350,146.2507676,116.4374323,1005.347854
11.7400,147.4987496,116.3735324,1005.067114
11.7450,148.7442218,116.3042666,1004.793132
11.7500,149.9878668,116.2303466,1004.525738
11.7550,151.2278645,116.1515081,1004.264904
11.7600,152.4666592,116.0666439,1004.009655
11.7650,153.7038128,115.9762783,1003.759935
11.7700,154.9380137,115.88063,1003.51574
11.7750,156.1709777,115.7790338,1003.276193
11.7800,157.4021924,115.6710404,1003.04103
11.7850,158.6312134,115.5558629,1002.809708
11.7900,159.857197,115.4334093,1002.582071
11.7950,161.0803039,115.3028291,1002.357603
11.8000,162.2995603,115.1630985,1002.135991
11.8050,163.5159035,115.0150785,1001.91726
11.8100,164.7276969,114.8584848,1001.701278
11.8150,165.9331532,114.6927273,1001.48783
11.8200,167.1325425,114.5179834,1001.276843
11.8250,168.3245997,114.3345856,1001.068263
11.8300,169.5085274,114.1417894,1000.861886
11.8350,170.6836614,113.9410462,1000.658099
11.8400,171.8481202,113.7314257,1000.456892
11.8450,173.0006013,113.5144455,1000.258491
11.8500,174.1390277,113.2893757,1000.062757
11.8550,175.2630191,113.0573859,999.8698623
11.8600,176.3706024,112.8179589,999.6797003
11.8650,177.4620881,112.5719708,999.4923606
11.8700,178.5371146,112.3193656,999.3075796
11.8750,179.5959923,112.0612431,999.1256136
11.8800,180.6377512,111.798088,998.9465446
11.8850,181.663655,111.5308941,998.7702854
11.8900,182.671542,111.259637,998.5968959
11.8950,183.6587467,110.9841044,998.4262798
11.9000,184.625181,110.7068378,998.2590764
11.9050,185.5678606,110.4278102,998.0954302
11.9100,186.4844445,110.1469136,997.9351778
11.9150,187.3752859,109.8650736,997.7786089
11.9200,188.2391389,109.5833961,997.6257992
11.9250,189.0738467,109.301901,997.4768754
11.9300,189.8782256,109.0204841,997.3316083
11.9350,190.6534249,108.7392338,997.1898815
11.9400,191.3965193,108.4582915,997.0515935
11.9450,192.1069783,108.1788088,996.9170971
11.9500,192.785374,107.9013407,996.7861831
11.9550,193.4319323,107.6258281,996.6586785
11.9600,194.0473481,107.353768,996.5349095
11.9650,194.6318456,107.0845976,996.4142772
11.9700,195.1846052,106.8174752,996.2966201
11.9750,195.7065748,106.5533861,996.1819583
11.9800,196.1979039,106.2927263,996.070385
11.9850,196.6597747,106.0356873,995.9616483
11.9900,197.0935726,105.77972,995.8551961
11.9950,197.4987848,105.5262883,995.7512295
12.0000,197.8787342,105.2746943,995.6493295
12.0050,198.2323966,105.0250032,995.5495668
12.0100,198.5620812,104.7767363,995.4515817
12.0150,198.8717716,104.5299566,995.3551149
12.0200,199.1617719,104.2841571,995.2601338
12.0250,199.4323147,104.0395317,995.1665639
12.0300,199.6846914,103.7959629,995.074309
12.0350,199.9189847,103.5533715,994.9832407
12.0400,200.1382231,103.3113917,994.8932289
12.0450,200.3429246,103.0703493,994.8043839
12.0500,200.533716,102.8293783,994.7164751
12.0550,200.7120189,102.5877878,994.6291737
12.0600,200.8777541,102.3450098,994.5423854
12.0650,201.0324351,102.1010245,994.4560014
12.0700,201.1773702,101.8557482,994.3698694
12.0750,201.3140894,101.6086295,994.283931
12.0800,201.4422833,101.3595228,994.1980743
12.0850,201.5629128,101.1083464,994.1123335
12.0900,201.6769145,100.8554318,994.0267989
12.0950,201.784495,100.600377,993.9412839
12.1000,201.8847947,100.3438091,993.8560156
12.1050,201.9798059,100.085747,993.7708745
12.1100,202.0707991,99.82574542,993.6856737
12.1150,202.1597291,99.56460345,993.600547
12.1200,202.2468131,99.30209252,993.5153909
12.1250,202.3319843,99.0382766,993.4303739
12.1300,202.4170812,98.77302837,993.3452399
12.1350,202.5009019,98.50672786,993.2602303
12.1400,202.5861546,98.24029907,993.1754226
12.1450,202.6751141,97.97233419,993.0903871
12.1500,202.768276,97.70373547,993.0054022
12.1550,202.8662218,97.43369808,992.920244
12.1600,202.9696978,97.16281194,992.8350009
12.1650,203.0806696,96.89169153,992.749792
12.1700,203.1980138,96.6200771,992.6646052
12.1750,203.3212259,96.34721956,992.5792866
12.1800,203.4519338,96.07358226,992.493789
12.1850,203.5888838,95.7982311,992.4080439
12.1900,203.7327806,95.52204999,992.3222589
12.1950,203.8840125,95.24593684,992.2366886
12.2000,204.0429337,94.96910336,992.1510766
12.2050,204.2105188,94.6918343,992.0654088
12.2100,204.3862449,94.41468765,991.9798861
12.2150,204.5697253,94.13802076,991.8945473
12.2200,204.7608029,93.86191709,991.8093831
12.2250,204.9592102,93.58821766,991.7248629
12.2300,205.1640253,93.31666729,991.6408897
12.2350,205.3725761,93.04863808,991.5580162
12.2400,205.5859263,92.78421914,991.4762023
12.2450,205.8015632,92.52343551,991.3954898
12.2500,206.0182513,92.26722885,991.3163512
12.2550,206.2344597,92.0155602,991.2388214
12.2600,206.4487225,91.76872919,991.1630729
12.2650,206.6593187,91.52678313,991.089225
12.2700,206.8674808,91.2918322,991.0177549
12.2750,207.0709335,91.06312161,990.9485727
12.2800,207.2705473,90.83962933,990.8814258
12.2850,207.4652007,90.62210308,990.8165663
12.2900,207.6556453,90.4117142,990.7540611
12.2950,207.8429633,90.2065819,990.6934514
12.3000,208.0262604,90.0068019,990.6348385
12.3050,208.2062401,89.81106903,990.577834
12.3100,208.3841903,89.62001951,990.5225106
12.3150,208.5574869,89.43301262,990.4688516
12.3200,208.7271722,89.24852248,990.4163465
12.3250,208.894246,89.06614377,990.3648455
12.3300,209.0584268,88.88583539,990.3143969
12.3350,209.2204809,88.70685704,990.2646758
12.3400,209.3791703,88.52906251,990.2157136
12.3450,209.5345844,88.35435691,990.1678022
12.3500,209.6861299,88.17930591,990.1202031
12.3550,209.8328618,88.00646915,990.0735266
12.3600,209.9737926,87.83373709,990.027339
12.3650,210.1072532,87.66225811,989.9817702
12.3700,210.2318687,87.49136094,989.9368464
12.3750,210.3452914,87.32237494,989.8928507
12.3800,210.4470732,87.15463935,989.8497856
12.3850,210.536323,86.98831114,989.8075766
12.3900,210.6116607,86.82341888,989.7663593
12.3950,210.6712748,86.66020885,989.7263049
12.4000,210.715999,86.49968407,989.6877266
12.4050,210.7423867,86.34075291,989.6503122
12.4100,210.7509295,86.18479894,989.6145138
12.4150,210.7405769,86.03125861,989.5801545
12.4200,210.7115015,85.88216139,989.5477495
12.4250,210.6635722,85.73621085,989.5169155
12.4300,210.5963472,85.59437111,989.4879793
12.4350,210.5125111,85.45724253,989.4609898
12.4400,210.4108028,85.32402533,989.4355889
12.4450,210.2911833,85.19671277,989.4124432
12.4500,210.1543241,85.07430679,989.3911986
12.4550,210.0011418,84.95856715,989.3722318
12.4600,209.83309,84.84916757,989.3554232
12.4650,209.649793,84.74600521,989.3407345
12.4700,209.4527031,84.64926683,989.3281763
12.4750,209.2437984,84.55971649,989.3177565
12.4800,209.022437,84.47778825,989.309779
12.4850,208.788897,84.40445019,989.3043718
12.4900,208.5425039,84.33895653,989.3012973
12.4950,208.2857034,84.28152782,989.3006671
12.5000,208.0163682,84.23139188,989.3023715
12.5050,207.7348861,84.1905694,989.3070135
12.5100,207.4417586,84.15803665,989.3143327
12.5150,207.1367821,84.13324334,989.3242902
12.5200,206.8194642,84.11653033,989.3369397
12.5250,206.4910417,84.1061398,989.3519856
12.5300,206.1526168,84.10372902,989.3698755
12.5350,205.8035855,84.10793356,989.3902437
12.5400,205.4451383,84.12013753,989.4134594
12.5450,205.0784081,84.13985837,989.4393268
12.5500,204.703413,84.16721437,989.4678356
12.5550,204.3212003,84.20175572,989.4989208
12.5600,203.9329417,84.24204327,989.5320575
12.5650,203.5390819,84.28965065,989.5676776
12.5700,203.1392005,84.34226702,989.6052847
12.5750,202.7342095,84.40003343,989.645001
12.5800,202.3233366,84.46245899,989.6866757
12.5850,201.9067932,84.52874737,989.7300731
12.5900,201.4856946,84.59863764,989.7751375
12.5950,201.0588896,84.67274393,989.8221309
12.6000,200.6279249,84.74854766,989.8702574
12.6050,200.1939143,84.82744298,989.9197563
12.6100,199.7559264,84.90703465,989.9701894
12.6150,199.314945,84.98734626,990.0214097
12.6200,198.8716134,85.06860701,990.0734643
12.6250,198.4258949,85.14873154,990.1259078
12.6300,197.9777803,85.22833911,990.1787599
12.6350,197.5267833,85.30486422,990.231605
12.6400,197.0740838,85.37907214,990.2844435
12.6450,196.6193402,85.44910714,990.337069
12.6500,196.1616913,85.51622808,990.3897311
12.6550,195.7028565,85.57822948,990.4418169
12.6600,195.2419375,85.63575315,990.4936315
12.6650,194.7795344,85.68639594,990.5447204
12.6700,194.3152082,85.73057969,990.5951893
12.6750,193.8493489,85.76702443,990.6449698
12.6800,193.3784846,85.79628186,990.6942954
12.6850,192.9037312,85.81799355,990.743172
12.6900,192.4245742,85.83111182,990.7914919
12.6950,191.9407321,85.83672513,990.8396732
12.7000,191.4498963,85.8331101,990.8874718
12.7050,190.9523688,85.82087584,990.9351993
12.7100,190.4448811,85.80089628,990.9834031
12.7150,189.9262351,85.77262034,991.032212
12.7200,189.3945387,85.73456639,991.0815943
12.7250,188.8494448,85.68874936,991.132181
12.7300,188.287853,85.63666544,991.1846193
12.7350,187.7087798,85.57658716,991.2386883
12.7400,187.1105423,85.51041537,991.2952256
12.7450,186.4934194,85.43871896,991.3543518
12.7500,185.8556371,85.36226861,991.4164958
12.7550,185.1965655,85.28232963,991.4820547
12.7600,184.5148233,85.19904439,991.5512256
12.7650,183.8091197,85.11227927,991.6240878
12.7700,183.079842,85.02318805,991.7010952
12.7750,182.3267651,84.93322916,991.7827659
12.7800,181.5495901,84.84210398,991.8690543
12.7850,180.7478305,84.74896759,991.9599837
12.7900,179.9230125,84.6553061,992.0559091
12.7950,179.0737636,84.56158541,992.1572032
12.8000,178.2010958,84.47003519,992.2643914
12.8050,177.3042194,84.3796645,992.3775273
12.8100,176.3832409,84.29089491,992.4967724
12.8150,175.4378152,84.20485466,992.6227466
12.8200,174.4686084,84.12163312,992.7557166
12.8250,173.4750064,84.04293243,992.8961537
12.8300,172.4566566,83.96817872,993.044161
12.8350,171.4152425,83.89857738,993.200109
12.8400,170.349907,83.83414975,993.3642304
12.8450,169.2605907,83.77496221,993.5366975
12.8500,168.1476986,83.72045904,993.7173846
12.8550,167.0117105,83.67303442,993.9070941
12.8600,165.8529948,83.63249228,994.1058299
12.8650,164.6741768,83.59797266,994.3134042
12.8700,163.4748464,83.57185529,994.5304156
12.8750,162.2574285,83.55523354,994.7569471
12.8800,161.0248026,83.54882823,994.9930087
12.8850,159.7777169,83.55311245,995.238903
12.8900,158.5164775,83.56810172,995.4946529
12.8950,157.2434655,83.59335997,995.7602255
12.9000,155.9589208,83.62922104,996.0358271
12.9050,154.6638613,83.67357505,996.3210923
12.9100,153.3598863,83.72875198,996.6167152
12.9150,152.0486538,83.79375481,996.9225895
12.9200,150.7300667,83.86755183,997.2386799
12.9250,149.4058606,83.9517947,997.5654781
12.9300,148.0767359,84.04551897,997.9030264
12.9350,146.7458354,84.15039598,998.2516171
12.9400,145.4122682,84.26460885,998.6112985
12.9450,144.0766248,84.38799353,998.9821283
12.9500,142.7408683,84.5202162,999.3642343
12.9550,141.4049303,84.66091362,999.7578708
12.9600,140.0679978,84.81033645,1000.163431
12.9650,138.7314059,84.96868954,1000.581134
12.9700,137.3954171,85.13558587,1001.01124
12.9750,136.0594048,85.31108376,1001.454006
12.9800,134.7268714,85.49494656,1001.909062
12.9850,133.394965,85.68843287,1002.377452
12.9900,132.0624757,85.89182897,1002.859555
12.9950,130.7300817,86.10431083,1003.355203
13.0000,129.3981167,86.32670993,1003.864717
13.0050,128.0658917,86.55923816,1004.38843
13.0100,126.7337592,86.80174088,1004.926336
13.0150,125.4015538,87.05504066,1005.478472
13.0200,124.0694293,87.31955191,1006.045181
13.0250,122.7365612,87.59539399,1006.626436
13.0300,121.4037863,87.88141126,1007.221883
13.0350,120.0703771,88.17889705,1007.831836
13.0400,118.7366406,88.48736472,1008.456008
13.0450,117.4014549,88.80626205,1009.094295
13.0500,116.066226,89.13546982,1009.746381
13.0550,114.7273983,89.4734874,1010.412723
13.0600,113.3862217,89.8211208,1011.093194
13.0650,112.0410417,90.17841556,1011.788257
13.0700,110.6916905,90.54489551,1012.497633
13.0750,109.3359905,90.91965122,1013.221557
13.0800,107.9737557,91.3036135,1013.960034
13.0850,106.6041763,91.69694412,1014.713373
13.0900,105.2270064,92.09869683,1015.481508
13.0950,103.8421161,92.50896724,1016.264554
13.1000,102.4500039,92.92720956,1017.0619
13.1050,101.0499696,93.35346862,1017.874029
13.1100,99.64255436,93.78724827,1018.700497
13.1150,98.22937812,94.22912747,1019.541158
13.1200,96.8088282,94.67773373,1020.396136
13.1250,95.38216431,95.13354747,1021.264843
13.1300,93.94932072,95.59652756,1022.147574
13.1350,92.50895334,96.06573905,1023.044374
13.1400,91.06269144,96.54036747,1023.954541
13.1450,89.61026636,97.02134736,1024.878357
13.1500,88.15128443,97.5086262,1025.816492
13.1550,86.68803445,98.0002881,1026.767552
13.1600,85.22064571,98.49821148,1027.731918
13.1650,83.74832585,99.00086511,1028.709997
13.1700,82.27195702,99.50644174,1029.700822
13.1750,80.79195932,100.0147545,1030.704674
13.1800,79.3065318,100.5239298,1031.721553
13.1850,77.8168909,101.0341734,1032.751193
13.1900,76.32381865,101.5456236,1033.793392
13.1950,74.82794873,102.0581219,1034.848051
13.2000,73.32869394,102.5708332,1035.915456
13.2050,71.82830182,103.0837283,1036.995227
13.2100,70.32634749,103.5952872,1038.086861
13.2150,68.82281599,104.105276,1039.191127
13.2200,67.32018353,104.6140537,1040.307777
13.2250,65.81896943,105.1204124,1041.436475
13.2300,64.31977607,105.6242946,1042.577357
13.2350,62.82238157,106.1254935,1043.730882
13.2400,61.32834019,106.6242744,1044.896785
13.2450,59.83790018,107.1190013,1046.074597
13.2500,58.35059816,107.6108057,1047.264951
13.2550,56.86743394,108.0988219,1048.467553
13.2600,55.38932576,108.5830483,1049.681807
13.2650,53.91641888,109.0641048,1050.908408
13.2700,52.44900951,109.5406669,1052.146368
13.2750,50.98766232,110.0131404,1053.395922
13.2800,49.53199347,110.4812915,1054.657295
13.2850,48.08216071,110.9447573,1055.929663
13.2900,46.64009557,111.4035437,1057.212609
13.2950,45.20517774,111.8569501,1058.505961
13.3000,43.77712684,112.3063504,1059.810293
13.3050,42.35601118,112.7509524,1061.125075
13.3100,40.94315599,113.1910084,1062.44957
13.3150,39.53773955,113.6253481,1063.784077
13.3200,38.14017756,114.0548626,1065.127589
13.3250,36.74941116,114.4794838,1066.481314
13.3300,35.36717206,114.8999674,1067.844713
13.3350,33.99187328,115.316086,1069.217872
13.3400,32.62460236,115.7265794,1070.600069
13.3450,31.26567117,116.1330223,1071.991955
13.3500,29.91366978,116.5362995,1073.393712
13.3550,28.57045161,116.9369022,1074.805086
13.3600,27.23595443,117.3342651,1076.225987
13.3650,25.91194862,117.7297336,1077.654992
13.3700,24.59576651,118.1233154,1079.093463
13.3750,23.28905572,118.5158304,1080.540778
13.3800,21.99217221,118.9072249,1081.997175
13.3850,20.70559189,119.2989611,1083.462163
13.3900,19.42829029,119.6911378,1084.936045
13.3950,18.16087484,120.0835393,1086.417824
13.4000,16.90317989,120.4772764,1087.908822
13.4050,15.65637464,120.8723587,1089.40792
13.4100,14.42036784,121.2704149,1090.915858
13.4150,13.19373228,121.6705213,1092.432779
13.4200,11.97757188,122.0734944,1093.958402
13.4250,10.77230971,122.4794366,1095.493034
13.4300,9.577896286,122.8877309,1097.036368
13.4350,8.394928991,123.2983607,1098.588159
13.4400,7.222466905,123.7115074,1100.148339
13.4450,6.062264633,124.1258664,1101.717084
13.4500,4.915522477,124.5421153,1103.29349
13.4550,3.780742443,124.9597678,1104.878314
13.4600,2.658442901,125.3764988,1106.471445
13.4650,1.548152195,125.7932846,1108.072063
13.4700,0.4507532702,126.2091308,1109.680442
13.4750,-0.6343474553,126.6234611,1111.296339
13.4800,-1.707256654,127.0363576,1112.919875
13.4850,-2.766660238,127.4465692,1114.550495
13.4900,-3.813120219,127.852254,1116.188732
13.4950,-4.846911044,128.2524729,1117.834559
13.5000,-5.867501731,128.6487826,1119.488318
13.5050,-6.87712704,129.040006,1121.150789
13.5100,-7.874540618,129.4253954,1122.821957
13.5150,-8.86067637,129.8047803,1124.501054
13.5200,-9.836014489,130.1778264,1126.188021
13.5250,-10.80086389,130.5450583,1127.883923
13.5300,-11.75550008,130.9048901,1129.587692
13.5350,-12.70081711,131.2572126,1131.299187
13.5400,-13.63734899,131.6026073,1133.019621
13.5450,-14.56520823,131.9409049,1134.74824
13.5500,-15.48347374,132.2717484,1136.485181
13.5550,-16.39339417,132.5947027,1138.230237
13.5600,-17.2958687,132.9099036,1139.983833
13.5650,-18.19242438,133.2158882,1141.745173
13.5700,-19.08280786,133.5127607,1143.514969
13.5750,-19.96910955,133.8001858,1145.292457
13.5800,-20.85236038,134.0780367,1147.077629
13.5850,-21.7328919,134.3457157,1148.870638
13.5900,-22.61094943,134.6041635,1150.671281
13.5950,-23.48702376,134.8529117,1152.479085
13.6000,-24.36119621,135.0923357,1154.292855
13.6050,-25.23424186,135.3226236,1156.114181
13.6100,-26.1073408,135.5431628,1157.942195
13.6150,-26.97861945,135.7548655,1159.776272
13.6200,-27.8495894,135.9577631,1161.617479
13.6250,-28.71955269,136.1519085,1163.463875
13.6300,-29.58882134,136.3384874,1165.315625
13.6350,-30.45773948,136.516271,1167.172656
13.6400,-31.32612572,136.6884452,1169.035298
13.6450,-32.19438908,136.8528048,1170.902241
13.6500,-33.06189637,137.0106252,1172.773832
13.6550,-33.92677734,137.1618363,1174.649032
13.6600,-34.79090316,137.3071845,1176.528428
13.6650,-35.65280083,137.4468976,1178.412763
13.6700,-36.51129859,137.5813634,1180.300707
13.6750,-37.36691716,137.710536,1182.192311
13.6800,-38.21752899,137.8344952,1184.087146
13.6850,-39.06245491,137.9524749,1185.985425
13.6900,-39.90111215,138.0643196,1187.886049
13.6950,-40.73285067,138.1706338,1189.790132
13.7000,-41.5568112,138.2711404,1191.696683
13.7050,-42.37386479,138.3653104,1193.606379
13.7100,-43.18284013,138.4530701,1195.518265
13.7150,-43.98260584,138.5357809,1197.431953
13.7200,-44.77259328,138.6128955,1199.34723
13.7250,-45.55283759,138.6850886,1201.263712
13.7300,-46.32188667,138.7523656,1203.181546
13.7350,-47.07938418,138.8145898,1205.100102
13.7400,-47.82298693,138.8717071,1207.019607
13.7450,-48.5535615,138.9255885,1208.93971
13.7500,-49.2694096,138.9761168,1210.860181
13.7550,-49.97015779,139.0230644,1212.780939
13.7600,-50.6555329,139.0677558,1214.701455
