type,name,time_units,begin_time,frequency,count,units
signal_3d,"Noraxon MyoMotion-Trajectories-Elbow RT","s",0.0000,200,4984,"mm"

time,x,y,z
0.0000,164.4944209,-27.59042892,1238.946996
0.0050,164.4908879,-27.63180166,1238.944001
0.0100,164.4873633,-27.6731752,1238.941009
0.0150,164.4838472,-27.71454956,1238.938021
0.0200,164.4819512,-27.75978768,1238.934379
0.0250,164.482106,-27.8087196,1238.930015
0.0300,164.484764,-27.86111826,1238.924863
0.0350,164.4903835,-27.91671706,1238.91886
0.0400,164.4994085,-27.97522809,1238.911945
0.0450,164.5122531,-28.03635661,1238.904066
0.0500,164.5292923,-28.09980902,1238.895176
0.0550,164.5508518,-28.16529684,1238.885239
0.0600,164.5771927,-28.23254207,1238.874228
0.0650,164.6085018,-28.30128143,1238.862132
0.0700,164.6448901,-28.37126337,1238.848951
0.0750,164.6863928,-28.44224205,1238.834701
0.0800,164.732974,-28.51397643,1238.819413
0.0850,164.7845292,-28.58623288,1238.803127
0.0900,164.8408825,-28.65878632,1238.785901
0.0950,164.9017811,-28.73141965,1238.767804
0.1000,164.9668877,-28.80392257,1238.748923
0.1050,165.035774,-28.87608979,1238.729361
0.1100,165.1079167,-28.94771825,1238.709239
0.1150,165.1826943,-29.01860399,1238.688697
0.1200,165.2593832,-29.08853986,1238.667893
0.1250,165.3371584,-29.15731502,1238.647006
0.1300,165.4150998,-29.22471423,1238.626229
0.1350,165.4922018,-29.29051601,1238.605775
0.1400,165.5673905,-29.35449288,1238.585866
0.1450,165.6395493,-29.41641496,1238.566733
0.1500,165.7075494,-29.47605563,1238.548606
0.1550,165.7678669,-29.58832859,1238.527267
0.1600,165.8206146,-29.69748975,1238.50765
0.1650,165.8651522,-29.80278406,1238.489932
0.1700,165.9016889,-29.90388728,1238.474102
0.1750,165.9289329,-30.0011643,1238.460353
0.1800,165.9454528,-30.0930653,1238.449118
0.1850,165.9517547,-30.17975893,1238.440272
0.1900,165.9475947,-30.26059302,1238.433909
0.1950,165.9322489,-30.33602207,1238.430126
0.2000,165.9061553,-30.40533029,1238.428896
0.2050,165.8707822,-30.46875582,1238.429917
0.2100,165.8254687,-30.52587078,1238.433361
0.2150,165.770535,-30.57671099,1238.439154
0.2200,165.7078939,-30.62164829,1238.446912
0.2250,165.6376367,-30.66035887,1238.456638
0.2300,165.5605911,-30.69392667,1238.468087
0.2350,165.4790791,-30.7224641,1238.480796
0.2400,165.3946586,-30.74505368,1238.494565
0.2450,165.308005,-30.76358961,1238.509092
0.2500,165.2209902,-30.77776797,1238.524048
0.2550,165.1343932,-30.78844253,1238.539212
0.2600,165.0490484,-30.79501537,1238.554483
0.2650,164.9666915,-30.7986885,1238.569423
0.2700,164.8871268,-30.79893446,1238.584106
0.2750,164.8111609,-30.7964853,1238.59832
0.2800,164.7388899,-30.79209015,1238.611972
0.2850,164.6710322,-30.78487878,1238.625005
0.2900,164.6077205,-30.77644781,1238.637241
0.2950,164.5485637,-30.76643877,1238.648806
0.3000,164.4938932,-30.75485209,1238.659633
0.3050,164.4441383,-30.74113325,1238.669704
0.3100,164.3999323,-30.72572838,1238.678864
0.3150,164.3606292,-30.70826299,1238.687271
0.3200,164.3258478,-30.68933015,1238.694965
0.3250,164.2954917,-30.6695501,1238.701911
0.3300,164.2698567,-30.64800785,1238.708136
0.3350,164.2487166,-30.62542871,1238.713633
0.3400,164.2321868,-30.6019679,1238.718372
0.3450,164.2203752,-30.57844297,1238.722256
0.3500,164.2122617,-30.55431111,1238.725541
0.3550,164.2088974,-30.53073631,1238.727911
0.3600,164.2105683,-30.50802306,1238.729298
0.3650,164.2156756,-30.48816215,1238.729819
0.3700,164.2250104,-30.46989321,1238.729453
0.3750,164.237359,-30.45465958,1238.728296
0.3800,164.2533969,-30.44307404,1238.726168
0.3850,164.2724559,-30.4359049,1238.723119
0.3900,164.2929527,-30.43252557,1238.71952
0.3950,164.3160936,-30.43383848,1238.715046
0.4000,164.3392926,-30.43978805,1238.710216
0.4050,164.3640881,-30.45116134,1238.704628
0.4100,164.3881652,-30.46880509,1238.698657
0.4150,164.4120517,-30.49110296,1238.69235
0.4200,164.4355872,-30.51852739,1238.685682
0.4250,164.4571368,-30.55122756,1238.678955
0.4300,164.4766909,-30.58856287,1238.672222
0.4350,164.4951926,-30.62924755,1238.665425
0.4400,164.5118582,-30.67373416,1238.658661
0.4450,164.5273644,-30.72167733,1238.651832
0.4500,164.5421464,-30.77176533,1238.644974
0.4550,164.5560534,-30.82428852,1238.638082
0.4600,164.5704535,-30.87923096,1238.630889
0.4650,164.5849517,-30.93596194,1238.623526
0.4700,164.6005858,-30.99456665,1238.615778
0.4750,164.6178234,-31.05377279,1238.607677
0.4800,164.6370841,-31.11476158,1238.59902
0.4850,164.6583105,-31.17686974,1238.589872
0.4900,164.6816202,-31.24034078,1238.580185
0.4950,164.7080804,-31.30435105,1238.569839
0.5000,164.7373264,-31.36977355,1238.558825
0.5050,164.7690604,-31.43552704,1238.547296
0.5100,164.8043937,-31.50274931,1238.534927
0.5150,164.8425773,-31.57141107,1238.521875
0.5200,164.8836782,-31.64127562,1238.508136
0.5250,164.9272905,-31.71176108,1238.493854
0.5300,164.9737748,-31.78119386,1238.479117
0.5350,165.0226422,-31.85039698,1238.463953
0.5400,165.0734302,-31.92027104,1238.448361
0.5450,165.1261695,-31.98913322,1238.432497
0.5500,165.180441,-32.05590736,1238.416542
0.5550,165.2359722,-32.12150009,1238.400461
0.5600,165.2920154,-32.18586191,1238.384414
0.5650,165.3489454,-32.24843178,1238.368372
0.5700,165.4054148,-32.31035181,1238.352498
0.5750,165.4617728,-32.37058777,1238.336815
0.5800,165.5182679,-32.42876325,1238.321314
0.5850,165.573661,-32.48668957,1238.306069
0.5900,165.6280316,-32.54207081,1238.291272
0.5950,165.6801344,-32.59534318,1238.277107
0.6000,165.7303244,-32.64725191,1238.263453
0.6050,165.7776636,-32.6992646,1238.250343
0.6100,165.8214231,-32.75033187,1238.238009
0.6150,165.8621009,-32.80176855,1238.226238
0.6200,165.8996207,-32.8539585,1238.215002
0.6250,165.9331477,-32.90635997,1238.2045
0.6300,165.962943,-32.96023244,1238.194585
0.6350,165.988245,-33.01546323,1238.185387
0.6400,166.0085821,-33.07238434,1238.176964
0.6450,166.0246191,-33.1314567,1238.169151
0.6500,166.0364763,-33.19282061,1238.161905
0.6550,166.0433246,-33.25553297,1238.155467
0.6600,166.0463555,-33.32043306,1238.14953
0.6650,166.0458873,-33.38577495,1238.144189
0.6700,166.0421251,-33.45231585,1238.139331
0.6750,166.035919,-33.51923759,1238.134858
0.6800,166.0274971,-33.58572945,1238.130804
0.6850,166.016796,-33.65094726,1238.127238
0.6900,166.0052514,-33.71587995,1238.123813
0.6950,165.9923086,-33.77877434,1238.120789
0.7000,165.9812746,-33.84042936,1238.117458
0.7050,165.9710589,-33.89925878,1238.114164
0.7100,165.961997,-33.95594143,1238.110782
0.7150,165.9551142,-34.01069741,1238.107108
0.7200,165.9501567,-34.0634062,1238.103196
0.7250,165.9477131,-34.11389627,1238.09895
0.7300,165.9491222,-34.16249106,1238.094108
0.7350,165.9524437,-34.20897218,1238.089038
0.7400,165.9598834,-34.2531104,1238.083355
0.7450,165.9707919,-34.29561669,1238.077121
0.7500,165.9842067,-34.33672534,1238.070491
0.7550,166.0000711,-34.37556183,1238.063572
0.7600,166.018266,-34.41229366,1238.056369
0.7650,166.0376636,-34.44809894,1238.048995
0.7700,166.0580525,-34.48362956,1238.041432
0.7750,166.0785064,-34.51810852,1238.033933
0.7800,166.0985515,-34.55171481,1238.026572
0.7850,166.1179642,-34.58454874,1238.019389
0.7900,166.1354408,-34.61643667,1238.012648
0.7950,166.1498298,-34.64911118,1238.006417
0.8000,166.1617749,-34.6811838,1238.000694
0.8050,166.1701701,-34.71290034,1237.995674
0.8100,166.1749527,-34.74400958,1237.991398
0.8150,166.1762025,-34.77463881,1237.987828
0.8200,166.1731957,-34.80515643,1237.985071
0.8250,166.1663115,-34.83566838,1237.983052
0.8300,166.1556849,-34.86739138,1237.981636
0.8350,166.1410572,-34.89957693,1237.980932
0.8400,166.1225655,-34.93191573,1237.980941
0.8450,166.0998092,-34.9645604,1237.981727
0.8500,166.0746513,-34.998903,1237.982827
0.8550,166.0475034,-35.03344278,1237.984292
0.8600,166.0197522,-35.0685212,1237.985818
0.8650,165.991238,-35.10360167,1237.987487
0.8700,165.9638489,-35.13829372,1237.988964
0.8750,165.9377907,-35.17195025,1237.990266
0.8800,165.9120737,-35.20548774,1237.991491
0.8850,165.8883136,-35.23802416,1237.992413
0.8900,165.8661285,-35.2694264,1237.993113
0.8950,165.8474324,-35.30026214,1237.993174
0.9000,165.8302382,-35.33006307,1237.993
0.9050,165.8155154,-35.3580037,1237.992485
0.9100,165.8029103,-35.38397283,1237.991696
0.9150,165.7915248,-35.40778614,1237.990824
0.9200,165.7820446,-35.42869622,1237.989795
0.9250,165.7733721,-35.44755373,1237.98876
0.9300,165.765573,-35.46314099,1237.9878
0.9350,165.7586387,-35.47568004,1237.986906
0.9400,165.7510941,-35.48505592,1237.986366
0.9450,165.7427925,-35.49107025,1237.986229
0.9500,165.7331126,-35.4939672,1237.986595
0.9550,165.722317,-35.4944269,1237.987366
0.9600,165.7089114,-35.49082834,1237.988959
0.9650,165.6926641,-35.48394352,1237.991356
0.9700,165.6725225,-35.4745303,1237.994703
0.9750,165.6475487,-35.46237937,1237.999205
0.9800,165.6180985,-35.44719438,1238.004816
0.9850,165.5838501,-35.42877979,1238.011632
0.9900,165.5450971,-35.40692508,1238.019625
0.9950,165.5018883,-35.3825055,1238.028716
1.0000,165.453692,-35.35497095,1238.039068
1.0050,165.4005005,-35.32479378,1238.050645
1.0100,165.3432669,-35.29045279,1238.0634
1.0150,165.2824215,-35.25295126,1238.077156
1.0200,165.2175487,-35.21202985,1238.092035
1.0250,165.1502462,-35.16776841,1238.107721
1.0300,165.0799954,-35.12054906,1238.124273
1.0350,165.0070804,-35.0716807,1238.14153
1.0400,164.9302917,-35.02225502,1238.159635
1.0450,164.8495684,-34.97176779,1238.178651
1.0500,164.7664432,-34.9216213,1238.198161
1.0550,164.6806791,-34.87292613,1238.218117
1.0600,164.5928182,-34.82577298,1238.238401
1.0650,164.5038648,-34.78075735,1238.258769
1.0700,164.4135967,-34.73812434,1238.27924
1.0750,164.3232203,-34.69844944,1238.299529
1.0800,164.2347813,-34.66221961,1238.319195
1.0850,164.1484249,-34.63068639,1238.338092
1.0900,164.0660471,-34.603799,1238.355851
1.0950,163.9882901,-34.58112762,1238.372356
1.1000,163.9154463,-34.5646896,1238.387379
1.1050,163.8494808,-34.55425379,1238.400544
1.1100,163.7908413,-34.54963755,1238.411756
1.1150,163.7404894,-34.55102088,1238.420811
1.1200,163.699003,-34.55897802,1238.427534
1.1250,163.6679779,-34.57298925,1238.431642
1.1300,163.6476935,-34.59245339,1238.433124
1.1350,163.6394315,-34.61764597,1238.431689
1.1400,163.6433441,-34.64882462,1238.427287
1.1450,163.6613292,-34.68558056,1238.419561
1.1500,163.6915226,-34.72730219,1238.408909
1.1550,163.7343604,-34.77458171,1238.395197
1.1600,163.7885585,-34.82568551,1238.378806
1.1650,163.8545516,-34.882047,1238.359529
1.1700,163.9307309,-34.9414862,1238.337856
1.1750,164.0162774,-35.00607203,1238.313766
1.1800,164.1113875,-35.07324913,1238.287443
1.1850,164.2137777,-35.14326686,1238.259296
1.1900,164.3228627,-35.21561764,1238.229475
1.1950,164.4375037,-35.28935673,1238.198288
1.2000,164.5570884,-35.36397708,1238.165892
1.2050,164.6808596,-35.43904329,1238.132455
1.2100,164.8079601,-35.51407433,1238.098179
1.2150,164.9371542,-35.58824967,1238.06337
1.2200,165.0682419,-35.66107932,1238.028097
1.2250,165.2007513,-35.73223774,1237.992465
1.2300,165.3346616,-35.80141743,1237.956494
1.2350,165.4691309,-35.86940283,1237.920272
1.2400,165.6052951,-35.93341417,1237.883802
1.2450,165.7419399,-35.9944144,1237.84723
1.2500,165.8793016,-36.05123219,1237.810599
1.2550,166.0178885,-36.10375912,1237.773811
1.2600,166.1561469,-36.15259026,1237.737108
1.2650,166.296036,-36.19696296,1237.700188
1.2700,166.4378873,-36.23536195,1237.663083
1.2750,166.5812616,-36.26782287,1237.625885
1.2800,166.7265162,-36.29477193,1237.588484
1.2850,166.8748456,-36.31654107,1237.550634
1.2900,167.0244502,-36.33227935,1237.512722
1.2950,167.1760451,-36.34177589,1237.474641
1.3000,167.3294152,-36.34456709,1237.436453
1.3050,167.484,-36.34105536,1237.398251
1.3100,167.6391596,-36.33123538,1237.360144
1.3150,167.7938695,-36.31518037,1237.32232
1.3200,167.9487993,-36.2921829,1237.284712
1.3250,168.1012043,-36.26292893,1237.247772
1.3300,168.2510876,-36.22781713,1237.211472
1.3350,168.3974633,-36.18590851,1237.176072
1.3400,168.5407537,-36.1371039,1237.141498
1.3450,168.6804794,-36.08192557,1237.107793
1.3500,168.8155149,-36.0200051,1237.075203
1.3550,168.9458555,-35.95145165,1237.043716
1.3600,169.070224,-35.87655416,1237.013545
1.3650,169.1895197,-35.79580046,1236.984494
1.3700,169.302912,-35.70851914,1236.956772
1.3750,169.4102056,-35.61654689,1236.930258
1.3800,169.5091217,-35.51994327,1236.905358
1.3850,169.6010124,-35.41791176,1236.881902
1.3900,169.6850776,-35.31245001,1236.859868
1.3950,169.7613237,-35.20250608,1236.839339
1.4000,169.8309163,-35.08843559,1236.820084
1.4050,169.8932844,-34.97182692,1236.802066
1.4100,169.947819,-34.85331177,1236.785343
1.4150,169.9959009,-34.73381218,1236.769589
1.4200,170.0378875,-34.61339609,1236.754725
1.4250,170.0732328,-34.49220625,1236.740839
1.4300,170.1022152,-34.37128526,1236.727787
1.4350,170.1254232,-34.25162358,1236.715392
1.4400,170.1429473,-34.13270537,1236.703663
1.4450,170.1540557,-34.01405658,1236.692766
1.4500,170.1596565,-33.89693319,1236.68244
1.4550,170.1588719,-33.78075646,1236.672874
1.4600,170.1532655,-33.66706352,1236.663677
1.4650,170.1416687,-33.55418127,1236.655195
1.4700,170.123611,-33.4437032,1236.647373
1.4750,170.0989917,-33.33411854,1236.640367
1.4800,170.0675152,-33.22579292,1236.634204
1.4850,170.029867,-33.11788456,1236.628839
1.4900,169.9845123,-33.01124396,1236.62448
1.4950,169.9311205,-32.90548254,1236.621227
1.5000,169.8702243,-32.80008519,1236.619027
1.5050,169.7999266,-32.6952688,1236.618224
1.5100,169.7200437,-32.59152456,1236.618818
1.5150,169.629996,-32.48740973,1236.621038
1.5200,169.5298578,-32.38387397,1236.624815
1.5250,169.419686,-32.27992886,1236.63024
1.5300,169.2990109,-32.17510069,1236.637456
1.5350,169.1670548,-32.06908659,1236.646653
1.5400,169.0237092,-31.96297188,1236.657755
1.5450,168.8701509,-31.8552817,1236.670711
1.5500,168.7071605,-31.74664779,1236.685333
1.5550,168.5340029,-31.63583594,1236.701891
1.5600,168.3520703,-31.52243873,1236.720195
1.5650,168.1598096,-31.40588337,1236.740593
1.5700,167.9591949,-31.28571494,1236.762805
1.5750,167.7504285,-31.16076403,1236.786914
1.5800,167.5336892,-31.03034806,1236.812995
1.5850,167.3089575,-30.89391857,1236.841112
1.5900,167.078548,-30.7506745,1236.870956
1.5950,166.8414556,-30.60186053,1236.902606
1.6000,166.597335,-30.4470636,1236.936216
1.6050,166.3474184,-30.28593597,1236.971584
1.6100,166.0923334,-30.11963962,1237.008509
1.6150,165.8316103,-29.94856368,1237.047057
1.6200,165.5636859,-29.774323,1237.087398
1.6250,165.291162,-29.59602708,1237.129123
1.6300,165.0125227,-29.41476082,1237.172452
1.6350,164.7304695,-29.231548,1237.216775
1.6400,164.4444169,-29.04530246,1237.262319
1.6450,164.154122,-28.85727439,1237.309032
1.6500,163.8610848,-28.66639437,1237.356744
1.6550,163.5653626,-28.47365021,1237.40534
1.6600,163.2681826,-28.27871247,1237.454655
1.6650,162.9709044,-28.0802087,1237.504544
1.6700,162.6737559,-27.87832329,1237.554962
1.6750,162.3772721,-27.67244472,1237.605883
1.6800,162.0835903,-27.46079559,1237.657068
1.6850,161.7925402,-27.2448056,1237.70841
1.6900,161.5049258,-27.02268644,1237.75994
1.6950,161.2213359,-26.7948571,1237.811527
1.7000,160.9409144,-26.5608875,1237.863396
1.7050,160.6646259,-26.32031525,1237.915401
1.7100,160.3934128,-26.07134285,1237.967571
1.7150,160.1266289,-25.81504282,1238.019919
1.7200,159.8659108,-25.55081891,1238.0722
1.7250,159.6109438,-25.27958745,1238.124349
1.7300,159.3618676,-25.00186618,1238.176282
1.7350,159.1176442,-24.71793017,1238.228191
1.7400,158.8782444,-24.42806501,1238.280043
1.7450,158.6434669,-24.1350133,1238.331595
1.7500,158.4119549,-23.83970122,1238.383021
1.7550,158.1837669,-23.54277563,1238.434244
1.7600,157.9575345,-23.24556571,1238.485416
1.7650,157.7338425,-22.94895308,1238.536298
1.7700,157.5116105,-22.65347878,1238.58706
1.7750,157.2920704,-22.35921053,1238.637414
1.7800,157.0738193,-22.06651969,1238.687604
1.7850,156.857547,-21.7757526,1238.737449
1.7900,156.6430782,-21.48687375,1238.786987
1.7950,156.4305736,-21.19958332,1238.836224
1.8000,156.2203896,-20.91356579,1238.885141
1.8050,156.0138728,-20.62728265,1238.933619
1.8100,155.8104405,-20.34005367,1238.981892
1.8150,155.6114938,-20.05232495,1239.0296
1.8200,155.4164616,-19.76283908,1239.077026
1.8250,155.2237381,-19.47248032,1239.124422
1.8300,155.0337892,-19.1814177,1239.17166
1.8350,154.8471412,-18.8878108,1239.218873
1.8400,154.6636197,-18.59242844,1239.266019
1.8450,154.4828375,-18.29553397,1239.313141
1.8500,154.304053,-17.99502506,1239.3607
1.8550,154.1269608,-17.69288767,1239.408504
1.8600,153.951268,-17.38844695,1239.456712
1.8650,153.7785542,-17.08241361,1239.504854
1.8700,153.606908,-16.77548321,1239.553301
1.8750,153.4357966,-16.4692408,1239.601946
1.8800,153.2633296,-16.16451267,1239.651114
1.8850,153.0902554,-15.86126484,1239.70064
1.8900,152.9147621,-15.56086317,1239.750768
1.8950,152.7371744,-15.2619372,1239.801613
1.9000,152.5571142,-14.96518608,1239.853143
1.9050,152.3742505,-14.67079583,1239.905426
1.9100,152.1877027,-14.37960869,1239.958559
1.9150,151.9976461,-14.09024606,1240.012703
1.9200,151.8049186,-13.80318444,1240.06757
1.9250,151.6088977,-13.5186121,1240.123293
1.9300,151.4095258,-13.23528735,1240.180074
1.9350,151.2063621,-12.95437767,1240.237854
1.9400,150.9983378,-12.67581768,1240.29692
1.9450,150.7862375,-12.39921143,1240.357116
1.9500,150.5688354,-12.12604225,1240.418522
1.9550,150.3458321,-11.85556899,1240.481356
1.9600,150.1166085,-11.58870538,1240.545592
1.9650,149.8804224,-11.32537037,1240.611461
1.9700,149.6381085,-11.06558167,1240.678738
1.9750,149.3901815,-10.80905366,1240.747344
1.9800,149.1359395,-10.55762962,1240.817143
1.9850,148.8762207,-10.30971856,1240.888191
1.9900,148.6107706,-10.06552502,1240.960527
1.9950,148.3403231,-9.826480722,1241.033737
2.0000,148.0656735,-9.591598064,1241.107764
2.0050,147.7856735,-9.361476451,1241.18286
2.0100,147.4997948,-9.136570231,1241.259073
2.0150,147.20741,-8.916432258,1241.336668
2.0200,146.9084812,-8.701572332,1241.415574
2.0250,146.6035486,-8.490786106,1241.495905
2.0300,146.2925774,-8.283941219,1241.577706
2.0350,145.9762079,-8.080164207,1241.660967
2.0400,145.6545624,-7.880402426,1241.745536
2.0450,145.3266864,-7.683164718,1241.831891
2.0500,144.9932591,-7.488750786,1241.919835
2.0550,144.6539791,-7.297098708,1242.009476
2.0600,144.3083267,-7.107065387,1242.101149
2.0650,143.9562701,-6.919038379,1242.194822
2.0700,143.5975754,-6.731805475,1242.290787
2.0750,143.2331499,-6.544853384,1242.388924
2.0800,142.8630062,-6.358969675,1242.489125
2.0850,142.486054,-6.173172957,1242.59188
2.0900,142.1023235,-5.986764376,1242.697333
2.0950,141.7124754,-5.799489391,1242.805367
2.1000,141.316205,-5.611781565,1242.916013
2.1050,140.9123937,-5.423631609,1243.029619
2.1100,140.5028011,-5.236087487,1243.145549
2.1150,140.086536,-5.047788797,1243.264318
2.1200,139.663662,-4.859271227,1243.385843
2.1250,139.2360316,-4.669790331,1243.509789
2.1300,138.8042261,-4.479060236,1243.636081
2.1350,138.369515,-4.286344809,1243.764496
2.1400,137.9319872,-4.089934649,1243.89533
2.1450,137.4915047,-3.88884614,1244.028828
2.1500,137.0493934,-3.683953588,1244.164506
2.1550,136.6068396,-3.473288159,1244.302381
2.1600,136.1640159,-3.257479756,1244.442325
2.1650,135.7190377,-3.035658875,1244.585077
2.1700,135.2726592,-2.8084891,1244.73029
2.1750,134.8268602,-2.574874887,1244.877632
2.1800,134.3805925,-2.335400058,1245.027285
2.1850,133.9331188,-2.090108496,1245.179487
2.1900,133.4842058,-1.839421891,1245.334226
2.1950,133.0338359,-1.582219894,1245.491751
2.2000,132.5822375,-1.319438361,1245.651838
2.2050,132.1287553,-1.050014696,1245.814946
2.2100,131.6734145,-0.7731952585,1245.981245
2.2150,131.2163092,-0.4900841272,1246.150514
2.2200,130.7566895,-0.1986489792,1246.323417
2.2250,130.294014,0.0998519747,1246.499921
2.2300,129.8292732,0.4049482914,1246.679676
2.2350,129.3618815,0.717416024,1246.863055
2.2400,128.8913541,1.035368179,1247.049901
2.2450,128.4168848,1.359253326,1247.240601
2.2500,127.9387528,1.689196879,1247.435114
2.2550,127.4578085,2.02492851,1247.633147
2.2600,126.9749054,2.366560458,1247.834452
2.2650,126.489698,2.713646435,1248.039069
2.2700,126.0024323,3.066343924,1248.246976
2.2750,125.5125038,3.424575764,1248.45837
2.2800,125.0212448,3.789181625,1248.673023
2.2850,124.5288636,4.160518843,1248.890957
2.2900,124.0356715,4.537334936,1249.111821
2.2950,123.5415198,4.920148503,1249.335778
2.3000,123.046282,5.308124477,1249.562701
2.3050,122.5510449,5.700449449,1249.792053
2.3100,122.056538,6.096636319,1250.023499
2.3150,121.5640572,6.496559198,1250.256596
2.3200,121.0725973,6.898793717,1250.491378
2.3250,120.5815574,7.30179787,1250.727698
2.3300,120.0915831,7.70546289,1250.965322
2.3350,119.6012379,8.108562014,1251.204459
2.3400,119.1102026,8.510597575,1251.445121
2.3450,118.618437,8.909770632,1251.68696
2.3500,118.1256806,9.306813617,1251.930219
2.3550,117.6317875,9.70002783,1252.174566
2.3600,117.1367088,10.08984933,1252.420114
2.3650,116.6401056,10.47609094,1252.666943
2.3700,116.1423901,10.85744914,1252.91463
2.3750,115.6427447,11.23327707,1253.163319
2.3800,115.1411688,11.60449569,1253.413214
2.3850,114.6377618,11.97079988,1253.664221
2.3900,114.1337229,12.33264807,1253.915976
2.3950,113.6269932,12.68884084,1254.168945
2.4000,113.1177724,13.04011922,1254.423186
2.4050,112.6069598,13.38542987,1254.67811
2.4100,112.0932704,13.72527129,1254.934295
2.4150,111.5770377,14.05794433,1255.191187
2.4200,111.0578059,14.38328257,1255.448918
2.4250,110.5350371,14.70148107,1255.707729
2.4300,110.0072504,15.01037516,1255.967666
2.4350,109.4732536,15.30909146,1256.22902
2.4400,108.9330048,15.59680377,1256.491592
2.4450,108.3863144,15.8732774,1256.755395
2.4500,107.8321333,16.13783478,1257.020659
2.4550,107.2701071,16.39017997,1257.287492
2.4600,106.7015179,16.63039809,1257.55544
2.4650,106.1265648,16.85834605,1257.824413
2.4700,105.544627,17.07497344,1258.094925
2.4750,104.9548692,17.280738,1258.367406
2.4800,104.3595894,17.4779859,1258.641538
2.4850,103.7591947,17.66685272,1258.917243
2.4900,103.154431,17.84817485,1259.194427
2.4950,102.5455035,18.02118163,1259.472853
2.5000,101.9332172,18.18732602,1259.752569
2.5050,101.3166555,18.34721532,1260.034077
2.5100,100.6981201,18.50262023,1260.316858
2.5150,100.0795616,18.65452697,1260.600378
2.5200,99.46114387,18.80274978,1260.884507
2.5250,98.84332876,18.94741326,1261.169075
2.5300,98.22722596,19.08927854,1261.453788
2.5350,97.61275544,19.22916525,1261.738859
2.5400,97.00152903,19.36776765,1262.023743
2.5450,96.3946102,19.50522857,1262.308007
2.5500,95.79246768,19.64210708,1262.591581
2.5550,95.1957151,19.77893971,1262.874297
2.5600,94.60502897,19.91514845,1263.155719
2.5650,94.02120134,20.05130513,1263.435597
2.5700,93.44305542,20.18641032,1263.714198
2.5750,92.87221503,20.3211831,1263.990942
2.5800,92.30798881,20.45591991,1264.266168
2.5850,91.75188268,20.58954974,1264.538888
2.5900,91.20425474,20.72398163,1264.809404
2.5950,90.66526485,20.85907598,1265.077571
2.6000,90.13685221,20.99535701,1265.342618
2.6050,89.61750696,21.13340292,1265.605334
2.6100,89.10747035,21.27281677,1265.865419
2.6150,88.60518317,21.41401382,1266.12362
2.6200,88.11125233,21.55742989,1266.379754
2.6250,87.62489501,21.70354702,1266.634261
2.6300,87.14577009,21.85155756,1266.887075
2.6350,86.67423896,22.00287463,1267.138363
2.6400,86.21132188,22.1576609,1267.387667
2.6450,85.75750904,22.31655619,1267.634902
2.6500,85.31314303,22.47834086,1267.879549
2.6550,84.87693523,22.64378812,1268.122368
2.6600,84.44921033,22.8114998,1268.362818
2.6650,84.02907501,22.98142452,1268.601287
2.6700,83.61637936,23.15339611,1268.837779
2.6750,83.20888207,23.32659408,1269.073116
2.6800,82.80621252,23.49988453,1269.307137
2.6850,82.40831395,23.67320069,1269.539837
2.6900,82.01376008,23.84512865,1269.771505
2.6950,81.62309561,24.01628568,1270.002046
2.7000,81.2362525,24.18761956,1270.231739
2.7050,80.85307539,24.3594005,1270.460699
2.7100,80.4735057,24.5314245,1270.688903
2.7150,80.09700128,24.7040275,1270.916736
2.7200,79.72294781,24.87643301,1271.144272
2.7250,79.35141934,25.04836902,1271.371342
2.7300,78.98268407,25.22193173,1271.59839
2.7350,78.61634557,25.39601323,1271.825237
2.7400,78.25252557,25.57096888,1272.051967
2.7450,77.89122032,25.74605902,1272.278356
2.7500,77.53152024,25.92114064,1272.504828
2.7550,77.17218486,26.0958873,1272.731902
2.7600,76.81259153,26.2711194,1272.960112
2.7650,76.45340754,26.44648621,1273.189001
2.7700,76.09517393,26.62277037,1273.418501
2.7750,75.73775372,26.80012669,1273.64874
2.7800,75.38247897,26.97780589,1273.87886
2.7850,75.02843473,27.15510176,1274.109056
2.7900,74.67592863,27.33261234,1274.33934
2.7950,74.32486312,27.51030769,1274.569729
2.8000,73.97559087,27.68916696,1274.800298
2.8050,73.62989311,27.8678226,1275.029721
2.8100,73.28698052,28.04530091,1275.258119
2.8150,72.94484073,28.22135431,1275.486452
2.8200,72.60443411,28.39569217,1275.714105
2.8250,72.2664383,28.56952677,1275.941068
2.8300,71.92953218,28.74102149,1276.167457
2.8350,71.59498809,28.91112798,1276.392853
2.8400,71.26277395,29.07861294,1276.616892
2.8450,70.93325796,29.24320552,1276.839276
2.8500,70.60564121,29.4038839,1277.060105
2.8550,70.2790814,29.56020329,1277.27967
2.8600,69.9539926,29.7126449,1277.497903
2.8650,69.62942795,29.86092085,1277.715254
2.8700,69.30522937,30.00481175,1277.931701
2.8750,68.98090164,30.14354313,1278.147292
2.8800,68.65712974,30.27732383,1278.361709
2.8850,68.33245419,30.40746144,1278.576149
2.8900,68.00734811,30.53336773,1278.790125
2.8950,67.68317685,30.65644021,1279.003318
2.9000,67.35796153,30.77584396,1279.216521
2.9050,67.03397899,30.89266492,1279.428805
2.9100,66.7119137,31.00817409,1279.640151
2.9150,66.39268309,31.12261855,1279.850088
2.9200,66.07692208,31.23596391,1280.058248
2.9250,65.76639045,31.34775226,1280.263518
2.9300,65.46112032,31.45727841,1280.465619
2.9350,65.16166812,31.56359106,1280.663966
2.9400,64.86630556,31.66517737,1280.859021
2.9450,64.57538231,31.76180893,1281.050491
2.9500,64.28788238,31.85388921,1281.239054
2.9550,64.00526042,31.94120285,1281.423844
2.9600,63.72608994,32.02532894,1281.606119
2.9650,63.45089843,32.10510302,1281.785227
2.9700,63.1806942,32.18037887,1281.960518
2.9750,62.91486606,32.25078968,1282.132203
2.9800,62.65482103,32.31692092,1282.299668
2.9850,62.39956871,32.37918355,1282.463572
2.9900,62.14965648,32.43840228,1282.623875
2.9950,61.90465778,32.4943528,1282.780693
3.0000,61.66396948,32.54597871,1282.934045
3.0050,61.42771622,32.59346021,1283.083923
3.0100,61.19509389,32.63718432,1283.230854
3.0150,60.96725327,32.67803921,1283.374404
3.0200,60.74473491,32.71698315,1283.514544
3.0250,60.52838038,32.75535751,1283.651155
3.0300,60.31941965,32.79242979,1283.783292
3.0350,60.11904935,32.82847971,1283.910356
3.0400,59.92537609,32.86141126,1284.032764
3.0450,59.73784151,32.89079698,1284.150717
3.0500,59.55611903,32.91614804,1284.264286
3.0550,59.3798851,32.93723815,1284.37359
3.0600,59.20856636,32.95227181,1284.478418
3.0650,59.04179112,32.96148096,1284.579119
3.0700,58.87755835,32.96326641,1284.676397
3.0750,58.71531327,32.95754911,1284.770579
3.0800,58.55201371,32.94262755,1284.862936
3.0850,58.38786196,32.91989438,1284.953827
3.0900,58.22215371,32.88865825,1285.0435
3.0950,58.05394533,32.85066801,1285.133082
3.1000,57.88178433,32.80545287,1285.22336
3.1050,57.7043709,32.75399057,1285.315414
3.1100,57.52055144,32.69836934,1285.410582
3.1150,57.33220723,32.64097879,1285.508512
3.1200,57.13924361,32.58329235,1285.609733
3.1250,56.94181245,32.52604136,1285.714321
3.1300,56.7396524,32.47211674,1285.823348
3.1350,56.53258625,32.42255103,1285.937206
3.1400,56.32106237,32.37938444,1286.056238
3.1450,56.10539133,32.34441131,1286.180796
3.1500,55.88751216,32.31776283,1286.309701
3.1550,55.66833756,32.30074641,1286.442786
3.1600,55.44856781,32.29404842,1286.579751
3.1650,55.22991509,32.29837702,1286.719723
3.1700,55.01492195,32.31431024,1286.86135
3.1750,54.80506724,32.34202031,1287.00375
3.1800,54.60026392,32.38094583,1287.146763
3.1850,54.40087228,32.42985982,1287.289765
3.1900,54.20762249,32.48848247,1287.432243
3.1950,54.01998645,32.55612263,1287.574263
3.2000,53.83922649,32.6323608,1287.714968
3.2050,53.66596384,32.71688745,1287.853832
3.2100,53.49952014,32.80847422,1287.990907
3.2150,53.34168029,32.90586948,1288.12475
3.2200,53.19109193,33.00948538,1288.256251
3.2250,53.047215,33.11776807,1288.385271
3.2300,52.90998991,33.23232635,1288.512328
3.2350,52.78040222,33.35238074,1288.636534
3.2400,52.65903222,33.47907447,1288.757884
3.2450,52.54604051,33.61115335,1288.875888
3.2500,52.44075352,33.74870467,1288.991021
3.2550,52.34319444,33.89209738,1289.103381
3.2600,52.25380698,34.03874802,1289.211882
3.2650,52.1721623,34.18991817,1289.317175
3.2700,52.0968141,34.3449049,1289.419964
3.2750,52.02847934,34.50377029,1289.519817
3.2800,51.96558562,34.66593661,1289.617521
3.2850,51.90891318,34.83034505,1289.712252
3.2900,51.85687184,34.99644771,1289.804786
3.2950,51.80964484,35.16442987,1289.895059
3.3000,51.76593414,35.33338016,1289.983571
3.3050,51.72527313,35.50330869,1290.070595
3.3100,51.68781271,35.67500552,1290.156298
3.3150,51.65163333,35.84765378,1290.241623
3.3200,51.61577771,36.02127883,1290.327175
3.3250,51.57815174,36.19522484,1290.414091
3.3300,51.53621796,36.36971603,1290.504036
3.3350,51.48869609,36.5453032,1290.598001
3.3400,51.43474271,36.72296754,1290.696845
3.3450,51.37410538,36.90360138,1290.801035
3.3500,51.30495437,37.08752803,1290.911824
3.3550,51.22749121,37.27447719,1291.029022
3.3600,51.1394692,37.46510094,1291.15431
3.3650,51.03889255,37.65839367,1291.288584
3.3700,50.92507169,37.85485491,1291.432507
3.3750,50.79650924,38.05379978,1291.586829
3.3800,50.65356149,38.25606498,1291.751649
3.3850,50.4944324,38.46145277,1291.928115
3.3900,50.31734821,38.66959641,1292.117278
3.3950,50.12260392,38.88021841,1292.318933
3.4000,49.90948616,39.09259717,1292.533308
3.4050,49.67877944,39.30800772,1292.7604
3.4100,49.4313597,39.52632253,1292.999687
3.4150,49.16614993,39.74642073,1293.251528
3.4200,48.88410519,39.96769349,1293.515165
3.4250,48.58530024,40.19042607,1293.790728
3.4300,48.27125058,40.41427453,1294.077154
3.4350,47.94293241,40.63849017,1294.373613
3.4400,47.60202535,40.86236823,1294.678837
3.4450,47.2496168,41.08523217,1294.991898
3.4500,46.88751599,41.30859448,1295.31222
3.4550,46.51669626,41.53106768,1295.638753
3.4600,46.13868946,41.75295223,1295.970642
3.4650,45.75336845,41.97232096,1296.307381
3.4700,45.36107081,42.188481,1296.648493
3.4750,44.96307945,42.40140252,1296.993163
3.4800,44.5613923,42.61115755,1297.34012
3.4850,44.15838582,42.81675711,1297.687432
3.4900,43.75458568,43.01696388,1298.03432
3.4950,43.35085172,43.21005769,1298.379562
3.5000,42.94711204,43.39520265,1298.722861
3.5050,42.54339876,43.57124063,1299.063758
3.5100,42.13995396,43.73627458,1299.401395
3.5150,41.7362199,43.89015601,1299.736043
3.5200,41.33263496,44.03071325,1300.06661
3.5250,40.93006578,44.1576202,1300.39232
3.5300,40.52889715,44.26905764,1300.712243
3.5350,40.12707499,44.36401807,1301.027432
3.5400,39.72551559,44.44212533,1301.337074
3.5450,39.32348662,44.50332396,1301.641594
3.5500,38.92075751,44.54737857,1301.941013
3.5550,38.51743829,44.57406127,1302.235137
3.5600,38.11382521,44.58317659,1302.523663
3.5650,37.70996057,44.57489777,1302.806596
3.5700,37.30524317,44.54881125,1303.084198
3.5750,36.90013992,44.50586666,1303.35647
3.5800,36.49460257,44.44651213,1303.623571
3.5850,36.08712396,44.37089909,1303.886655
3.5900,35.67835234,44.27955149,1304.145476
3.5950,35.26779302,44.17252005,1304.400427
3.6000,34.85694282,44.05158801,1304.651156
3.6050,34.44445368,43.91684721,1304.898696
3.6100,34.03036845,43.76930282,1305.143417
3.6150,33.61563514,43.61020621,1305.385135
3.6200,33.20063933,43.44023771,1305.623838
3.6250,32.78615966,43.26082669,1305.859468
3.6300,32.37245144,43.07245944,1306.092007
3.6350,31.95897142,42.87646644,1306.322378
3.6400,31.54613281,42.67390647,1306.550701
3.6450,31.13327034,42.46589223,1306.777883
3.6500,30.72238812,42.25277147,1307.002611
3.6550,30.31230571,42.03650404,1307.226479
3.6600,29.90301729,41.81818633,1307.449922
3.6650,29.49591584,41.59869345,1307.672212
3.6700,29.09089096,41.38030508,1307.89429
3.6750,28.68820289,41.16290896,1308.115939
3.6800,28.2880221,40.94832682,1308.337696
3.6850,27.89125121,40.73683732,1308.559002
3.6900,27.49851193,40.5309625,1308.780291
3.6950,27.10950626,40.3299578,1309.001475
3.7000,26.72517807,40.13591008,1309.222598
3.7050,26.34556101,39.95004981,1309.444053
3.7100,25.97071821,39.7722641,1309.665751
3.7150,25.60117884,39.60260624,1309.887246
3.7200,25.23735789,39.44207424,1310.108547
3.7250,24.8790029,39.2921722,1310.330367
3.7300,24.52699783,39.15227916,1310.551786
3.7350,24.18186227,39.02287266,1310.772537
3.7400,23.84377671,38.90385493,1310.992381
3.7450,23.51266304,38.79600793,1311.211644
3.7500,23.18857985,38.69780039,1311.429689
3.7550,22.87204608,38.60971323,1311.64621
3.7600,22.56256173,38.53099949,1311.861288
3.7650,22.26170032,38.46186545,1312.073711
3.7700,21.96969765,38.40333303,1312.283603
3.7750,21.68620599,38.35397638,1312.490644
3.7800,21.41169159,38.31295153,1312.694161
3.7850,21.14498056,38.28078699,1312.895256
3.7900,20.88676729,38.25746454,1313.09328
3.7950,20.63670345,38.24311939,1313.288539
3.8000,20.39614231,38.2381257,1313.480058
3.8050,20.16571749,38.24056444,1313.666623
3.8100,19.94626906,38.25158829,1313.847911
3.8150,19.73739735,38.2696961,1314.023673
3.8200,19.53996644,38.29534137,1314.193327
3.8250,19.35481289,38.32838508,1314.356133
3.8300,19.1824455,38.36819044,1314.511402
3.8350,19.02341078,38.41489535,1314.658651
3.8400,18.87792089,38.46807395,1314.797571
3.8450,18.74552743,38.52683546,1314.928119
3.8500,18.62820109,38.59175732,1315.048897
3.8550,18.5259808,38.66180112,1315.159456
3.8600,18.43801365,38.73646311,1315.260305
3.8650,18.36458021,38.81536724,1315.351048
3.8700,18.30716652,38.89864652,1315.430467
3.8750,18.2646828,38.98626627,1315.499434
3.8800,18.23733869,39.07616271,1315.557004
3.8850,18.22607152,39.16921053,1315.602696
3.8900,18.23105113,39.26432619,1315.635942
3.8950,18.25162197,39.3617941,1315.657363
3.9000,18.28809492,39.46103603,1315.66647
3.9050,18.34096372,39.56175906,1315.662729
3.9100,18.4101643,39.66286909,1315.645819
3.9150,18.49543238,39.76474688,1315.616065
3.9200,18.59614865,39.86718431,1315.573923
3.9250,18.71178049,39.96936559,1315.519556
3.9300,18.84230212,40.07126499,1315.453013
3.9350,18.98720965,40.17247829,1315.37457
3.9400,19.14727912,40.27337096,1315.283753
3.9450,19.32210419,40.37360088,1315.180832
3.9500,19.51015656,40.47379152,1315.067273
3.9550,19.71163711,40.57188769,1314.942222
3.9600,19.92645758,40.6683919,1314.805968
3.9650,20.15304936,40.76330165,1314.659849
3.9700,20.39121726,40.85514433,1314.503523
3.9750,20.64041672,40.94544233,1314.338035
3.9800,20.89935443,41.03357355,1314.164256
3.9850,21.16780746,41.12045819,1313.982689
3.9900,21.44530482,41.20533313,1313.793494
3.9950,21.73144113,41.28989816,1313.59769
4.0000,22.02526399,41.37308818,1313.395645
4.0050,22.32513314,41.4534764,1313.188176
4.0100,22.63037196,41.53129231,1312.975916
4.0150,22.93919904,41.60603522,1312.76013
4.0200,23.2510813,41.67865305,1312.541598
4.0250,23.56541806,41.74750963,1312.32022
4.0300,23.88076348,41.81376974,1312.097537
4.0350,24.19677656,41.87684908,1311.873621
4.0400,24.51267816,41.93693594,1311.649138
4.0450,24.82849041,41.99391512,1311.424041
4.0500,25.14394072,42.04779776,1311.198521
4.0550,25.45881895,42.09908707,1310.972928
4.0600,25.77365526,42.14751824,1310.746784
4.0650,26.08783207,42.19271402,1310.520355
4.0700,26.40146306,42.23459531,1310.293559
4.0750,26.71489911,42.27353985,1310.066235
4.0800,27.02704051,42.30982483,1309.839289
4.0850,27.33817139,42.3426634,1309.612197
4.0900,27.64984239,42.37237371,1309.383918
4.0950,27.96185293,42.39903474,1309.154645
4.1000,28.27485628,42.42274156,1308.923896
4.1050,28.58873512,42.4442801,1308.692071
4.1100,28.90399573,42.46325993,1308.458639
4.1150,29.22200551,42.48062428,1308.222907
4.1200,29.54252518,42.49538353,1307.984735
4.1250,29.86502383,42.50809855,1307.744711
4.1300,30.1886209,42.51911438,1307.503632
4.1350,30.51426348,42.52737338,1307.260412
4.1400,30.84045638,42.53275274,1307.016084
4.1450,31.16824822,42.53547663,1306.770012
4.1500,31.4955872,42.53371639,1306.522984
4.1550,31.82211555,42.52762858,1306.275321
4.1600,32.14764962,42.51768583,1306.027296
4.1650,32.47183335,42.502053,1305.778489
4.1700,32.79429938,42.48174469,1305.529567
4.1750,33.11489046,42.45534945,1305.28009
4.1800,33.43474404,42.42330354,1305.029388
4.1850,33.75272062,42.38402221,1304.777725
4.1900,34.06983281,42.3386078,1304.524769
4.1950,34.38644904,42.28585293,1304.269829
4.2000,34.70139234,42.22547764,1304.013667
4.2050,35.01547701,42.15854843,1303.756091
4.2100,35.32816506,42.08478159,1303.497394
4.2150,35.63826474,42.00312768,1303.238051
4.2200,35.94644975,41.91361685,1302.97761
4.2250,36.25278785,41.81670682,1302.71623
4.2300,36.55680632,41.71286272,1302.454428
4.2350,36.85920777,41.60131036,1302.191415
4.2400,37.15940494,41.48166306,1301.927467
4.2450,37.4569599,41.35410317,1301.662962
4.2500,37.75185134,41.2181301,1301.397769
4.2550,38.04408366,41.07571148,1301.132574
4.2600,38.33333541,40.9262769,1300.867388
4.2650,38.61920269,40.77032626,1300.602685
4.2700,38.90175339,40.6086562,1300.338695
4.2750,39.18099626,40.44074163,1300.075235
4.2800,39.45747971,40.26701381,1299.812128
4.2850,39.72918171,40.08700956,1299.55062
4.2900,39.99610384,39.90084339,1299.290737
4.2950,40.25777053,39.70823961,1299.032701
4.3000,40.51437275,39.51027549,1298.776802
4.3050,40.76651338,39.30734433,1298.522751
4.3100,41.01484211,39.09913382,1298.269987
4.3150,41.25971931,38.88752758,1298.018946
4.3200,41.50141593,38.6716582,1297.769152
4.3250,41.74149231,38.45382631,1297.52033
4.3300,41.97973876,38.23460369,1297.272826
4.3350,42.21709495,38.01381985,1297.02596
4.3400,42.45349631,37.79303032,1296.780324
4.3450,42.68910877,37.57172944,1296.535624
4.3500,42.92381339,37.35110202,1296.29235
4.3550,43.15710608,37.13076706,1296.050729
4.3600,43.38858903,36.91100429,1295.8111
4.3650,43.61868586,36.69179594,1295.573215
4.3700,43.84768149,36.47306552,1295.336853
4.3750,44.07519385,36.25604722,1295.102708
4.3800,44.30236525,36.04062442,1294.869981
4.3850,44.52945836,35.82743476,1294.638662
4.3900,44.75652175,35.61746932,1294.409062
4.3950,44.98501821,35.41101013,1294.180308
4.4000,45.2135177,35.20717749,1293.953053
4.4050,45.44228795,35.00563541,1293.727
4.4100,45.67199733,34.80573046,1293.501525
4.4150,45.90174285,34.60775437,1293.277296
4.4200,46.13283777,34.41183774,1293.053493
4.4250,46.36486195,34.2167457,1292.829985
4.4300,46.60001314,34.02425498,1292.6059
4.4350,46.83777144,33.8348941,1292.3818
4.4400,47.08026696,33.64802592,1292.156083
4.4450,47.32697962,33.46390434,1291.929159
4.4500,47.57984455,33.28403055,1291.700302
4.4550,47.83912455,33.10867608,1291.46945
4.4600,48.10627425,32.93660191,1291.235297
4.4650,48.3816915,32.76887916,1290.997965
4.4700,48.66447603,32.60379006,1290.757473
4.4750,48.95445103,32.44044657,1290.513674
4.4800,49.25123655,32.27943522,1290.267037
4.4850,49.55515622,32.12056866,1290.017316
4.4900,49.86491037,31.96277533,1289.765001
4.4950,50.18170397,31.80622727,1289.509425
4.5000,50.5056706,31.65031819,1289.250322
4.5050,50.83562507,31.49443044,1288.988285
4.5100,51.17241171,31.33971484,1288.72314
4.5150,51.51710626,31.18608379,1288.454258
4.5200,51.87000679,31.0350324,1288.181974
4.5250,52.23163086,30.88527597,1287.905591
4.5300,52.60190528,30.73581962,1287.62489
4.5350,52.98009376,30.58722346,1287.340593
4.5400,53.36541067,30.43882538,1287.053018
4.5450,53.75900282,30.29022502,1286.761428
4.5500,54.15973409,30.14108431,1286.466459
4.5550,54.56798297,29.99234233,1286.168199
4.5600,54.98412864,29.84403052,1285.866498
4.5650,55.40795463,29.69597256,1285.561473
4.5700,55.83892104,29.54805748,1285.253472
4.5750,56.27662628,29.40056782,1284.942864
4.5800,56.72095317,29.2537642,1284.62982
4.5850,57.17207003,29.10845007,1284.314541
4.5900,57.62960618,28.96541682,1283.997521
4.5950,58.09365132,28.82479213,1283.678772
4.6000,58.56421549,28.68618832,1283.358177
4.6050,59.04122846,28.54882604,1283.035596
4.6100,59.52350786,28.4131998,1282.711904
4.6150,60.01109784,28.27882476,1282.38696
4.6200,60.50384062,28.14607826,1282.06099
4.6250,61.00027771,28.01302567,1281.734341
4.6300,61.50209214,27.88005778,1281.406204
4.6350,62.00791999,27.746869,1281.077303
4.6400,62.51948829,27.61362959,1280.74677
4.6450,63.03585888,27.48110769,1280.415397
4.6500,63.55706801,27.34903802,1280.083168
4.6550,64.08326326,27.2183666,1279.750289
4.6600,64.61428266,27.08832248,1279.416681
4.6650,65.15014349,26.96026174,1279.082733
4.6700,65.69045371,26.83407021,1278.748632
4.6750,66.23581127,26.7087098,1278.413772
4.6800,66.78554466,26.58382955,1278.078428
4.6850,67.33976287,26.45806644,1277.742185
4.6900,67.89642206,26.33096839,1277.40603
4.6950,68.45609788,26.20273418,1277.069697
4.7000,69.01947797,26.07383484,1276.732957
4.7050,69.58724133,25.94577208,1276.395876
4.7100,70.15820491,25.81828238,1276.059023
4.7150,70.73286525,25.69088329,1275.722055
4.7200,71.31178431,25.56469878,1275.384982
4.7250,71.89439429,25.43919037,1275.04799
4.7300,72.47933387,25.31374748,1274.711623
4.7350,73.0671927,25.18815803,1274.375508
4.7400,73.65690355,25.06288899,1274.040344
4.7450,74.24944377,24.93689339,1273.705351
4.7500,74.84400999,24.80977929,1273.370823
4.7550,75.43964379,24.67940751,1273.036676
4.7600,76.03578598,24.54805198,1272.703828
4.7650,76.6323712,24.41548366,1272.37224
4.7700,77.23007966,24.28192027,1272.041615
4.7750,77.82971887,24.14777343,1271.711692
4.7800,78.42993025,24.01272904,1271.383099
4.7850,79.03051159,23.87647862,1271.055813
4.7900,79.6317603,23.73903474,1270.729688
4.7950,80.2328826,23.60117186,1270.405314
4.8000,80.83364644,23.4629901,1270.082854
4.8050,81.4346392,23.32456461,1269.76202
4.8100,82.03587287,23.18372259,1269.442201
4.8150,82.63724205,23.0403743,1269.123426
4.8200,83.23954447,22.89310985,1268.80492
4.8250,83.84128651,22.74355218,1268.487857
4.8300,84.44322384,22.59247962,1268.172088
4.8350,85.04649232,22.44057537,1267.857257
4.8400,85.65170398,22.28868938,1267.543357
4.8450,86.25847825,22.13714692,1267.230639
4.8500,86.8687001,21.98643957,1266.918376
4.8550,87.48030006,21.83500292,1266.607146
4.8600,88.0929011,21.68326012,1266.297218
4.8650,88.70615599,21.53193064,1265.98895
4.8700,89.31996328,21.37937998,1265.681941
4.8750,89.9338147,21.22568519,1265.376414
4.8800,90.54784194,21.07012963,1265.072098
4.8850,91.16226196,20.91244425,1264.768853
4.8900,91.77753172,20.75150186,1264.466175
4.8950,92.39384276,20.58749177,1264.164061
4.9000,93.0113566,20.42057105,1263.862549
4.9050,93.63109636,20.25213993,1263.561592
4.9100,94.25341634,20.08280931,1263.261269
4.9150,94.87927368,19.91304495,1262.961314
4.9200,95.50673073,19.74258231,1262.662558
4.9250,96.13673863,19.57181509,1262.364682
4.9300,96.76730892,19.39992343,1262.068301
4.9350,97.39837886,19.22716043,1261.773499
4.9400,98.02702344,19.05216765,1261.481137
4.9450,98.6536781,18.8744475,1261.190881
4.9500,99.27726327,18.69282691,1260.902845
4.9550,99.89782436,18.50736494,1260.617015
4.9600,100.5141763,18.31960515,1260.334245
4.9650,101.1257115,18.12873007,1260.054561
4.9700,101.7332586,17.93524373,1259.777727
4.9750,102.336824,17.74021398,1259.503997
4.9800,102.936782,17.54479466,1259.233496
4.9850,103.5324099,17.35153367,1258.967151
4.9900,104.1223498,17.15976866,1258.705322
4.9950,104.7047869,16.9691485,1258.448661
5.0000,105.2798291,16.78002551,1258.197162
5.0050,105.8466669,16.59230826,1257.951091
5.0100,106.4063734,16.40717661,1257.710252
5.0150,106.9583958,16.22575188,1257.475073
5.0200,107.5014978,16.04784003,1257.245977
5.0250,108.034788,15.87360837,1257.023263
5.0300,108.5592882,15.70307443,1256.806483
5.0350,109.0758943,15.53661901,1256.595296
5.0400,109.5855287,15.37410712,1256.389258
5.0450,110.0868499,15.21612559,1256.189016
5.0500,110.5804597,15.06260873,1255.994258
5.0550,111.0668147,14.9151651,1255.805143
5.0600,111.54639,14.77149054,1255.620859
5.0650,112.0195891,14.63192665,1255.441303
5.0700,112.4851737,14.49624617,1255.266825
5.0750,112.9427276,14.36516277,1255.097695
5.0800,113.391772,14.23825373,1254.933864
5.0850,113.8322319,14.11597209,1254.775409
5.0900,114.2654341,13.99955462,1254.622092
5.0950,114.690861,13.8886423,1254.473957
5.1000,115.1103622,13.78324107,1254.330255
5.1050,115.525758,13.68229961,1254.19006
5.1100,115.9367843,13.58716813,1254.053771
5.1150,116.3447833,13.49714353,1253.920715
5.1200,116.7485263,13.41127983,1253.791101
5.1250,117.1483631,13.32846917,1253.664579
5.1300,117.5452263,13.24851002,1253.540776
5.1350,117.9389022,13.17215405,1253.419943
5.1400,118.3305352,13.09970824,1253.301738
5.1450,118.7210609,13.03306676,1253.186292
5.1500,119.1088523,12.97346344,1253.074459
5.1550,119.4973934,12.92085708,1252.965011
5.1600,119.8878507,12.87551953,1252.857583
5.1650,120.2828158,12.83831174,1252.751463
5.1700,120.6843831,12.81014495,1252.646152
5.1750,121.0931796,12.79120945,1252.541483
5.1800,121.5089509,12.78240068,1252.43776
5.1850,121.9332447,12.78342632,1252.334367
5.1900,122.3664481,12.79573768,1252.231489
5.1950,122.8084043,12.81877556,1252.129065
5.2000,123.2583064,12.85114694,1252.027022
5.2050,123.7143749,12.89230554,1251.925848
5.2100,124.1767056,12.94130241,1251.825257
5.2150,124.6448707,12.99641875,1251.724981
5.2200,125.1193719,13.05774835,1251.624875
5.2250,125.5992022,13.12474203,1251.52516
5.2300,126.0849945,13.19600906,1251.425345
5.2350,126.5753187,13.27254501,1251.326125
5.2400,127.0719445,13.35474612,1251.227115
5.2450,127.573678,13.44141139,1251.12841
5.2500,128.0807916,13.5334715,1251.030192
5.2550,128.592321,13.62975891,1250.932533
5.2600,129.1079909,13.72836396,1250.83509
5.2650,129.6269526,13.82890017,1250.738081
5.2700,130.1468857,13.92993371,1250.641901
5.2750,130.6669616,14.02976348,1250.546393
5.2800,131.18585,14.12721932,1250.451651
5.2850,131.7025534,14.22011729,1250.357437
5.2900,132.2189131,14.30723182,1250.262836
5.2950,132.7353969,14.38842687,1250.167597
5.3000,133.2507908,14.46343635,1250.071994
5.3050,133.7646377,14.53267943,1249.976239
5.3100,134.2749551,14.59522835,1249.880684
5.3150,134.78208,14.65123388,1249.785238
5.3200,135.2858807,14.69990719,1249.68966
5.3250,135.7883297,14.74376273,1249.593944
5.3300,136.287731,14.78281198,1249.498567
5.3350,136.782914,14.8179756,1249.404057
5.3400,137.2724944,14.84770014,1249.310425
5.3450,137.7563653,14.87384174,1249.218075
5.3500,138.2327334,14.89434857,1249.127017
5.3550,138.7011668,14.90857767,1249.037176
5.3600,139.1592442,14.91787855,1248.949555
5.3650,139.6055534,14.92119732,1248.864234
5.3700,140.0393179,14.91955277,1248.781623
5.3750,140.4622216,14.91342182,1248.701314
5.3800,140.8747866,14.90402933,1248.62343
5.3850,141.2780745,14.89117716,1248.5476
5.3900,141.6711566,14.87559588,1248.474236
5.3950,142.053722,14.85787723,1248.403557
5.4000,142.42564,14.83907826,1248.335841
5.4050,142.7864391,14.82051136,1248.271503
5.4100,143.1375347,14.80407663,1248.210589
5.4150,143.4797486,14.78980935,1248.152868
5.4200,143.8146451,14.78029811,1248.098538
5.4250,144.1449455,14.77659874,1248.047079
5.4300,144.4710877,14.78063946,1247.998826
5.4350,144.7941243,14.79106313,1247.953117
5.4400,145.1149713,14.8083482,1247.909792
5.4450,145.4337932,14.83048305,1247.868311
5.4500,145.7525124,14.85693225,1247.828002
5.4550,146.0691839,14.88732815,1247.789276
5.4600,146.3847774,14.92022445,1247.75152
5.4650,146.6980084,14.95577847,1247.715084
5.4700,147.0088779,14.99255715,1247.679602
5.4750,147.3182311,15.03034338,1247.644793
5.4800,147.627112,15.06787724,1247.610078
5.4850,147.9359871,15.10500322,1247.575268
5.4900,148.2457502,15.1406455,1247.539908
5.4950,148.5572759,15.17506088,1247.503821
5.5000,148.8731931,15.20982901,1247.466703
5.5050,149.1951717,15.2449251,1247.428137
5.5100,149.5247408,15.28074479,1247.387856
5.5150,149.8609995,15.31850117,1247.346373
5.5200,150.206132,15.35780416,1247.303081
5.5250,150.5615488,15.39828231,1247.257556
5.5300,150.9271419,15.44002447,1247.209875
5.5350,151.3049793,15.479931,1247.158838
5.5400,151.6933807,15.51835935,1247.104933
5.5450,152.0936659,15.55401243,1247.047603
5.5500,152.5045449,15.58518559,1246.986779
5.5550,152.9274227,15.61051195,1246.921848
5.5600,153.3607936,15.62919829,1246.853031
5.5650,153.8045932,15.64109454,1246.780366
5.5700,154.2577318,15.64591406,1246.704105
5.5750,154.7195326,15.64313386,1246.624331
5.5800,155.1883281,15.63270167,1246.541489
5.5850,155.6639636,15.61488798,1246.455705
5.5900,156.1437419,15.59151017,1246.368088
5.5950,156.6257795,15.56319725,1246.279253
5.6000,157.1095848,15.53027625,1246.189409
5.6050,157.5933085,15.49347116,1246.099138
5.6100,158.0783905,15.452573,1246.00809
5.6150,158.5635002,15.40801957,1245.916625
5.6200,159.0475772,15.36191243,1245.825496
5.6250,159.5288331,15.31290231,1245.734761
5.6300,160.007509,15.26262952,1245.644727
5.6350,160.4831538,15.21110838,1245.555479
5.6400,160.9558326,15.16162618,1245.467761
5.6450,161.4251292,15.11456335,1245.381718
5.6500,161.8922017,15.07268255,1245.29774
5.6550,162.3556203,15.03708108,1245.216345
5.6600,162.8164334,15.0088238,1245.137542
5.6650,163.2738761,14.98963585,1245.061866
5.6700,163.7284544,14.97874996,1244.98903
5.6750,164.1766712,14.97641416,1244.919772
5.6800,164.6181377,14.98083234,1244.853724
5.6850,165.0514925,14.99278061,1244.791321
5.6900,165.4767966,15.00992249,1244.731982
5.6950,165.8935102,15.03128731,1244.675562
5.7000,166.301089,15.05556104,1244.621825
5.7050,166.6989436,15.08325109,1244.570997
5.7100,167.087046,15.11219877,1244.522545
5.7150,167.4642477,15.14307753,1244.476824
5.7200,167.830604,15.17604646,1244.433834
5.7250,168.1853682,15.21094142,1244.393655
5.7300,168.5293492,15.24712095,1244.355946
5.7350,168.8626286,15.28538451,1244.32087
5.7400,169.1855797,15.32659975,1244.288551
5.7450,169.4998837,15.37073893,1244.258635
5.7500,169.8077838,15.41775519,1244.230709
5.7550,170.1120308,15.46948369,1244.204682
5.7600,170.4134054,15.52690881,1244.180646
5.7650,170.7144276,15.58944163,1244.158004
5.7700,171.0163581,15.65863783,1244.136893
5.7750,171.3208431,15.73414336,1244.116924
5.7800,171.6298543,15.81604207,1244.097772
5.7850,171.9435407,15.90501357,1244.079587
5.7900,172.2622176,16.00011957,1244.062089
5.7950,172.5859712,16.10097755,1244.04517
5.8000,172.9131455,16.20623013,1244.028829
5.8050,173.2431931,16.31583281,1244.013146
5.8100,173.5738033,16.42874477,1243.998273
5.8150,173.9074111,16.54390923,1243.983576
5.8200,174.2413834,16.66065305,1243.969344
5.8250,174.5748169,16.77980668,1243.955936
5.8300,174.9080236,16.90070028,1243.943149
5.8350,175.2402177,17.02465849,1243.931442
5.8400,175.5714515,17.15014891,1243.920446
5.8450,175.9009819,17.27792886,1243.910471
5.8500,176.229144,17.40830282,1243.901545
5.8550,176.5559173,17.54164078,1243.89375
5.8600,176.8826228,17.67823966,1243.88695
5.8650,177.2086815,17.81757271,1243.881105
5.8700,177.5358817,17.95949114,1243.875897
5.8750,177.8634504,18.10495537,1243.871685
5.8800,178.1929943,18.25329984,1243.868052
5.8850,178.5244943,18.40403019,1243.864902
5.8900,178.8594297,18.5564828,1243.861831
5.8950,179.197752,18.71129561,1243.859019
5.9000,179.5408819,18.86838883,1243.85624
5.9050,179.8896771,19.02636991,1243.853043
5.9100,180.2428919,19.18700407,1243.850064
5.9150,180.6002583,19.34940922,1243.847158
5.9200,180.9618654,19.51542015,1243.844788
5.9250,181.3286817,19.68586178,1243.843036
5.9300,181.6995334,19.86019776,1243.841973
5.9350,182.0727369,20.03931719,1243.842092
5.9400,182.4477201,20.2233039,1243.843514
5.9450,182.8242568,20.41158039,1243.84615
5.9500,183.199772,20.60320524,1243.85013
5.9550,183.574202,20.79805267,1243.855452
5.9600,183.9463534,20.9946664,1243.861907
5.9650,184.3158651,21.19281204,1243.869495
5.9700,184.6829131,21.39411018,1243.878607
5.9750,185.0484178,21.59781521,1243.888924
5.9800,185.4116027,21.80482255,1243.900776
5.9850,185.7734314,22.01563263,1243.914181
5.9900,186.1330529,22.23106943,1243.929455
5.9950,186.4922245,22.45232953,1243.946688
6.0000,186.8508927,22.67905047,1243.965808
6.0050,187.2086719,22.90992735,1243.986527
6.0100,187.5656513,23.14490046,1244.008827
6.0150,187.9230103,23.38425967,1244.032646
6.0200,188.2805861,23.6255442,1244.057352
6.0250,188.6378553,23.86858898,1244.082969
6.0300,188.9940331,24.1122203,1244.109273
6.0350,189.3486258,24.35633448,1244.136294
6.0400,189.7017714,24.59876742,1244.163424
6.0450,190.0524629,24.84090123,1244.191153
6.0500,190.4009765,25.08116981,1244.218991
6.0550,190.748149,25.3188885,1244.246662
6.0600,191.0954378,25.55310141,1244.273738
6.0650,191.4441134,25.78344584,1244.299974
6.0700,191.794713,26.0099092,1244.325285
6.0750,192.1491158,26.23359105,1244.349786
6.0800,192.5070418,26.45461159,1244.373549
6.0850,192.8694468,26.67179102,1244.396147
6.0900,193.2382812,26.88536058,1244.417463
6.0950,193.6147125,27.09523152,1244.437374
6.1000,194.0019602,27.30271579,1244.455932
6.1050,194.4009751,27.50726795,1244.47293
6.1100,194.8160566,27.70909857,1244.488041
6.1150,195.246898,27.90971885,1244.501771
6.1200,195.6956497,28.11002466,1244.514229
6.1250,196.1631472,28.30996395,1244.5254
6.1300,196.6491332,28.50998331,1244.535525
6.1350,197.1526076,28.7111912,1244.545093
6.1400,197.6747257,28.91308483,1244.553958
6.1450,198.2150627,29.11655778,1244.562497
6.1500,198.7719806,29.32095936,1244.570779
6.1550,199.3434847,29.52643712,1244.579114
6.1600,199.9270565,29.73368105,1244.587993
6.1650,200.2810445,31.50435393,1245.341494
6.1700,201.0859421,31.60293282,1245.273187
6.1750,201.8917045,31.70219361,1245.207718
6.1800,202.6971742,31.80201833,1245.145141
6.1850,203.5021148,31.9027207,1245.085409
6.1900,204.303935,32.00338709,1245.028401
6.1950,205.1027005,32.1039606,1244.974034
6.2000,205.8962719,32.20417029,1244.922357
6.2050,206.6833497,32.30390585,1244.873251
6.2100,207.4631208,32.40307714,1244.826721
6.2150,208.2356147,32.50166259,1244.782737
6.2200,209.0004157,32.59875634,1244.741058
6.2250,207.8839184,32.49783077,1244.805499
6.2300,208.4793232,32.70791441,1244.831418
6.2350,209.0698335,32.91556201,1244.858125
6.2400,209.6558897,33.12028133,1244.885421
6.2450,210.2379996,33.3212186,1244.913002
6.2500,210.8185375,33.52021203,1244.941253
6.2550,211.3973372,33.71657975,1244.969981
6.2600,211.9757855,33.91099984,1244.999306
6.2650,212.5554331,34.10318983,1245.029069
6.2700,213.1345428,34.29187505,1245.058973
6.2750,213.7143924,34.47654009,1245.088799
6.2800,214.2945446,34.65747976,1245.118646
6.2850,214.8746523,34.83340458,1245.148145
6.2900,215.454734,35.00376226,1245.177114
6.2950,216.0336786,35.16749535,1245.20527
6.3000,216.6116514,35.32522954,1245.232778
6.3050,217.1882792,35.47731389,1245.259743
6.3100,217.7624913,35.62306763,1245.285976
6.3150,218.3324857,35.76242346,1245.311491
6.3200,218.8969401,35.89600277,1245.336482
6.3250,219.4548512,36.02283635,1245.360635
6.3300,220.0061538,36.1434433,1245.384072
6.3350,220.5493518,36.2576396,1245.406729
6.3400,221.0838111,36.36591526,1245.428724
6.3450,221.6083135,36.46659657,1245.449511
6.3500,222.1224435,36.56139763,1245.469584
6.3550,222.6241542,36.6502264,1245.488874
6.3600,223.1116517,36.73390492,1245.5076
6.3650,223.5835948,36.81168857,1245.525476
6.3700,224.0399222,36.88340191,1245.542385
6.3750,224.4795983,36.94819597,1245.55801
6.3800,224.902359,37.00574172,1245.572181
6.3850,225.3089854,37.05507857,1245.584528
6.3900,225.699247,37.09630395,1245.595019
6.3950,226.0723915,37.12810664,1245.603188
6.4000,226.4276226,37.15033932,1245.60893
6.4050,226.765514,37.16325241,1245.612254
6.4100,227.0849282,37.16681339,1245.613106
6.4150,227.3859342,37.16048239,1245.611268
6.4200,227.6673839,37.1436921,1245.606509
6.4250,227.9292134,37.11623599,1245.598721
6.4300,228.1726078,37.08014958,1245.588494
6.4350,228.3971496,37.03503787,1245.575658
6.4400,228.6025875,36.98330144,1245.560925
6.4450,228.7878441,36.92425827,1245.544047
6.4500,228.9538765,36.86039692,1245.525755
6.4550,229.0994181,36.7915917,1245.505985
6.4600,229.2255518,36.71711673,1245.484504
6.4650,229.3316429,36.63919916,1245.46198
6.4700,229.4181224,36.55780446,1245.438383
6.4750,229.4842811,36.47327408,1245.413803
6.4800,229.530096,36.38680662,1245.388596
6.4850,229.5562499,36.29864755,1245.362844
6.4900,229.5657357,36.20978158,1245.336863
6.4950,229.55819,36.11872492,1245.310217
6.5000,229.535539,36.02687705,1245.283351
6.5050,229.5008369,35.93386388,1245.256163
6.5100,229.4544075,35.83947578,1245.228608
6.5150,229.3963766,35.74431792,1245.20087
6.5200,229.3285348,35.64734378,1245.172661
6.5250,229.2516414,35.547921,1245.143795
6.5300,229.1653062,35.44641055,1245.114384
6.5350,229.0718306,35.34140016,1245.084024
6.5400,228.9711971,35.2319189,1245.052435
6.5450,228.8642109,35.11934184,1245.02003
6.5500,228.7505738,35.00142141,1244.986152
6.5550,228.6308313,34.878669,1244.950956
6.5600,228.503859,34.7510053,1244.914422
6.5650,228.3689335,34.61846327,1244.876562
6.5700,228.2274203,34.48172152,1244.8376
6.5750,228.0781603,34.34198643,1244.7979
6.5800,227.9233288,34.19833019,1244.757205
6.5850,227.7620969,34.05154443,1244.715748
6.5900,227.5945143,33.9018756,1244.673617
6.5950,227.4213007,33.74931605,1244.630814
6.6000,227.2417289,33.59391423,1244.587364
6.6050,227.0557538,33.43513354,1244.543117
6.6100,226.8631181,33.27438712,1244.498492
6.6150,226.6655496,33.1109985,1244.453311
6.6200,226.4632732,32.94600098,1244.407879
6.6250,226.2581791,32.77978874,1244.36232
6.6300,226.0502879,32.61190391,1244.316507
6.6350,225.8420203,32.44281645,1244.270563
6.6400,225.6339573,32.27152564,1244.224201
6.6450,225.4265036,32.09924683,1244.177777
6.6500,225.2195323,31.92531929,1244.131092
6.6550,225.0137711,31.74940893,1244.084048
6.6600,224.8105765,31.57211983,1244.0368
6.6650,224.6096613,31.39304692,1243.989227
6.6700,224.4106736,31.21252464,1243.941436
6.6750,224.2134102,31.02969663,1243.893165
6.6800,224.0176501,30.8450226,1243.844548
6.6850,223.8241336,30.65952509,1243.795872
6.6900,223.6322034,30.47289036,1243.747048
6.6950,223.4419392,30.2865515,1243.698482
6.7000,223.2525346,30.09963325,1243.649927
6.7050,223.0645099,29.91255971,1243.601504
6.7100,222.8763805,29.72641087,1243.553527
6.7150,222.6887077,29.54108765,1243.505955
6.7200,222.501709,29.35688451,1243.458858
6.7250,222.3159202,29.17415828,1243.412336
6.7300,222.1303353,28.99232021,1243.366218
6.7350,221.945522,28.81129222,1243.320493
6.7400,221.7618623,28.62990504,1243.274812
6.7450,221.5793254,28.44804727,1243.229155
6.7500,221.3981175,28.26513874,1243.183344
6.7550,221.2187449,28.08217102,1243.137655
6.7600,221.041203,27.89997393,1243.092304
6.7650,220.8654432,27.71769672,1243.047055
6.7700,220.6908634,27.53581006,1243.002055
6.7750,220.5172764,27.35531124,1242.957577
6.7800,220.3442238,27.17638196,1242.913686
6.7850,220.1708208,26.99848466,1242.870244
6.7900,219.9959999,26.82147077,1242.827242
6.7950,219.8203499,26.64615463,1242.784874
6.8000,219.642529,26.47277891,1242.743249
6.8050,219.4608506,26.30162887,1242.702483
6.8100,219.2741468,26.13236664,1242.662508
6.8150,219.0835927,25.9648835,1242.623286
6.8200,218.8858224,25.79960632,1242.585014
6.8250,218.682411,25.63639766,1242.547628
6.8300,218.4721174,25.47444286,1242.51094
6.8350,218.2553534,25.31473723,1242.475231
6.8400,218.0307522,25.15738095,1242.440559
6.8450,217.7986315,25.00146556,1242.406693
6.8500,217.5581797,24.84751938,1242.373808
6.8550,217.3104542,24.69608323,1242.34202
6.8600,217.0563606,24.54610029,1242.311035
6.8650,216.79553,24.39874808,1242.281195
6.8700,216.5296057,24.25258865,1242.252053
6.8750,216.2587908,24.10708506,1242.223478
6.8800,215.982861,23.9630614,1242.195714
6.8850,215.702823,23.82042,1242.168689
6.8900,215.4183218,23.67939781,1242.142492
6.8950,215.1296098,23.53911992,1242.116894
6.9000,214.8363459,23.39974571,1242.091953
6.9050,214.5392308,23.26170629,1242.067761
6.9100,214.2392594,23.12340517,1242.043881
6.9150,213.9347356,22.98547317,1242.020533
6.9200,213.6266355,22.84670823,1241.997392
6.9250,213.3140965,22.70746282,1241.974591
6.9300,212.9964311,22.56766949,1241.95215
6.9350,212.6741149,22.42650722,1241.929865
6.9400,212.3453314,22.28491142,1241.90807
6.9450,212.0118791,22.14143343,1241.886321
6.9500,211.6738369,21.99663623,1241.864773
6.9550,211.3325032,21.85002371,1241.843264
6.9600,210.9875452,21.70063042,1241.821562
6.9650,210.6407537,21.54794443,1241.799468
6.9700,210.2934161,21.3916635,1241.776846
6.9750,209.9461344,21.23079108,1241.753417
6.9800,209.6021501,21.06444996,1241.728781
6.9850,209.2608894,20.89115702,1241.702589
6.9900,208.9241345,20.71064473,1241.674668
6.9950,208.594138,20.52119637,1241.644462
7.0000,208.2728495,20.32262468,1241.611792
7.0050,207.9610044,20.11384578,1241.576338
7.0100,207.6603746,19.89425198,1241.537829
7.0150,207.3716119,19.6638897,1241.496224
7.0200,207.0966011,19.42260811,1241.451366
7.0250,206.8347028,19.17017296,1241.403224
7.0300,206.5865934,18.90637655,1241.351698
7.0350,206.3525302,18.63190879,1241.296924
7.0400,206.1303213,18.34754453,1241.239228
7.0450,205.920359,18.05382093,1241.178714
7.0500,205.7215212,17.75051817,1241.115419
7.0550,205.5325206,17.43810164,1241.049532
7.0600,205.3523072,17.11661745,1240.98115
7.0650,205.1799107,16.78758719,1240.91071
7.0700,205.0139187,16.45123463,1240.838367
7.0750,204.8533267,16.10832469,1240.764393
7.0800,204.6968684,15.75897694,1240.688914
7.0850,204.5445384,15.4043469,1240.612217
7.0900,204.3945184,15.0446537,1240.534489
7.0950,204.2460548,14.68102914,1240.456061
7.1000,204.0974569,14.3131022,1240.376968
7.1050,203.9468201,13.94147242,1240.297509
7.1100,203.7943895,13.56748734,1240.218
7.1150,203.6385423,13.19129214,1240.1386
7.1200,203.4813612,12.81401945,1240.059427
7.1250,203.3206076,12.43636812,1239.980807
7.1300,203.1573062,12.05870837,1239.90277
7.1350,202.9899943,11.68170527,1239.825572
7.1400,202.8209652,11.30677778,1239.74937
7.1450,202.6480022,10.9341627,1239.674377
7.1500,202.4718762,10.56503158,1239.600792
7.1550,202.2921029,10.19901094,1239.528569
7.1600,202.1079878,9.8381851,1239.458217
7.1650,201.9201822,9.482028162,1239.389551
7.1700,201.7276685,9.131460596,1239.322854
7.1750,201.5301453,8.786347539,1239.258108
7.1800,201.327568,8.447340824,1239.195428
7.1850,201.1198618,8.113954344,1239.134728
7.1900,200.907967,7.785522825,1239.075761
7.1950,200.6911013,7.462694366,1239.018723
7.2000,200.4695744,7.144779558,1238.963427
7.2050,200.2441905,6.831166177,1238.909671
7.2100,200.0131205,6.523069257,1238.857857
7.2150,199.7779553,6.219243691,1238.807583
7.2200,199.5386406,5.920530388,1238.759015
7.2250,199.2960122,5.624883363,1238.71165
7.2300,199.0512322,5.333063948,1238.665543
7.2350,198.8039302,5.044557412,1238.620614
7.2400,198.5554473,4.758383159,1238.576528
7.2450,198.3057571,4.474540672,1238.533294
7.2500,198.056232,4.192512885,1238.490688
7.2550,197.8063676,3.911906052,1238.448661
7.2600,197.5565467,3.631721176,1238.406971
7.2650,197.3073975,3.351951838,1238.365557
7.2700,197.0596098,3.071950317,1238.324216
7.2750,196.8131245,2.791695415,1238.282941
7.2800,196.567954,2.511476633,1238.241775
7.2850,196.3242602,2.230699379,1238.200587
7.2900,196.081696,1.948281084,1238.159183
7.2950,195.8390913,1.665169834,1238.11786
7.3000,195.5964104,1.380406058,1238.076441
7.3050,195.352415,1.094105763,1238.035061
7.3100,195.107847,0.8063078573,1237.993665
7.3150,194.8627725,0.5163410366,1237.952117
7.3200,194.6153597,0.2237728877,1237.910522
7.3250,194.366893,-0.07096209478,1237.868836
7.3300,194.1166737,-0.3686331498,1237.826986
7.3350,193.8644024,-0.6683266735,1237.785198
7.3400,193.610932,-0.9711254447,1237.743174
7.3450,193.3556443,-1.275896484,1237.701212
7.3500,193.0980076,-1.582361981,1237.65941
7.3550,192.8382167,-1.889866203,1237.617895
7.3600,192.5762063,-2.197048688,1237.576928
7.3650,192.312396,-2.503660132,1237.536521
7.3700,192.0471389,-2.809887864,1237.496606
7.3750,191.7816834,-3.114142046,1237.45733
7.3800,191.5158262,-3.416174158,1237.418755
7.3850,191.2484074,-3.714411399,1237.381313
7.3900,190.9807878,-4.007857669,1237.345009
7.3950,190.711664,-4.295586188,1237.310163
7.4000,190.4431231,-4.577275502,1237.276583
7.4050,190.175546,-4.852205452,1237.244321
7.4100,189.9085728,-5.120661627,1237.213354
7.4150,189.6414246,-5.382074224,1237.183839
7.4200,189.373174,-5.637830077,1237.155637
7.4250,189.1029807,-5.887975307,1237.128823
7.4300,188.831712,-6.13177133,1237.103419
7.4350,188.5585696,-6.369903649,1237.079392
7.4400,188.2818599,-6.603577155,1237.056736
7.4450,188.0031798,-6.832232107,1237.035369
7.4500,187.7226161,-7.056274041,1237.015207
7.4550,187.4407022,-7.275155703,1236.996271
7.4600,187.1576744,-7.489825819,1236.978372
7.4650,186.8741213,-7.700341241,1236.961432
7.4700,186.5902103,-7.906122045,1236.945526
7.4750,186.3068474,-8.107236231,1236.930517
7.4800,186.0241969,-8.305020278,1236.916159
7.4850,185.7431614,-8.498888056,1236.902415
7.4900,185.4623362,-8.689631233,1236.889333
7.4950,185.1845361,-8.876514061,1236.876648
7.5000,184.9088835,-9.059345144,1236.864499
7.5050,184.6371016,-9.23873349,1236.85254
7.5100,184.3696036,-9.415745681,1236.840509
7.5150,184.1079494,-9.588441683,1236.82852
7.5200,183.8519621,-9.758239319,1236.81634
7.5250,183.6025293,-9.924155027,1236.80399
7.5300,183.3594878,-10.08658156,1236.791403
7.5350,183.1235281,-10.24550804,1236.778456
7.5400,182.8965486,-10.39991627,1236.765039
7.5450,182.6771857,-10.54926587,1236.751388
7.5500,182.4661937,-10.69403756,1236.737304
7.5550,182.2635964,-10.83317414,1236.722909
7.5600,182.0710811,-10.96568982,1236.708115
7.5650,181.8889973,-11.09151079,1236.692851
7.5700,181.7171919,-11.21107424,1236.677032
7.5750,181.5560319,-11.32328184,1236.660776
7.5800,181.4053999,-11.4284231,1236.644034
7.5850,181.2652234,-11.5262674,1236.626836
7.5900,181.1355298,-11.61612109,1236.609249
7.5950,181.0172315,-11.69823623,1236.591082
7.6000,180.9093715,-11.77230134,1236.57251
7.6050,180.8138913,-11.83947182,1236.55304
7.6100,180.7305204,-11.8989507,1236.532797
7.6150,180.6577648,-11.95141743,1236.511894
7.6200,180.5969289,-11.99648973,1236.490172
7.6250,180.546875,-12.03334826,1236.467905
7.6300,180.5078458,-12.06094693,1236.445238
7.6350,180.4797765,-12.08077873,1236.421909
7.6400,180.4621939,-12.09017625,1236.398416
7.6450,180.4543805,-12.08900909,1236.374885
7.6500,180.4566542,-12.07699275,1236.351315
7.6550,180.4693828,-12.05238425,1236.327904
7.6600,180.492131,-12.01482885,1236.304781
7.6650,180.5250123,-11.96309206,1236.282127
7.6700,180.5676007,-11.89603714,1236.260202
7.6750,180.6175908,-11.81350548,1236.23937
7.6800,180.6743869,-11.71455676,1236.219897
7.6850,180.7373362,-11.60031087,1236.201682
7.6900,180.804524,-11.46966097,1236.185217
7.6950,180.8757018,-11.32361263,1236.170384
7.7000,180.9482509,-11.16300892,1236.157464
7.7050,181.0202698,-10.98784997,1236.146769
7.7100,181.089798,-10.79881081,1236.138487
7.7150,181.1558319,-10.59678391,1236.132657
7.7200,181.2162614,-10.38277956,1236.129439
7.7250,181.2693906,-10.15752835,1236.128999
7.7300,181.3133262,-9.923108756,1236.131313
7.7350,181.3473445,-9.680709049,1236.136271
7.7400,181.3699996,-9.431050943,1236.144019
7.7450,181.381455,-9.175639962,1236.1543
7.7500,181.3795164,-8.915974478,1236.167188
7.7550,181.3643175,-8.652867375,1236.182552
7.7600,181.3344389,-8.386515918,1236.200576
7.7650,181.2896525,-8.118528793,1236.221036
7.7700,181.2300315,-7.850202846,1236.243708
7.7750,181.1554036,-7.580841809,1236.268749
7.7800,181.0654902,-7.310707905,1236.296168
7.7850,180.9603941,-7.040305631,1236.325869
7.7900,180.8428444,-6.768603721,1236.357657
7.7950,180.7113832,-6.496621815,1236.391607
7.8000,180.5689812,-6.224527517,1236.42726
7.8050,180.4144168,-5.950981539,1236.465058
7.8100,180.2495319,-5.675686016,1236.504809
7.8150,180.0747066,-5.399071256,1236.546397
7.8200,179.8906646,-5.120973017,1236.589761
7.8250,179.6989941,-4.840202593,1236.634913
7.8300,179.499661,-4.557067196,1236.681834
7.8350,179.2938142,-4.272326682,1236.730228
7.8400,179.0797864,-3.986907904,1236.780209
7.8450,178.8593564,-3.699940213,1236.831693
7.8500,178.6315503,-3.411806775,1236.884794
7.8550,178.3963301,-3.124288719,1236.939223
7.8600,178.1535113,-2.837649427,1236.995005
7.8650,177.9013681,-2.551363615,1237.052526
7.8700,177.640455,-2.265222618,1237.111772
7.8750,177.3719138,-1.979938561,1237.172436
7.8800,177.0948199,-1.696425667,1237.234535
7.8850,176.8106391,-1.413443936,1237.298073
7.8900,176.5188738,-1.131410233,1237.363095
7.8950,176.2206935,-0.8504093772,1237.429419
7.9000,175.9163951,-0.5693970058,1237.497216
7.9050,175.6052438,-0.2872318951,1237.566846
7.9100,175.2872864,-0.004177169409,1237.638292
7.9150,174.9638983,0.2805192791,1237.711499
7.9200,174.6345477,0.5675656687,1237.78673
7.9250,174.3002166,0.8567423155,1237.863793
7.9300,173.961776,1.148805728,1237.942709
7.9350,173.6192823,1.444435693,1238.023635
7.9400,173.2742847,1.742940988,1238.10619
7.9450,172.926777,2.044490222,1238.190412
7.9500,172.5772071,2.350295348,1238.276493
7.9550,172.2256971,2.658514202,1238.364081
7.9600,171.8714386,2.969555575,1238.453433
7.9650,171.5139479,3.282445147,1238.544475
7.9700,171.1524557,3.597548175,1238.63743
7.9750,170.7872939,3.914720776,1238.732247
7.9800,170.418483,4.233833395,1238.828907
7.9850,170.0449244,4.555134486,1238.927716
7.9900,169.6668586,4.877935697,1239.028519
7.9950,169.2824955,5.20147023,1239.131524
8.0000,168.8925537,5.526648805,1239.236799
8.0050,168.4975518,5.852882158,1239.344179
8.0100,168.0978283,6.180182976,1239.453633
8.0150,167.6931746,6.507466817,1239.565019
8.0200,167.2851545,6.835766065,1239.678282
8.0250,166.8747344,7.165227701,1239.793301
8.0300,166.4616243,7.494774688,1239.909915
8.0350,166.0456467,7.825815295,1240.02851
8.0400,165.6272796,8.15791233,1240.148883
8.0450,165.2044844,8.490880425,1240.271418
8.0500,164.7796128,8.825812381,1240.395916
8.0550,164.3527192,9.162110673,1240.522253
8.0600,163.9255106,9.500306213,1240.650196
8.0650,163.4974121,9.839845602,1240.779752
8.0700,163.0687701,10.18153338,1240.911067
8.0750,162.6401333,10.52336712,1241.043578
8.0800,162.2118216,10.86513845,1241.177212
8.0850,161.7838291,11.20668777,1241.311922
8.0900,161.3550291,11.54785226,1241.447916
8.0950,160.925633,11.88849905,1241.585117
8.1000,160.4954808,12.22851136,1241.723556
8.1050,160.0644917,12.56746393,1241.86316
8.1100,159.6335633,12.90487922,1242.003608
8.1150,159.2007238,13.24122366,1242.145424
8.1200,158.7673551,13.57710825,1242.288453
8.1250,158.3321289,13.9106388,1242.432534
8.1300,157.8953675,14.24188046,1242.577622
8.1350,157.4566712,14.57236881,1242.724179
8.1400,157.016854,14.90145476,1242.871892
8.1450,156.5759116,15.22930103,1243.020806
8.1500,156.1341152,15.55648943,1243.171003
8.1550,155.6931049,15.88479588,1243.322568
8.1600,155.2520989,16.21277564,1243.475305
8.1650,154.8127484,16.54055714,1243.628885
8.1700,154.3752151,16.86965278,1243.783637
8.1750,153.9398882,17.20045182,1243.939555
8.1800,153.5069913,17.53290219,1244.096564
8.1850,153.0757832,17.86569801,1244.25451
8.1900,152.6476867,18.1988404,1244.413039
8.1950,152.2204533,18.53167984,1244.572504
8.2000,151.7939834,18.86341715,1244.732696
8.2050,151.3672689,19.19266666,1244.893522
8.2100,150.9403708,19.5189931,1245.054845
8.2150,150.5109063,19.84178133,1245.217085
8.2200,150.0783907,20.16067364,1245.380276
8.2250,149.6425601,20.47448035,1245.544197
8.2300,149.2028189,20.78349846,1245.709071
8.2350,148.7589998,21.08823866,1245.875075
8.2400,148.3094578,21.38986147,1246.042921
8.2450,147.8554432,21.68895546,1246.212437
8.2500,147.3963898,21.98665222,1246.384089
8.2550,146.9331429,22.28363578,1246.55787
8.2600,146.4663708,22.57966204,1246.733564
8.2650,145.9958723,22.87550919,1246.911428
8.2700,145.5221784,23.17096646,1247.091308
8.2750,145.0457117,23.46635175,1247.273191
8.2800,144.5654218,23.76230731,1247.457537
8.2850,144.0827333,24.06024122,1247.644356
8.2900,143.5978001,24.36040736,1247.833669
8.2950,143.1126878,24.66337662,1248.025127
8.3000,142.6270495,24.96894361,1248.218753
8.3050,142.1417437,25.27734996,1248.414391
8.3100,141.6583786,25.58846001,1248.61155
8.3150,141.1751302,25.90138432,1248.810501
8.3200,140.6911786,26.21618057,1249.011513
8.3250,140.2050247,26.53223965,1249.214813
8.3300,139.7168658,26.85073606,1249.420677
8.3350,139.2262657,27.17107397,1249.629121
8.3400,138.7339578,27.49328581,1249.840009
8.3450,138.2395903,27.81830428,1250.053711
8.3500,137.7426258,28.14619598,1250.27044
8.3550,137.2422654,28.47755572,1250.490617
8.3600,136.7392298,28.81185676,1250.713947
8.3650,136.2334038,29.15115411,1250.941073
8.3700,135.7258988,29.49667719,1251.172007
8.3750,135.217739,29.85005397,1251.406946
8.3800,134.7100228,30.21195368,1251.645768
8.3850,134.2024899,30.58270816,1251.888701
8.3900,133.6970631,30.96167087,1252.134986
8.3950,133.1938695,31.34951816,1252.384779
8.4000,132.6931575,31.74694733,1252.638214
8.4050,132.1947354,32.15264494,1252.894998
8.4100,131.6985141,32.56561084,1253.154896
8.4150,131.2060731,32.98387796,1253.416879
8.4200,130.7150443,33.40653829,1253.681417
8.4250,130.224953,33.8331269,1253.948537
8.4300,129.7353336,34.26281309,1254.218149
8.4350,129.246048,34.69374904,1254.489783
8.4400,128.7571095,35.12635976,1254.763543
8.4450,128.2677791,35.56006156,1255.03947
8.4500,127.778277,35.99401419,1255.317221
8.4550,127.2880432,36.42649113,1255.59642
8.4600,126.7984834,36.85892326,1255.877038
8.4650,126.3092863,37.29087634,1256.159026
8.4700,125.8187427,37.71934493,1256.441967
8.4750,125.3256146,38.1431005,1256.725893
8.4800,124.8298037,38.56219235,1257.010838
8.4850,124.3297676,38.97610607,1257.297152
8.4900,123.8242415,39.38341662,1257.584865
8.4950,123.313328,39.78456744,1257.874096
8.5000,122.7962568,40.18016718,1258.165363
8.5050,122.274467,40.57090014,1258.45839
8.5100,121.7470112,40.95738371,1258.753721
8.5150,121.2162728,41.34032092,1259.050777
8.5200,120.6836275,41.72029622,1259.34925
8.5250,120.1483588,42.09810901,1259.649649
8.5300,119.609678,42.47267646,1259.951912
8.5350,119.0691021,42.8439997,1260.255509
8.5400,118.5263794,43.21079716,1260.560121
8.5450,117.9810019,43.57234505,1260.865736
8.5500,117.4325278,43.9280241,1261.172269
8.5550,116.8792925,44.27720711,1261.480087
8.5600,116.3220392,44.62044995,1261.789113
8.5650,115.7611836,44.95826058,1262.099362
8.5700,115.1960924,45.29150028,1262.411367
8.5750,114.6276456,45.61904584,1262.724455
8.5800,114.0565706,45.94159603,1263.038578
8.5850,113.4829482,46.25770548,1263.353252
8.5900,112.9068621,46.56751236,1263.668517
8.5950,112.3280744,46.87021888,1263.984163
8.6000,111.7457266,47.16599432,1264.300607
8.6050,111.1598482,47.45455455,1264.61773
8.6100,110.5681762,47.73579493,1264.936444
8.6150,109.9745862,48.01151619,1265.255875
8.6200,109.3788747,48.28115994,1265.575907
8.6250,108.7808355,48.54445788,1265.896592
8.6300,108.1804644,48.8021947,1266.218187
8.6350,107.5779947,49.05415985,1266.540526
8.6400,106.9727485,49.30232801,1266.864553
8.6450,106.3664862,49.54646542,1267.189539
8.6500,105.7598445,49.78805131,1267.515735
8.6550,105.152919,50.02721471,1267.843182
8.6600,104.5456851,50.26551569,1268.172427
8.6650,103.9409598,50.50290553,1268.50232
8.6700,103.3379852,50.73948915,1268.833204
8.6750,102.7366643,50.97615769,1269.165394
8.6800,102.1372926,51.21424265,1269.499223
8.6850,101.5421927,51.45304338,1269.833406
8.6900,100.9507954,51.69351133,1270.168467
8.6950,100.3647695,51.93512121,1270.503487
8.7000,99.7837571,52.17665365,1270.83809
8.7050,99.20902041,52.41869594,1271.171885
8.7100,98.64058238,52.66230897,1271.505196
8.7150,98.07766981,52.90645906,1271.837922
8.7200,97.52214775,53.15115529,1272.169219
8.7250,96.97390773,53.39629198,1272.499067
8.7300,96.4339836,53.64194912,1272.82699
8.7350,95.90173464,53.88798504,1273.153149
8.7400,95.37768736,54.1340932,1273.477144
8.7450,94.86294566,54.37848807,1273.797766
8.7500,94.3553012,54.61930102,1274.115278
8.7550,93.8546368,54.85685316,1274.429832
8.7600,93.35850884,55.08915823,1274.741764
8.7650,92.86507393,55.31482553,1275.051333
8.7700,92.37596577,55.53445254,1275.358038
8.7750,91.89065637,55.74913519,1275.662491
8.7800,91.41001929,55.95896577,1275.964286
8.7850,90.93478161,56.16604395,1276.263848
8.7900,90.46552777,56.37115459,1276.561121
8.7950,90.00268416,56.57374187,1276.855611
8.8000,89.54798964,56.7734503,1277.146282
8.8050,89.10034297,56.97062608,1277.433756
8.8100,88.65989908,57.1634671,1277.717182
8.8150,88.22749129,57.35293003,1277.996451
8.8200,87.8016612,57.53786459,1278.271756
8.8250,87.38313821,57.71858802,1278.542847
8.8300,86.97264501,57.89551352,1278.809438
8.8350,86.56990365,58.06892903,1279.07173
8.8400,86.17494158,58.23856455,1279.329552
8.8450,85.78736269,58.40432174,1279.583023
8.8500,85.4075864,58.56688543,1279.832187
8.8550,85.03546684,58.72658302,1280.077237
8.8600,84.67086409,58.8840869,1280.318461
8.8650,84.31280062,59.03895089,1280.556149
8.8700,83.96070777,59.19073527,1280.790394
8.8750,83.61349512,59.339675,1281.021798
8.8800,83.27120144,59.48557398,1281.250255
8.8850,82.93279381,59.62888581,1281.476428
8.8900,82.59748675,59.77023027,1281.700929
8.8950,82.26462256,59.90931892,1281.923951
8.9000,81.93504389,60.04698302,1282.145404
8.9050,81.6091143,60.18325354,1282.365078
8.9100,81.28682321,60.31914738,1282.583359
8.9150,80.96610656,60.45425576,1282.8011
8.9200,80.64681221,60.58835511,1283.018281
8.9250,80.32975894,60.72166472,1283.234549
8.9300,80.01600291,60.85546448,1283.44991
8.9350,79.70536131,60.990829,1283.664876
8.9400,79.39887283,61.12689707,1283.878547
8.9450,79.09639315,61.2655864,1284.091774
8.9500,78.79879249,61.40576335,1284.303641
8.9550,78.50742054,61.54873678,1284.513951
8.9600,78.22291704,61.69429084,1284.722265
8.9650,77.94434612,61.84273218,1284.929141
8.9700,77.6716062,61.99279864,1285.134139
8.9750,77.40490686,62.14355433,1285.336753
8.9800,77.14424528,62.29434502,1285.536717
8.9850,76.88896435,62.44601753,1285.734695
8.9900,76.63973576,62.59850831,1285.93031
8.9950,76.39640062,62.75117804,1286.123371
9.0000,76.15941837,62.90324356,1286.313269
9.0050,75.92876341,63.05437404,1286.499847
9.0100,75.70424113,63.20362335,1286.682788
9.0150,75.48606522,63.35038101,1286.861679
9.0200,75.27382524,63.49406836,1287.03644
9.0250,75.06953407,63.63450496,1287.205848
9.0300,74.87234585,63.77004053,1287.369648
9.0350,74.68224737,63.89946947,1287.527326
9.0400,74.49851869,64.02198543,1287.678948
9.0450,74.31923093,64.13625877,1287.824988
9.0500,74.14512867,64.2441381,1287.965785
9.0550,73.97452198,64.34332327,1288.101272
9.0600,73.80789271,64.43461921,1288.231587
9.0650,73.64552398,64.51936345,1288.357198
9.0700,73.48677652,64.59709596,1288.47828
9.0750,73.33128272,64.66764701,1288.595027
9.0800,73.17759858,64.73127442,1288.708396
9.0850,73.02462991,64.78664247,1288.818427
9.0900,72.8722217,64.8351037,1288.92584
9.0950,72.71855682,64.87784338,1289.032171
9.1000,72.56197948,64.91551373,1289.138628
9.1050,72.40125622,64.94811028,1289.245871
9.1100,72.23607735,64.97742769,1289.354848
9.1150,72.06530382,65.00375067,1289.466324
9.1200,71.88930372,65.02977032,1289.581269
9.1250,71.70673345,65.05597939,1289.70057
9.1300,71.51724138,65.08236717,1289.824418
9.1350,71.32075289,65.11126784,1289.9538
9.1400,71.11785363,65.14370178,1290.088771
9.1450,70.90871213,65.18053423,1290.229561
9.1500,70.69297785,65.22102439,1290.375992
9.1550,70.47113244,65.26598723,1290.528064
9.1600,70.24203964,65.3157712,1290.686533
9.1650,70.00658032,65.36993636,1290.850676
9.1700,69.76610177,65.42854057,1291.019688
9.1750,69.52075491,65.49175231,1291.193548
9.1800,69.27118356,65.55832172,1291.371343
9.1850,69.01776233,65.62818297,1291.552804
9.1900,68.76000792,65.700043,1291.737658
9.1950,68.49988123,65.77473867,1291.925179
9.2000,68.23649011,65.85218501,1292.115816
9.2050,67.96981941,65.93191129,1292.30942
9.2100,67.70070608,66.01253471,1292.504942
9.2150,67.42998687,66.09402096,1292.701926
9.2200,67.15781675,66.1772772,1292.90069
9.2250,66.88469882,66.26256956,1293.101098
9.2300,66.60818178,66.34688323,1293.303259
9.2350,66.32842469,66.42966391,1293.506888
9.2400,66.04435572,66.50985069,1293.712164
9.2450,65.75559498,66.58567521,1293.91855
9.2500,65.46134537,66.65725682,1294.126566
9.2550,65.16183551,66.72389829,1294.335761
9.2600,64.85680638,66.78523388,1294.546141
9.2650,64.54692091,66.84019694,1294.756841
9.2700,64.23335754,66.88969424,1294.967556
9.2750,63.91591596,66.93318998,1295.178174
9.2800,63.59443589,66.96994114,1295.388446
9.2850,63.26916037,66.99954341,1295.59809
9.2900,62.94000744,67.02140245,1295.806915
9.2950,62.60692885,67.03649085,1296.01535
9.3000,62.27049115,67.0460161,1296.223692
9.3050,61.93163271,67.0500688,1296.4314
9.3100,61.59052722,67.05042495,1296.639189
9.3150,61.24855262,67.04844295,1296.846877
9.3200,60.90672409,67.04500427,1297.054318
9.3250,60.56373906,67.04167531,1297.263032
9.3300,60.21972131,67.03987981,1297.473613
9.3350,59.87498565,67.04126607,1297.686627
9.3400,59.52899363,67.04638315,1297.902653
9.3450,59.18307708,67.05805776,1298.122237
9.3500,58.83680956,67.07646754,1298.345766
9.3550,58.49128809,67.10474947,1298.574023
9.3600,58.14635789,67.14399412,1298.807588
9.3650,57.8027096,67.19478263,1299.046357
9.3700,57.45856162,67.25969884,1299.292635
9.3750,57.11392598,67.33806769,1299.546177
9.3800,56.76743521,67.43086464,1299.808327
9.3850,56.42000427,67.53817715,1300.078627
9.3900,56.06944448,67.6603019,1300.358637
9.3950,55.71749878,67.79596476,1300.646736
9.4000,55.36427379,67.94467204,1300.94268
9.4050,55.01169285,68.10745352,1301.245731
9.4100,54.65868807,68.28266391,1301.55584
9.4150,54.3050448,68.46985917,1301.872966
9.4200,53.9512305,68.66739957,1302.196074
9.4250,53.59866374,68.87419518,1302.523778
9.4300,53.24721178,69.09062423,1302.856324
9.4350,52.89676956,69.31379763,1303.192515
9.4400,52.54824579,69.54356074,1303.531702
9.4450,52.20235134,69.77935524,1303.873129
9.4500,51.85971566,70.02091396,1304.216284
9.4550,51.52065245,70.26643648,1304.560117
9.4600,51.18609814,70.51468707,1304.903407
9.4650,50.85530554,70.76453477,1305.246101
9.4700,50.52818756,71.01442656,1305.587498
9.4750,50.20568519,71.26288884,1305.926231
9.4800,49.88662976,71.50896178,1306.26256
9.4850,49.57226415,71.75159256,1306.595105
9.4900,49.26371914,71.98928121,1306.922294
9.4950,48.95992902,72.22127783,1307.244391
9.5000,48.66110072,72.44587296,1307.560408
9.5050,48.36730287,72.66218579,1307.869791
9.5100,48.07872226,72.86898013,1308.171746
9.5150,47.79479594,73.06597,1308.466428
9.5200,47.51569648,73.25221103,1308.753203
9.5250,47.24196401,73.42627421,1309.030888
9.5300,46.97482558,73.58930567,1309.299144
9.5350,46.71541306,73.74043484,1309.556677
9.5400,46.46441646,73.88062295,1309.803409
9.5450,46.22197614,74.00975354,1310.039106
9.5500,45.9893179,74.12779225,1310.262852
9.5550,45.76577953,74.23549394,1310.475397
9.5600,45.55227949,74.33196448,1310.675598
9.5650,45.34809084,74.41885607,1310.864721
9.5700,45.15369688,74.49508997,1311.041818
9.5750,44.97019613,74.56232696,1311.206899
9.5800,44.79931068,74.62123643,1311.359049
9.5850,44.64097094,74.67224361,1311.498488
9.5900,44.49524001,74.7165305,1311.625706
9.5950,44.36357869,74.75401261,1311.739642
9.6000,44.24571846,74.78557472,1311.840853
9.6050,44.14172076,74.81147676,1311.929445
9.6100,44.05249446,74.83133759,1312.004545
9.6150,43.9772998,74.84531061,1312.06673
9.6200,43.91583489,74.85365397,1312.116323
9.6250,43.8681026,74.85610673,1312.153161
9.6300,43.83504666,74.85271986,1312.176586
9.6350,43.81662108,74.84472634,1312.187239
9.6400,43.81320916,74.83302881,1312.185316
9.6450,43.82435437,74.81697463,1312.170774
9.6500,43.85014886,74.79693346,1312.143777
9.6550,43.88944174,74.77281037,1312.105078
9.6600,43.9416507,74.74509019,1312.055345
9.6650,44.00600929,74.71302112,1311.994764
9.6700,44.08239674,74.67650601,1311.92338
9.6750,44.1701775,74.63672246,1311.842245
9.6800,44.26992249,74.5930369,1311.750638
9.6850,44.38045888,74.54655806,1311.649981
9.6900,44.50208087,74.49670273,1311.539772
9.6950,44.63306381,74.44331712,1311.42119
9.7000,44.77340289,74.3877936,1311.294924
9.7050,44.92096727,74.32756512,1311.161248
9.7100,45.07631477,74.2647313,1311.020844
9.7150,45.23911418,74.19852593,1310.873574
9.7200,45.40781454,74.12839414,1310.720264
9.7250,45.58222184,74.05489531,1310.561361
9.7300,45.7610318,73.97716069,1310.397393
9.7350,45.94467443,73.89649962,1310.228664
9.7400,46.13230796,73.81230204,1310.055494
9.7450,46.32300913,73.72421916,1309.878367
9.7500,46.51676315,73.63230719,1309.697292
9.7550,46.71225594,73.53716785,1309.513505
9.7600,46.90942478,73.43793397,1309.326637
9.7650,47.10701984,73.33493124,1309.137704
9.7700,47.30531408,73.22919988,1308.94707
9.7750,47.50291815,73.12103659,1308.755814
9.7800,47.69929482,73.01059431,1308.564386
9.7850,47.89318956,72.8982038,1308.373802
9.7900,48.08421144,72.78408994,1308.184449
9.7950,48.27248027,72.66914945,1307.996692
9.8000,48.45859075,72.55296682,1307.809894
9.8050,48.64201895,72.43622452,1307.624735
9.8100,48.82209717,72.31869405,1307.441571
9.8150,48.99858229,72.20113543,1307.26095
9.8200,49.17168692,72.08279696,1307.082348
9.8250,49.34042693,71.96405548,1306.906601
9.8300,49.50556437,71.8439612,1306.732718
9.8350,49.66695324,71.72277876,1306.56095
9.8400,49.8244937,71.60012369,1306.391143
9.8450,49.97928245,71.47508775,1306.222111
9.8500,50.13046294,71.34817871,1306.0547
9.8550,50.27849949,71.21832517,1305.888068
9.8600,50.42424825,71.0869681,1305.72234
9.8650,50.56845414,70.9533469,1305.556672
9.8700,50.71109264,70.81861479,1305.391637
9.8750,50.85322292,70.68188773,1305.226097
9.8800,50.99317589,70.54292454,1305.061056
9.8850,51.13278806,70.40226055,1304.895508
9.8900,51.2718522,70.25824098,1304.728833
9.8950,51.41027257,70.1113849,1304.561345
9.9000,51.54813899,69.96075066,1304.392517
9.9050,51.68517761,69.80591029,1304.222342
9.9100,51.82184357,69.64666831,1304.050437
9.9150,51.95879056,69.4835949,1303.876679
9.9200,52.09464325,69.31671099,1303.701925
9.9250,52.23118991,69.14591374,1303.524993
9.9300,52.36783984,68.97140231,1303.346382
9.9350,52.50559443,68.7930307,1303.165397
9.9400,52.64546881,68.61088406,1302.981461
9.9450,52.78689679,68.4248739,1302.794928
9.9500,52.9297355,68.23517279,1302.605964
9.9550,53.07457579,68.04184743,1302.414267
9.9600,53.22106507,67.84454533,1302.219953
9.9650,53.36905801,67.64433907,1302.023561
9.9700,53.51933604,67.44001934,1301.82409
9.9750,53.67215744,67.23135299,1301.62125
9.9800,53.82630557,67.01746404,1301.415495
9.9850,53.98223327,66.79818101,1301.206443
9.9900,54.14017616,66.57384403,1300.994126
9.9950,54.30111224,66.34545136,1300.778356
10.0000,54.46463717,66.11206632,1300.55901
10.0050,54.63065801,65.87462053,1300.336602
10.0100,54.79933842,65.63139771,1300.110289
10.0150,54.97020063,65.38327924,1299.880804
10.0200,55.14453715,65.13024095,1299.64732
10.0250,55.32050741,64.87183011,1299.41085
10.0300,55.49883743,64.60843166,1299.171107
10.0350,55.67867951,64.33869492,1298.928111
10.0400,55.85886015,64.0634308,1298.682974
10.0450,56.03970825,63.7822472,1298.435333
10.0500,56.22092301,63.49454446,1298.185177
10.0550,56.40258595,63.20026308,1297.932456
10.0600,56.58478786,62.89999761,1297.677388
10.0650,56.76813107,62.59446442,1297.419941
10.0700,56.95160813,62.28357265,1297.160714
10.0750,57.13555508,61.96767667,1296.899688
10.0800,57.32151969,61.64772364,1296.636361
10.0850,57.50987623,61.32392366,1296.370617
10.0900,57.7012232,60.99730469,1296.102572
10.0950,57.89445712,60.66690285,1295.832515
10.1000,58.08945874,60.33399433,1295.561106
10.1050,58.28592449,59.99937808,1295.288872
10.1100,58.48482543,59.66323812,1295.015309
10.1150,58.6872886,59.32597904,1294.73994
10.1200,58.89328015,58.98706418,1294.462593
10.1250,59.10334068,58.64708541,1294.183262
10.1300,59.31785785,58.30701667,1293.902122
10.1350,59.53666526,57.96620715,1293.618986
10.1400,59.76049566,57.62485879,1293.333584
10.1450,59.98846085,57.28287473,1293.046452
10.1500,60.22095312,56.93996079,1292.75722
10.1550,60.45926173,56.59617929,1292.465207
10.1600,60.70294715,56.25136406,1292.170613
10.1650,60.95266107,55.90567728,1291.87316
10.1700,61.20752887,55.55930417,1291.573486
10.1750,61.46766634,55.21247547,1291.27165
10.1800,61.73326802,54.86568657,1290.967749
10.1850,62.00350272,54.51886879,1290.662308
10.1900,62.27925915,54.17277939,1290.355094
10.1950,62.56021446,53.82740537,1290.046325
10.2000,62.8461835,53.48229911,1289.73595
10.2050,63.1372275,53.13810461,1289.424222
10.2100,63.43282508,52.79461244,1289.111385
10.2150,63.73289584,52.4519501,1288.797541
10.2200,64.03842153,52.11016732,1288.482163
10.2250,64.3484687,51.76959151,1288.165957
10.2300,64.66331142,51.43134741,1287.849181
10.2350,64.98205426,51.09417086,1287.531882
10.2400,65.30321646,50.75899481,1287.215235
10.2450,65.62745849,50.42646459,1286.899122
10.2500,65.95609879,50.09703187,1286.582995
10.2550,66.2895998,49.77019578,1286.266378
10.2600,66.62947043,49.44602171,1285.948482
10.2650,66.97530119,49.12452044,1285.629538
10.2700,67.3261807,48.80538552,1285.309997
10.2750,67.68214867,48.48791515,1284.989603
10.2800,68.04383288,48.17367471,1284.66857
10.2850,68.41108906,47.86113174,1284.346433
10.2900,68.78314518,47.54970235,1284.023411
10.2950,69.15959435,47.23859551,1283.699476
10.3000,69.53986885,46.92735828,1283.374758
10.3050,69.92421211,46.61657628,1283.049306
10.3100,70.31110967,46.30678901,1282.724141
10.3150,70.69979083,45.99682132,1282.399234
10.3200,71.0896959,45.68773879,1282.075296
10.3250,71.48195793,45.3801922,1281.751912
10.3300,71.87666035,45.07290362,1281.428602
10.3350,72.27247949,44.76638882,1281.106251
10.3400,72.67061102,44.45927221,1280.783748
10.3450,73.07005332,44.15129814,1280.461582
10.3500,73.47002734,43.84408668,1280.140701
10.3550,73.87019307,43.53618961,1279.820784
10.3600,74.27029856,43.22844738,1279.502258
10.3650,74.67079142,42.92068329,1279.184827
10.3700,75.07075893,42.61240803,1278.868783
10.3750,75.47045559,42.30410993,1278.554139
10.3800,75.86903911,41.99635911,1278.241496
10.3850,76.26695209,41.68965464,1277.930783
10.3900,76.66305098,41.38360998,1277.622407
10.3950,77.05861553,41.07915131,1277.316023
10.4000,77.4519114,40.7746184,1277.011926
10.4050,77.8431915,40.47028103,1276.710102
10.4100,78.23208402,40.1677565,1276.411261
10.4150,78.61829776,39.86567608,1276.115091
10.4200,79.00127555,39.56541834,1275.822305
10.4250,79.38154002,39.26687575,1275.532606
10.4300,79.75801556,38.97117596,1275.246926
10.4350,80.13032021,38.67827125,1274.965465
10.4400,80.49852469,38.38863125,1274.688277
10.4450,80.86417815,38.10475663,1274.415397
10.4500,81.22781807,37.82610125,1274.146344
10.4550,81.58804502,37.55356995,1273.882083
10.4600,81.94516002,37.28684237,1273.622359
10.4650,82.29990903,37.02550045,1273.366625
10.4700,82.65313946,36.77027299,1273.114706
10.4750,83.00452004,36.52030038,1272.866485
10.4800,83.3559023,36.27557094,1272.621056
10.4850,83.70726983,36.03629535,1272.378521
10.4900,84.05817541,35.80193209,1272.138952
10.4950,84.40989656,35.57206914,1271.901579
10.5000,84.76390241,35.34799856,1271.666139
10.5050,85.12132625,35.12991899,1271.432123
10.5100,85.48202454,34.91801385,1271.199664
10.5150,85.84536763,34.71180583,1270.968899
10.5200,86.21282371,34.50952681,1270.738566
10.5250,86.58397824,34.31078483,1270.508731
10.5300,86.95986794,34.11599602,1270.279021
10.5350,87.34055656,33.92541428,1270.049472
10.5400,87.7272632,33.73756637,1269.81907
10.5450,88.11930635,33.55198118,1269.587982
10.5500,88.51592942,33.36762646,1269.356257
10.5550,88.91615352,33.18348212,1269.124077
10.5600,89.31906886,32.99929637,1268.891754
10.5650,89.72494285,32.81427942,1268.658974
10.5700,90.13481451,32.62911879,1268.425459
10.5750,90.54999718,32.44435265,1268.190799
10.5800,90.97045663,32.25926203,1267.954811
10.5850,91.39549895,32.07419216,1267.717943
10.5900,91.82582805,31.88937475,1267.480008
10.5950,92.26232276,31.70569535,1267.240875
10.6000,92.70627548,31.52255648,1266.999869
10.6050,93.15758246,31.34013902,1266.757127
10.6100,93.61695269,31.1572214,1266.512005
10.6150,94.0846162,30.97393519,1266.264516
10.6200,94.5601786,30.7892584,1266.014522
10.6250,95.04281264,30.60254425,1265.762248
10.6300,95.53249257,30.41381711,1265.507752
10.6350,96.0281853,30.22187886,1265.251113
10.6400,96.52989298,30.02633448,1264.992212
10.6450,97.03817445,29.82636239,1264.730567
10.6500,97.55253855,29.62003218,1264.465883
10.6550,98.07353539,29.40902572,1264.198467
10.6600,98.60047408,29.19192353,1263.92827
10.6650,99.13262101,28.96828335,1263.655525
10.6700,99.67094524,28.73845063,1263.379998
10.6750,100.2145407,28.50300446,1263.102287
10.6800,100.7635392,28.26090689,1262.822107
10.6850,101.3174088,28.01121582,1262.539448
10.6900,101.8749458,27.75386086,1262.254884
10.6950,102.436418,27.48925741,1261.968447
10.7000,103.0014784,27.21908414,1261.680828
10.7050,103.5713618,26.94264724,1261.391321
10.7100,104.145121,26.65982826,1261.100325
10.7150,104.7228878,26.37065488,1260.807812
10.7200,105.3045039,26.07576852,1260.514092
10.7250,105.8893957,25.77540142,1260.219482
10.7300,106.4772485,25.46831636,1259.923795
10.7350,107.0689576,25.15569048,1259.627034
10.7400,107.6640894,24.83783423,1259.329533
10.7450,108.2619495,24.51468183,1259.031597
10.7500,108.8610913,24.18720737,1258.734144
10.7550,109.4620428,23.85554961,1258.437055
10.7600,110.0634769,23.5203963,1258.141047
10.7650,110.6641858,23.18296536,1257.846956
10.7700,111.2652623,22.84339245,1257.554415
10.7750,111.866053,22.50228976,1257.263842
10.7800,112.466213,22.16078824,1256.975648
10.7850,113.0671457,21.81912118,1256.689317
10.7900,113.6681989,21.47876965,1256.40549
10.7950,114.2683889,21.13929602,1256.124401
10.8000,114.8663583,20.80061534,1255.846503
10.8050,115.4617008,20.46155649,1255.571594
10.8100,116.0548843,20.12269397,1255.299632
10.8150,116.6463384,19.78456271,1255.030561
10.8200,117.2344217,19.44782554,1254.765155
10.8250,117.8181729,19.11327592,1254.503921
10.8300,118.3959302,18.78029474,1254.247271
10.8350,118.9663302,18.44812637,1253.995489
10.8400,119.5282487,18.11861535,1253.749422
10.8450,120.0825612,17.79237526,1253.508875
10.8500,120.6296677,17.47131352,1253.274155
10.8550,121.1700956,17.15611892,1253.045184
10.8600,121.7038659,16.8486453,1252.822392
10.8650,122.2313352,16.54813668,1252.605426
10.8700,122.752962,16.2543764,1252.393997
10.8750,123.2674648,15.9669956,1252.188368
10.8800,123.7759311,15.68597458,1251.988099
10.8850,124.2787433,15.41158561,1251.793037
10.8900,124.7760293,15.14399039,1251.60308
10.8950,125.26663,14.88272559,1251.418446
10.9000,125.7498935,14.62817762,1251.239314
10.9050,126.2272778,14.38048458,1251.065169
10.9100,126.7002629,14.13925802,1250.895347
10.9150,127.1706708,13.9051902,1250.729344
10.9200,127.6390031,13.67800595,1250.566901
10.9250,128.1071208,13.45689728,1250.407166
10.9300,128.5750803,13.24072802,1250.249781
10.9350,129.0442074,13.03002809,1250.094445
10.9400,129.51404,12.82385914,1249.941037
10.9450,129.983231,12.62284284,1249.790089
10.9500,130.4510612,12.42591955,1249.641517
10.9550,130.915997,12.23153767,1249.495356
10.9600,131.3762894,12.03988515,1249.352104
10.9650,131.8304953,11.84880842,1249.211643
10.9700,132.2779493,11.65767216,1249.073955
10.9750,132.7174311,11.46360307,1248.938694
10.9800,133.1493662,11.26616636,1248.805579
10.9850,133.5723965,11.06514879,1248.67493
10.9900,133.9875384,10.86114863,1248.546555
10.9950,134.39371,10.65377247,1248.420652
11.0000,134.7938639,10.44372762,1248.296481
11.0050,135.187409,10.23117654,1248.174251
11.0100,135.5755429,10.01617668,1248.053616
11.0150,135.9571588,9.80015677,1247.935241
11.0200,136.3336483,9.582751107,1247.818632
11.0250,136.7056694,9.364268543,1247.703646
11.0300,137.0735426,9.146492451,1247.590595
11.0350,137.4381011,8.927792314,1247.478865
11.0400,137.7991126,8.709100298,1247.368698
11.0450,138.1577569,8.489436763,1247.259509
11.0500,138.5145798,8.268282436,1247.151005
11.0550,138.870783,8.046960695,1247.043105
11.0600,139.2254718,7.823999685,1246.935721
11.0650,139.5798169,7.599495301,1246.828549
11.0700,139.9323306,7.372463964,1246.721806
11.0750,140.2826498,7.14389147,1246.615808
11.0800,140.6312697,6.913796789,1246.510457
11.0850,140.9763851,6.682344842,1246.406314
11.0900,141.3191004,6.450778343,1246.303329
11.0950,141.658878,6.219072962,1246.201623
11.1000,141.9963706,5.988123674,1246.101198
11.1050,142.3308276,5.758745212,1246.002412
11.1100,142.6612014,5.530632862,1245.90547
11.1150,142.9883029,5.304605743,1245.810307
11.1200,143.3125441,5.081612768,1245.716972
11.1250,143.6354924,4.86116604,1245.624914
11.1300,143.9575837,4.642760455,1245.533882
11.1350,144.2797284,4.427775577,1245.443889
11.1400,144.6030393,4.215039429,1245.354358
11.1450,144.928501,4.004841651,1245.265099
11.1500,145.2546532,3.795282705,1245.176081
11.1550,145.581828,3.586884932,1245.087333
11.1600,145.9106476,3.37699627,1244.998153
11.1650,146.2407265,3.166423363,1244.908807
11.1700,146.5714534,2.955788028,1244.819601
11.1750,146.902692,2.744936729,1244.730537
11.1800,147.2345236,2.534723311,1244.641781
11.1850,147.5689038,2.324868987,1244.552778
11.1900,147.9061871,2.115757076,1244.463504
11.1950,148.2461064,1.907470426,1244.374032
11.2000,148.5894006,1.699858247,1244.28414
11.2050,148.9351821,1.49328071,1244.194112
11.2100,149.2819923,1.288881377,1244.104526
11.2150,149.6293387,1.086536471,1244.015436
11.2200,149.9769123,0.8867752349,1243.926998
11.2250,150.3243596,0.6896044855,1243.839262
11.2300,150.6723621,0.4967611363,1243.752368
11.2350,151.0212709,0.3077654204,1243.666113
11.2400,151.370845,0.1241520887,1243.580842
11.2450,151.7223731,-0.05320623105,1243.496385
11.2500,152.0763356,-0.223964754,1243.412687
11.2550,152.4337783,-0.3878491908,1243.329557
11.2600,152.795297,-0.5449136099,1243.246856
11.2650,153.1625968,-0.6927073118,1243.164669
11.2700,153.5356849,-0.8310536738,1243.083025
11.2750,153.9150602,-0.9593710135,1243.001954
11.2800,154.2993223,-1.075717267,1242.922165
11.2850,154.6889222,-1.180200342,1242.843561
11.2900,155.0834905,-1.273985401,1242.766017
11.2950,155.4826352,-1.358271218,1242.68942
11.3000,155.8843223,-1.433541318,1242.614152
11.3050,156.2867494,-1.500783795,1242.540446
11.3100,156.6880694,-1.561515737,1242.468443
11.3150,157.0878425,-1.616974597,1242.398005
11.3200,157.4824323,-1.667973475,1242.329775
11.3250,157.8697067,-1.715503236,1242.264026
11.3300,158.2496226,-1.760588223,1242.200548
11.3350,158.6206497,-1.802885166,1242.139711
11.3400,158.98326,-1.843555735,1242.081176
11.3450,159.3356243,-1.883309353,1242.025165
11.3500,159.6775046,-1.921854017,1241.971745
11.3550,160.0082326,-1.962716069,1241.920351
11.3600,160.3284743,-2.005839521,1241.870825
11.3650,160.6347409,-2.051313526,1241.823821
11.3700,160.9275754,-2.100267951,1241.77896
11.3750,161.2063633,-2.151731229,1241.736507
11.3800,161.4724217,-2.206904055,1241.695936
11.3850,161.7267259,-2.265286618,1241.657091
11.3900,161.9693806,-2.327822116,1241.619734
11.3950,162.2012316,-2.393713419,1241.583838
11.4000,162.4241095,-2.462541755,1241.54908
11.4050,162.639938,-2.53342346,1241.51522
11.4100,162.8524434,-2.604971951,1241.481751
11.4150,163.0624467,-2.67776621,1241.448395
11.4200,163.2724243,-2.751451849,1241.414726
11.4250,163.4830184,-2.825765144,1241.380678
11.4300,163.6964005,-2.900038159,1241.345948
11.4350,163.9156771,-2.974608753,1241.309863
11.4400,164.1425946,-3.049302332,1241.272131
11.4450,164.3777326,-3.124050545,1241.232666
11.4500,164.6229936,-3.198386581,1241.191208
11.4550,164.8805083,-3.27282634,1241.147267
11.4600,165.1500624,-3.345845189,1241.101195
11.4650,165.4330402,-3.418835442,1241.052497
11.4700,165.7304353,-3.49263285,1241.000861
11.4750,166.0421773,-3.567152123,1240.946354
11.4800,166.3686153,-3.642801239,1240.888868
11.4850,166.7082585,-3.719244457,1240.828787
11.4900,167.0611704,-3.796257009,1240.766188
11.4950,167.4278084,-3.872915473,1240.701178
11.5000,167.8073057,-3.947183816,1240.634355
11.5050,168.1980323,-4.019278485,1240.566012
11.5100,168.6006385,-4.087364447,1240.496406
11.5150,169.0131959,-4.150015805,1240.426192
11.5200,169.4349523,-4.205715855,1240.355828
11.5250,169.8648151,-4.252509236,1240.285893
11.5300,170.3010427,-4.288518389,1240.217068
11.5350,170.7418698,-4.312332429,1240.149954
11.5400,171.1856419,-4.322302344,1240.085146
11.5450,171.6292531,-4.319258629,1240.023054
11.5500,172.0714071,-4.301768046,1239.964161
11.5550,172.5093595,-4.269975764,1239.908903
11.5600,172.9411797,-4.223584303,1239.857648
11.5650,173.3627,-4.163435691,1239.810934
11.5700,173.7706604,-4.0893012,1239.769316
11.5750,174.1620862,-4.001075907,1239.733257
11.5800,174.5335971,-3.90019355,1239.703019
11.5850,174.8823311,-3.787086126,1239.678929
11.5900,175.206507,-3.661083243,1239.661342
11.5950,175.5045023,-3.521232431,1239.650632
11.6000,175.7748315,-3.369400639,1239.646653
11.6050,176.0185453,-3.20505982,1239.649289
11.6100,176.235716,-3.027206995,1239.658652
11.6150,176.4258916,-2.835665302,1239.674817
11.6200,176.591497,-2.631426701,1239.697185
11.6250,176.7338626,-2.413884021,1239.725644
11.6300,176.8544285,-2.184399265,1239.759704
11.6350,176.9539375,-1.941467769,1239.799523
11.6400,177.0331246,-1.686508486,1239.844716
11.6450,177.0946338,-1.41920022,1239.894952
11.6500,177.1403696,-1.141246031,1239.949629
11.6550,177.1716897,-0.851038481,1240.008866
11.6600,177.1912356,-0.5490509672,1240.072191
11.6650,177.2045465,-0.2370599888,1240.138439
11.6700,177.2155071,0.08504391808,1240.207059
11.6750,177.2276019,0.4143566237,1240.276986
11.6800,177.2418809,0.7508417016,1240.348059
11.6850,177.2602234,1.091018232,1240.419336
11.6900,177.2850674,1.434803582,1240.490443
11.6950,177.3184362,1.780106923,1240.560667
11.7000,177.3611099,2.12542164,1240.629593
11.7050,177.4146411,2.469383641,1240.696715
11.7100,177.4787972,2.809771878,1240.761626
11.7150,177.5546419,3.14530902,1240.823907
11.7200,177.6433564,3.4757993,1240.88333
11.7250,177.7466644,3.800203874,1240.939414
11.7300,177.8653253,4.116574982,1240.991657
11.7350,177.9999574,4.424085576,1241.039786
11.7400,178.1497876,4.722403795,1241.083863
11.7450,178.3165879,5.009718204,1241.12326
11.7500,178.5015244,5.28621609,1241.157839
11.7550,178.7038641,5.551185463,1241.187573
11.7600,178.9259687,5.803751303,1241.211946
11.7650,179.1673473,6.044080117,1241.231082
11.7700,179.4277046,6.271970931,1241.245001
11.7750,179.7080199,6.487606217,1241.253643
11.7800,180.0085418,6.690269817,1241.256853
11.7850,180.3292714,6.879760897,1241.25464
11.7900,180.6690644,7.056030337,1241.247198
11.7950,181.0285992,7.218390661,1241.234336
11.8000,181.4065091,7.365915813,1241.216102
11.8050,181.8035825,7.498651328,1241.192436
11.8100,182.2181099,7.61669289,1241.163656
11.8150,182.6490916,7.719786002,1241.12991
11.8200,183.097141,7.807463808,1241.091063
11.8250,183.5610656,7.880457119,1241.047501
11.8300,184.0398417,7.937968103,1240.99925
11.8350,184.5332615,7.980562988,1240.946513
11.8400,185.0386648,8.007088726,1240.889442
11.8450,185.5556827,8.019136727,1240.828486
11.8500,186.0819904,8.016435394,1240.763941
11.8550,186.6167372,8.000119611,1240.696205
11.8600,187.1584215,7.969921671,1240.625452
11.8650,187.7068782,7.926452315,1240.551869
11.8700,188.261303,7.870497889,1240.475772
11.8750,188.8217039,7.802398276,1240.397258
11.8800,189.3870868,7.722687917,1240.316598
11.8850,189.9572153,7.633012858,1240.234213
11.8900,190.5301905,7.533595817,1240.150395
11.8950,191.1026175,7.425559242,1240.065803
11.9000,191.6735395,7.310742581,1239.980923
11.9050,192.2382748,7.189984222,1239.896439
11.9100,192.7947229,7.064294478,1239.812776
11.9150,193.3409387,6.934220242,1239.730203
11.9200,193.8751927,6.801716909,1239.649271
11.9250,194.3946226,6.666916376,1239.570238
11.9300,194.8961734,6.531245869,1239.493651
11.9350,195.3791557,6.394945286,1239.419543
11.9400,195.8410065,6.25932717,1239.348367
11.9450,196.2801852,6.124981917,1239.280292
11.9500,196.69606,5.993505939,1239.215626
11.9550,197.088004,5.865231715,1239.154409
11.9600,197.45595,5.740983897,1239.096716
11.9650,197.7997845,5.621955858,1239.042744
11.9700,198.1181713,5.507360216,1238.992368
11.9750,198.4120288,5.398179659,1238.945634
11.9800,198.6808295,5.294532049,1238.902532
11.9850,198.9257018,5.197125466,1238.863054
11.9900,199.1465795,5.103319636,1238.826603
11.9950,199.3443167,5.014418196,1238.793322
12.0000,199.5209195,4.929949186,1238.762903
12.0050,199.67591,4.849718158,1238.735304
12.0100,199.8109051,4.773650331,1238.710349
12.0150,199.9296103,4.701483481,1238.687645
12.0200,200.0318279,4.632364461,1238.667011
12.0250,200.1178639,4.566799145,1238.648512
12.0300,200.1897721,4.504150065,1238.63183
12.0350,200.2468871,4.445047609,1238.617147
12.0400,200.2919517,4.388290796,1238.603974
12.0450,200.3251469,4.333868959,1238.592286
12.0500,200.3473767,4.280834101,1238.581813
12.0550,200.3593652,4.22911952,1238.572486
12.0600,200.3615382,4.177909118,1238.564104
12.0650,200.3550203,4.127238653,1238.556584
12.0700,200.3407446,4.077314892,1238.549895
12.0750,200.3202337,4.026764679,1238.543624
12.0800,200.2928911,3.976095356,1238.537933
12.0850,200.25968,3.924612754,1238.532597
12.0900,200.22153,3.872152813,1238.527503
12.0950,200.1787191,3.818740794,1238.522644
12.1000,200.1315774,3.764311391,1238.517973
12.1050,200.0812121,3.709060879,1238.513444
12.1100,200.0291026,3.652431354,1238.508825
12.1150,199.9770823,3.594550305,1238.503983
12.1200,199.9254222,3.53535675,1238.498887
12.1250,199.8738558,3.474235713,1238.493428
12.1300,199.8242363,3.411423418,1238.487504
12.1350,199.7755464,3.346844798,1238.48118
12.1400,199.7306431,3.280664952,1238.474241
12.1450,199.6900279,3.212155495,1238.466503
12.1500,199.654928,3.141076045,1238.457804
12.1550,199.6258377,3.066746626,1238.447964
12.1600,199.6025767,2.98998161,1238.437164
12.1650,199.5871015,2.910503287,1238.425173
12.1700,199.5784855,2.828221976,1238.412054
12.1750,199.5751896,2.743182742,1238.397955
12.1800,199.5790356,2.655725677,1238.382791
12.1850,199.5885612,2.565016005,1238.366523
12.1900,199.6038689,2.471719773,1238.349272
12.1950,199.6257087,2.37591471,1238.330982
12.2000,199.65401,2.277450164,1238.311639
12.2050,199.6897685,2.176528657,1238.291203
12.2100,199.7320963,2.073629169,1238.269843
12.2150,199.7811271,1.969152766,1238.247627
12.2200,199.8362372,1.863646652,1238.224723
12.2250,199.8969965,1.758480661,1238.201428
12.2300,199.9629997,1.653794299,1238.17781
12.2350,200.0319842,1.550311775,1238.154188
12.2400,200.1039459,1.448533511,1238.130663
12.2450,200.1767986,1.349153786,1238.107547
12.2500,200.2488405,1.252293746,1238.084991
12.2550,200.3190039,1.158080571,1238.063103
12.2600,200.3855033,1.066979089,1238.042116
12.2650,200.4469105,0.9789985896,1238.022142
12.2700,200.5031895,0.8958882835,1238.003504
12.2750,200.5522939,0.8174804893,1237.986336
12.2800,200.5949183,0.7428090008,1237.970394
12.2850,200.6299114,0.6724779903,1237.955875
12.2900,200.658468,0.6078366164,1237.942938
12.2950,200.6808451,0.5476537221,1237.931332
12.3000,200.6963453,0.4918440486,1237.921092
12.3050,200.7060074,0.4394318175,1237.911953
12.3100,200.7115769,0.3904353089,1237.90377
12.3150,200.7108187,0.3446017644,1237.896679
12.3200,200.705382,0.3008759714,1237.890355
12.3250,200.6968972,0.2584351553,1237.88451
12.3300,200.6846874,0.2172994381,1237.879201
12.3350,200.6707084,0.176694811,1237.874128
12.3400,200.6546942,0.1360684283,1237.869207
12.3450,200.6379729,0.09672406797,1237.86457
12.3500,200.6199462,0.05615446605,1237.859807
12.3550,200.6004061,0.01595898649,1237.855224
12.3600,200.5793048,-0.02588205111,1237.850448
12.3650,200.5565289,-0.06813068093,1237.845727
12.3700,200.5312576,-0.1121105403,1237.840873
12.3750,200.5021023,-0.1564010339,1237.83627
12.3800,200.4691479,-0.202605693,1237.831598
12.3850,200.4317271,-0.2498035874,1237.827094
12.3900,200.3893772,-0.2987988156,1237.82264
12.3950,200.3404155,-0.3494030596,1237.818406
12.4000,200.2850587,-0.4014316308,1237.8144
12.4050,200.2215815,-0.4549477492,1237.810771
12.4100,200.1499346,-0.5096763007,1237.807565
12.4150,200.069571,-0.5656444535,1237.804833
12.4200,199.9801432,-0.6214761452,1237.802858
12.4250,199.8819402,-0.677838919,1237.801508
12.4300,199.7742855,-0.734312918,1237.800916
12.4350,199.658988,-0.7906360743,1237.800984
12.4400,199.5356649,-0.846364017,1237.801855
12.4450,199.4040129,-0.9011278733,1237.803607
12.4500,199.2644808,-0.9550247367,1237.806209
12.4550,199.117539,-1.006782988,1237.809858
12.4600,198.9648197,-1.05720028,1237.81427
12.4650,198.8058166,-1.105937616,1237.819566
12.4700,198.6418998,-1.153314436,1237.82557
12.4750,198.4749066,-1.198693169,1237.832249
12.4800,198.3037491,-1.24228171,1237.839653
12.4850,198.1294572,-1.283544399,1237.847795
12.4900,197.9521895,-1.322835209,1237.856606
12.4950,197.7730945,-1.360595527,1237.865898
12.5000,197.5908885,-1.397216585,1237.875722
12.5050,197.4052862,-1.431764065,1237.886265
12.5100,197.2173428,-1.4653903,1237.897224
12.5150,197.0259126,-1.498051742,1237.908721
12.5200,196.831167,-1.529514411,1237.920791
12.5250,196.6333615,-1.561397385,1237.933115
12.5300,196.4329223,-1.592944497,1237.945783
12.5350,196.2298261,-1.624763566,1237.958702
12.5400,196.0249282,-1.656496778,1237.971848
12.5450,195.8189145,-1.688130463,1237.985167
12.5500,195.6125377,-1.719816338,1237.998559
12.5550,195.4060922,-1.751962,1238.011918
12.5600,195.2009796,-1.785114463,1238.025021
12.5650,194.9968826,-1.818175062,1238.03809
12.5700,194.7941052,-1.853088897,1238.050742
12.5750,194.5931017,-1.890319328,1238.062839
12.5800,194.3930907,-1.929394855,1238.074553
12.5850,194.1947754,-1.970893677,1238.085714
12.5900,193.9992824,-2.01551837,1238.096071
12.5950,193.8056587,-2.062873436,1238.105785
12.6000,193.6158512,-2.114445228,1238.1144
12.6050,193.4306835,-2.169104391,1238.122028
12.6100,193.249577,-2.228664551,1238.128401
12.6150,193.0743465,-2.293244854,1238.133305
12.6200,192.9058753,-2.36301784,1238.136605
12.6250,192.7441854,-2.439409552,1238.138042
12.6300,192.5908064,-2.522178504,1238.137493
12.6350,192.4450473,-2.613359577,1238.134663
12.6400,192.3084794,-2.712162729,1238.129525
12.6450,192.1808667,-2.820650993,1238.121725
12.6500,192.0626777,-2.937833384,1238.111388
12.6550,191.9557938,-3.065388508,1238.09802
12.6600,191.8598612,-3.20319413,1238.081673
12.6650,191.7753195,-3.353241087,1238.06195
12.6700,191.7021876,-3.51489661,1238.038969
12.6750,191.6408326,-3.689958009,1238.012372
12.6800,191.589507,-3.877189485,1237.982592
12.6850,191.549251,-4.077310492,1237.949399
12.6900,191.5190218,-4.29054973,1237.912892
12.6950,191.4989581,-4.516511966,1237.873137
12.7000,191.487511,-4.75566379,1237.83026
12.7050,191.4839274,-5.007405386,1237.784471
12.7100,191.4859346,-5.270983413,1237.736169
12.7150,191.4920575,-5.546571774,1237.685515
12.7200,191.4998266,-5.834719913,1237.632719
12.7250,191.5087061,-6.133943939,1237.578113
12.7300,191.5160051,-6.442611333,1237.522295
12.7350,191.5207123,-6.761531961,1237.465271
12.7400,191.5204429,-7.089488324,1237.407517
12.7450,191.5150066,-7.425356164,1237.349271
12.7500,191.5031921,-7.76848907,1237.290791
12.7550,191.4835206,-8.117264834,1237.232525
12.7600,191.4544894,-8.471017444,1237.17477
12.7650,191.4149662,-8.829177486,1237.117762
12.7700,191.3650734,-9.191316127,1237.061563
12.7750,191.3046336,-9.556577901,1237.006336
12.7800,191.2335168,-9.924573593,1236.952178
12.7850,191.1512916,-10.29596889,1236.899051
12.7900,191.0582758,-10.66960459,1236.84711
12.7950,190.9538251,-11.04526275,1236.796473
12.8000,190.8390873,-11.42141677,1236.747255
12.8050,190.7134829,-11.79893443,1236.699398
12.8100,190.5770911,-12.17720494,1236.653002
12.8150,190.4302014,-12.55625594,1236.608026
12.8200,190.2724258,-12.93640433,1236.564471
12.8250,190.1047291,-13.31618801,1236.522461
12.8300,189.9265186,-13.69597096,1236.482023
12.8350,189.7386709,-14.0752097,1236.443139
12.8400,189.540589,-14.45371239,1236.405918
12.8450,189.3326844,-14.83133058,1236.370348
12.8500,189.1142731,-15.20774666,1236.336579
12.8550,188.8860841,-15.5818631,1236.304676
12.8600,188.6487181,-15.95344071,1236.274619
12.8650,188.4040603,-16.32339755,1236.246067
12.8700,188.1527845,-16.68957649,1236.219246
12.8750,187.897015,-17.05095654,1236.194043
12.8800,187.639422,-17.40702863,1236.170197
12.8850,187.3808699,-17.75779382,1236.147581
12.8900,187.1217933,-18.1027502,1236.126201
12.8950,186.8650493,-18.44269867,1236.105573
12.9000,186.6106357,-18.77725086,1236.08573
12.9050,186.3608459,-19.10784462,1236.066181
12.9100,186.1167026,-19.4334094,1236.046896
12.9150,185.8793507,-19.75493801,1236.027574
12.9200,185.6494178,-20.07292386,1236.008048
12.9250,185.4290667,-20.38654386,1235.988106
12.9300,185.2186407,-20.69676187,1235.967543
12.9350,185.0208747,-21.00268912,1235.946073
12.9400,184.8353449,-21.30573829,1235.923534
12.9450,184.6621313,-21.60576345,1235.899903
12.9500,184.5022031,-21.90367442,1235.874899
12.9550,184.3562638,-22.19976081,1235.848356
12.9600,184.2232638,-22.49371301,1235.820421
12.9650,184.103744,-22.78567897,1235.79097
12.9700,183.9975931,-23.07623406,1235.759916
12.9750,183.9042824,-23.36491519,1235.727365
12.9800,183.8260604,-23.65169538,1235.693005
12.9850,183.7601986,-23.93594678,1235.657239
12.9900,183.7058583,-24.21695992,1235.620243
12.9950,183.6624821,-24.49502225,1235.58205
13.0000,183.6299866,-24.76934435,1235.542743
13.0050,183.6072843,-25.0396042,1235.502486
13.0100,183.5941484,-25.3054738,1235.461335
13.0150,183.5891832,-25.56555651,1235.419632
13.0200,183.5929082,-25.81945088,1235.377335
13.0250,183.6033298,-26.06631956,1235.334797
13.0300,183.6201206,-26.30674333,1235.291992
13.0350,183.6415662,-26.5394027,1235.249277
13.0400,183.6673565,-26.76397007,1235.206726
13.0450,183.6961811,-26.98007689,1235.164549
13.0500,183.7273591,-27.1879059,1235.122805
13.0550,183.7580871,-27.38857717,1235.081729
13.0600,183.788238,-27.5813409,1235.041406
13.0650,183.8159188,-27.76644781,1235.002046
13.0700,183.8401745,-27.94376106,1234.963787
13.0750,183.8583456,-28.11416472,1234.926884
13.0800,183.8692015,-28.27666551,1234.891596
13.0850,183.8717589,-28.43134198,1234.858033
13.0900,183.8658919,-28.5787859,1234.826145
13.0950,183.8508054,-28.71915454,1234.796012
13.1000,183.8261657,-28.85209518,1234.767729
13.1050,183.7912179,-28.97821103,1234.741317
13.1100,183.7463588,-29.09715722,1234.716774
13.1150,183.6925521,-29.20853824,1234.694008
13.1200,183.6293801,-29.31294919,1234.673024
13.1250,183.5568393,-29.40943846,1234.65393
13.1300,183.4746888,-29.49857861,1234.636694
13.1350,183.3826184,-29.58041473,1234.621363
13.1400,183.2809849,-29.65549793,1234.60785
13.1450,183.1697034,-29.72294796,1234.596255
13.1500,183.0492116,-29.78334654,1234.58645
13.1550,182.9207628,-29.83727642,1234.578242
13.1600,182.7839363,-29.88349063,1234.571808
13.1650,182.6394908,-29.9232078,1234.566917
13.1700,182.4867698,-29.95774363,1234.563549
13.1750,182.3266958,-29.98747256,1234.561537
13.1800,182.1576922,-30.01380558,1234.560977
13.1850,181.9809869,-30.03613963,1234.561779
13.1900,181.796622,-30.05448399,1234.563952
13.1950,181.6053992,-30.0687439,1234.567407
13.2000,181.4071672,-30.07979072,1234.572086
13.2050,181.2033851,-30.08793016,1234.577766
13.2100,180.994121,-30.09345601,1234.584438
13.2150,180.7804707,-30.09700153,1234.591882
13.2200,180.5641071,-30.09871019,1234.599842
13.2250,180.3452194,-30.09959643,1234.608207
13.2300,180.1254628,-30.09914617,1234.616794
13.2350,179.9050159,-30.09778932,1234.625532
13.2400,179.6847244,-30.09546434,1234.634308
13.2450,179.4656104,-30.09255682,1234.64295
13.2500,179.2477201,-30.08805268,1234.651536
13.2550,179.0315412,-30.08286744,1234.659905
13.2600,178.8181192,-30.07596494,1234.668011
13.2650,178.6078052,-30.06735813,1234.675781
13.2700,178.4006629,-30.05707891,1234.683224
13.2750,178.197589,-30.04467598,1234.690236
13.2800,177.9977778,-30.03077419,1234.696849
13.2850,177.8006702,-30.01499654,1234.703203
13.2900,177.6083325,-29.99687571,1234.709023
13.2950,177.4197122,-29.97702435,1234.714405
13.3000,177.2345233,-29.95449318,1234.719474
13.3050,177.0528853,-29.92924479,1234.724229
13.3100,176.8748636,-29.90119327,1234.728671
13.3150,176.7003355,-29.87119252,1234.732737
13.3200,176.5282304,-29.83813831,1234.736712
13.3250,176.3582306,-29.80278306,1234.740547
13.3300,176.1914327,-29.76436931,1234.744142
13.3350,176.0265477,-29.72258825,1234.747759
13.3400,175.8639609,-29.67868189,1234.751215
13.3450,175.7038574,-29.63182671,1234.754556
13.3500,175.5449466,-29.58078352,1234.758118
13.3550,175.3888848,-29.52514682,1234.761676
13.3600,175.2353624,-29.46556183,1234.765211
13.3650,175.0845173,-29.40060808,1234.76887
13.3700,174.9346951,-29.33043031,1234.77289
13.3750,174.7870933,-29.25406135,1234.777177
13.3800,174.6420025,-29.17192801,1234.781644
13.3850,174.4991491,-29.08260153,1234.786485
13.3900,174.3575221,-28.98609422,1234.791876
13.3950,174.2179386,-28.88141254,1234.797806
13.4000,174.080394,-28.76858238,1234.804237
13.4050,173.9460278,-28.64656715,1234.81113
13.4100,173.8141276,-28.51494047,1234.81864
13.4150,173.6839849,-28.37386285,1234.826883
13.4200,173.5560323,-28.22295628,1234.835849
13.4250,173.4311813,-28.06196152,1234.845424
13.4300,173.3093301,-27.89122125,1234.855607
13.4350,173.1909718,-27.71066032,1234.866348
13.4400,173.075515,-27.51943468,1234.877854
13.4450,172.9645047,-27.31958979,1234.889638
13.4500,172.8583982,-27.11041063,1234.901724
13.4550,172.7567217,-26.89179154,1234.914215
13.4600,172.6600112,-26.66614895,1234.926763
13.4650,172.5667136,-26.43265023,1234.939748
13.4700,172.4786279,-26.1917453,1234.95282
13.4750,172.3947394,-25.94413294,1234.966085
13.4800,172.3147539,-25.68995139,1234.979579
13.4850,172.2394818,-25.43076238,1234.992989
13.4900,172.1689942,-25.16819092,1235.006098
13.4950,172.1034351,-24.90265803,1235.018859
13.5000,172.042875,-24.63323885,1235.031347
13.5050,171.9855303,-24.36093445,1235.043768
13.5100,171.9326845,-24.08653226,1235.055796
13.5150,171.8828561,-23.80996376,1235.067722
13.5200,171.8359063,-23.53098911,1235.079616
13.5250,171.7914785,-23.24975119,1235.0915
13.5300,171.7488842,-22.96745765,1235.103372
13.5350,171.707345,-22.68376666,1235.115421
13.5400,171.6667639,-22.39824151,1235.127695
13.5450,171.6260967,-22.11145256,1235.140319
13.5500,171.5862698,-21.8238765,1235.153072
13.5550,171.5459989,-21.53560833,1235.166183
13.5600,171.5038164,-21.24725645,1235.179841
13.5650,171.4583378,-20.95941423,1235.194247
13.5700,171.4096698,-20.67254645,1235.209313
13.5750,171.3547886,-20.38731999,1235.225504
13.5800,171.2925393,-20.10385646,1235.243029
13.5850,171.2227191,-19.82263186,1235.261855
13.5900,171.1440682,-19.54368604,1235.282211
13.5950,171.0566459,-19.26647775,1235.304185
13.6000,170.9590786,-18.9914915,1235.32797
13.6050,170.8511771,-18.71862896,1235.353598
13.6100,170.7314719,-18.44829776,1235.381317
13.6150,170.6007087,-18.18078013,1235.41094
13.6200,170.4577824,-17.91598419,1235.442696
13.6250,170.3027326,-17.65376415,1235.476629
13.6300,170.1348721,-17.39346645,1235.512969
13.6350,169.954106,-17.13606134,1235.551601
13.6400,169.7597332,-16.87953353,1235.592926
13.6450,169.551582,-16.62533659,1235.636802
13.6500,169.3302342,-16.37248603,1235.683266
13.6550,169.0970874,-16.121464,1235.732026
13.6600,168.8508176,-15.87098388,1235.783532
13.6650,168.5926942,-15.62156081,1235.83747
13.6700,168.3232219,-15.37330924,1235.893777
13.6750,168.0421886,-15.12595163,1235.952553
13.6800,167.7516173,-14.87961386,1236.013405
13.6850,167.452574,-14.63480871,1236.076088
13.6900,167.1455818,-14.39154078,1236.140554
13.6950,166.8307525,-14.15042133,1236.206689
13.7000,166.5092356,-13.91119125,1236.274377
13.7050,166.1803647,-13.67435611,1236.343667
13.7100,165.8458512,-13.43911419,1236.414377
13.7150,165.5061025,-13.20508313,1236.486496
13.7200,165.1621504,-12.97227858,1236.559846
13.7250,164.8137493,-12.74029226,1236.634553
13.7300,164.463011,-12.50843544,1236.710331
13.7350,164.1107819,-12.27612636,1236.787113
13.7400,163.759413,-12.04366498,1236.864396
13.7450,163.4083851,-11.80863472,1236.942684
13.7500,163.0596382,-11.57093131,1237.021612
13.7550,162.7137532,-11.3305939,1237.101074
13.7600,162.3710766,-11.0861897,1237.181252
13.7650,162.0343194,-10.83760565,1237.261598
13.7700,161.7028083,-10.58415465,1237.342377
13.7750,161.3780524,-10.32654077,1237.423173
13.7800,161.0614418,-10.06301732,1237.503962
13.7850,160.7517622,-9.793677358,1237.584974
13.7900,160.4500377,-9.518478909,1237.666043
13.7950,160.1555843,-9.237728503,1237.747212
13.8000,159.8700566,-8.953058176,1237.827903
13.8050,159.5935643,-8.662900778,1237.90832
13.8100,159.3245943,-8.369349778,1237.988442
13.8150,159.0636835,-8.073411611,1238.067981
13.8200,158.809274,-7.775711474,1238.147156
13.8250,158.5604669,-7.477052813,1238.226052
