type,name,time_units,begin_time,frequency,count,units
signal_3d,"Noraxon MyoMotion-Trajectories-Body center of mass","s",0.0000,200,4984,"mm"

time,x,y,z
0.0000,0.04740974542,17.03074598,1075.316456
0.0050,0.04849160916,17.02865323,1075.315963
0.0100,0.049573858,17.02656031,1075.315471
0.0150,0.05065649185,17.02446722,1075.314979
0.0200,0.05188511428,17.02217792,1075.314434
0.0250,0.05326636132,17.01970071,1075.313834
0.0300,0.0548064787,17.01704678,1075.31318
0.0350,0.05651115515,17.01422947,1075.312474
0.0400,0.05838518644,17.01126357,1075.311715
0.0450,0.06043217967,17.00816457,1075.310907
0.0500,0.06265443907,17.0049482,1075.31005
0.0550,0.06505277171,17.00163012,1075.309147
0.0600,0.0676261153,16.99822568,1075.308201
0.0650,0.07037131519,16.99474962,1075.307214
0.0700,0.07328318473,16.9912161,1075.306189
0.0750,0.07635471632,16.9876388,1075.30513
0.0800,0.0795773843,16.98403092,1075.30404
0.0850,0.08294135186,16.98040513,1075.302923
0.0900,0.08643538492,16.97677352,1075.301783
0.0950,0.09004659365,16.97314754,1075.300624
0.1000,0.09376012664,16.96953804,1075.299451
0.1050,0.09755886406,16.96595539,1075.298267
0.1100,0.1014231543,16.96240967,1075.297078
0.1150,0.1053304354,16.95891091,1075.29589
0.1200,0.1092547666,16.95546929,1075.294709
0.1250,0.1131665893,16.95209521,1075.293541
0.1300,0.1170327641,16.94879926,1075.292395
0.1350,0.1208167975,16.94559221,1075.291279
0.1400,0.124479358,16.94248483,1075.2902
0.1450,0.1279791626,16.93948765,1075.289168
0.1500,0.1312740973,16.93661056,1075.288192
0.1550,0.1346424364,16.93115994,1075.286869
0.1600,0.1376092183,16.92587433,1075.285645
0.1650,0.1401347391,16.92079293,1075.284531
0.1700,0.1422461292,16.91592865,1075.283525
0.1750,0.143879691,16.91127159,1075.282636
0.1800,0.1449950455,16.90686512,1075.281874
0.1850,0.1455895377,16.90270343,1075.281238
0.1900,0.1456599793,16.89882604,1075.280734
0.1950,0.1451879194,16.89520648,1075.280362
0.2000,0.1441774512,16.89188125,1075.280125
0.2050,0.1426863444,16.88884264,1075.280013
0.2100,0.1406848809,16.88609826,1075.28003
0.2150,0.1381889956,16.88365848,1075.280176
0.2200,0.1352537071,16.8814909,1075.280434
0.2250,0.1318941797,16.87962455,1075.280808
0.2300,0.1281489775,16.87800411,1075.281284
0.2350,0.1240907757,16.87663904,1075.28185
0.2400,0.1198007364,16.87556324,1075.282496
0.2450,0.115302082,16.87469618,1075.283208
0.2500,0.1106810773,16.87405434,1075.283973
0.2550,0.1059673625,16.8735964,1075.28478
0.2600,0.1012202535,16.87335003,1075.285623
0.2650,0.09650360669,16.8732578,1075.286482
0.2700,0.09183081585,16.87335608,1075.287361
0.2750,0.08723042478,16.87360179,1075.288247
0.2800,0.08272093313,16.87396912,1075.289137
0.2850,0.07834103922,16.8744965,1075.290027
0.2900,0.07410586672,16.87512201,1075.290909
0.2950,0.07001270127,16.8758396,1075.29178
0.3000,0.06607918619,16.87665325,1075.292636
0.3050,0.06235049619,16.87757748,1075.29347
0.3100,0.05884841081,16.8785829,1075.294274
0.3150,0.05557959302,16.87969197,1075.295048
0.3200,0.05252558468,16.88085271,1075.295788
0.3250,0.04970003664,16.88203931,1075.296487
0.3300,0.04712997705,16.88329273,1075.297145
0.3350,0.04482332583,16.88456719,1075.297754
0.3400,0.04278421617,16.8858479,1075.298309
0.3450,0.04102440829,16.88710302,1075.298806
0.3500,0.03952653479,16.88835,1075.299248
0.3550,0.03832905489,16.88954528,1075.299625
0.3600,0.03746514435,16.89066295,1075.299925
0.3650,0.03686872662,16.89162212,1075.300153
0.3700,0.03656648576,16.89246227,1075.300305
0.3750,0.03652531488,16.89312756,1075.300383
0.3800,0.03676969348,16.89358537,1075.300377
0.3850,0.03727853024,16.89380966,1075.300289
0.3900,0.03799397054,16.89382171,1075.300132
0.3950,0.03895164704,16.89359071,1075.299897
0.4000,0.04005814962,16.89310014,1075.299597
0.4050,0.04135325455,16.89235009,1075.29923
0.4100,0.04275911173,16.89129788,1075.298805
0.4150,0.04427586871,16.89000948,1075.298328
0.4200,0.04589474609,16.88847894,1075.297803
0.4250,0.04754781996,16.88669584,1075.297241
0.4300,0.04920427319,16.88469126,1075.296652
0.4350,0.05090278006,16.88251762,1075.296034
0.4400,0.05260232354,16.88016439,1075.295394
0.4450,0.05431746122,16.87764513,1075.294733
0.4500,0.05605247448,16.87501654,1075.294054
0.4550,0.05779803588,16.87227214,1075.29336
0.4600,0.05960340992,16.86941732,1075.292643
0.4650,0.06145592371,16.86648767,1075.291911
0.4700,0.0633677733,16.86347796,1075.29116
0.4750,0.06536256304,16.86044273,1075.290393
0.4800,0.06744640657,16.85734287,1075.289605
0.4850,0.06961883738,16.85421743,1075.288803
0.4900,0.07188255239,16.85105931,1075.287985
0.4950,0.07426744491,16.84789452,1075.287148
0.5000,0.07676332876,16.84468545,1075.286289
0.5050,0.07935559577,16.84148356,1075.285418
0.5100,0.08208922699,16.83825309,1075.284524
0.5150,0.08493232734,16.83498538,1075.283611
0.5200,0.08788596938,16.83170763,1075.282684
0.5250,0.09094428689,16.82843352,1075.281744
0.5300,0.09411185601,16.82522825,1075.280797
0.5350,0.09738905354,16.82205184,1075.279837
0.5400,0.1007532253,16.81887805,1075.278867
0.5450,0.1041982084,16.81576412,1075.277893
0.5500,0.1077148635,16.81275229,1075.27692
0.5550,0.11129274,16.80981312,1075.275949
0.5600,0.1149001917,16.80693063,1075.27498
0.5650,0.1185528059,16.80413769,1075.274016
0.5700,0.1221953856,16.80137412,1075.273059
0.5750,0.1258303548,16.79868423,1075.272112
0.5800,0.1294656271,16.7960766,1075.271174
0.5850,0.1330482472,16.79347361,1075.270247
0.5900,0.1365696195,16.790961,1075.269338
0.5950,0.1399869626,16.7885341,1075.268458
0.6000,0.1433106381,16.7861461,1075.267596
0.6050,0.1464772595,16.78374325,1075.266761
0.6100,0.1494675759,16.78136654,1075.265959
0.6150,0.1522893169,16.77896082,1075.265182
0.6200,0.1549413092,16.77651952,1075.264433
0.6250,0.1573776389,16.77406583,1075.263722
0.6300,0.1595957355,16.77153222,1075.263039
0.6350,0.1615551845,16.76894496,1075.262399
0.6400,0.163241741,16.76629208,1075.261802
0.6450,0.1646744648,16.76355506,1075.261243
0.6500,0.1658416838,16.76073333,1075.260726
0.6550,0.1667022738,16.75786043,1075.260258
0.6600,0.1672964396,16.75491253,1075.259834
0.6650,0.1676359767,16.75196026,1075.259457
0.6700,0.1677230341,16.74898076,1075.259125
0.6750,0.1675863732,16.74601811,1075.258839
0.6800,0.1672210346,16.743095,1075.2586
0.6850,0.1666321131,16.74026331,1075.258415
0.6900,0.1658731848,16.73747539,1075.258269
0.6950,0.1649195078,16.73479315,1075.25817
0.7000,0.1638865499,16.73220349,1075.258099
0.7050,0.1627405302,16.72976555,1075.258066
0.7100,0.1614828598,16.72745343,1075.258069
0.7150,0.1601648136,16.72525025,1075.258096
0.7200,0.1587808468,16.72316759,1075.25815
0.7250,0.157359708,16.72121074,1075.258227
0.7300,0.1559698785,16.71935179,1075.258309
0.7350,0.1545463329,16.71761728,1075.258414
0.7400,0.1531747902,16.71600608,1075.258524
0.7450,0.1518494212,16.71449304,1075.25864
0.7500,0.1505325366,16.7130756,1075.258768
0.7550,0.1492392376,16.71176402,1075.258905
0.7600,0.1479644753,16.71055844,1075.25905
0.7650,0.1466754855,16.70941041,1075.259207
0.7700,0.1453691138,16.7082986,1075.259376
0.7750,0.1440216733,16.70724201,1075.259559
0.7800,0.1426281453,16.70623477,1075.259759
0.7850,0.1411867964,16.70526653,1075.259974
0.7900,0.1396598184,16.70433888,1075.260209
0.7950,0.1380174116,16.70338887,1075.260467
0.8000,0.1362760202,16.70246624,1075.260747
0.8050,0.1343924564,16.7015493,1075.261054
0.8100,0.1323748977,16.7006417,1075.261385
0.8150,0.1302202687,16.69974982,1075.261743
0.8200,0.1279036582,16.69885524,1075.262131
0.8250,0.1254209421,16.6979442,1075.262546
0.8300,0.1227806219,16.69697888,1075.262985
0.8350,0.1199651651,16.69598801,1075.263455
0.8400,0.1169672353,16.69498185,1075.263956
0.8450,0.1137889407,16.69395508,1075.264489
0.8500,0.1104777906,16.69284674,1075.265038
0.8550,0.1070558185,16.69171442,1075.265604
0.8600,0.1035734292,16.6905618,1075.266181
0.8650,0.1000319938,16.68940406,1075.266769
0.8700,0.09649448687,16.68826891,1075.267362
0.8750,0.09298153189,16.68718163,1075.267957
0.8800,0.08944265678,16.68611517,1075.268563
0.8850,0.08595262029,16.6851025,1075.269169
0.8900,0.08250670623,16.68415081,1075.269776
0.8950,0.07915901491,16.68324555,1075.270376
0.9000,0.07584305934,16.68241661,1075.270985
0.9050,0.07261014543,16.68168699,1075.271593
0.9100,0.06945360819,16.68107525,1075.272206
0.9150,0.06633884211,16.68057848,1075.272828
0.9200,0.0632865244,16.68023178,1075.27346
0.9250,0.06027957639,16.67999349,1075.274099
0.9300,0.05733300125,16.67991854,1075.274748
0.9350,0.05446486832,16.67999781,1075.275404
0.9400,0.05160582642,16.68022873,1075.276076
0.9450,0.04875525921,16.68061728,1075.276767
0.9500,0.04590395379,16.68115353,1075.277475
0.9550,0.04307022295,16.68180556,1075.278195
0.9600,0.04019921398,16.68263485,1075.27894
0.9650,0.03728151119,16.68361035,1075.27971
0.9700,0.03429951121,16.68469801,1075.280505
0.9750,0.0312312585,16.68589942,1075.281326
0.9800,0.02809408119,16.68723238,1075.282174
0.9850,0.02489249907,16.68868937,1075.283043
0.9900,0.02165310966,16.69027447,1075.283928
0.9950,0.01838545221,16.69195511,1075.284824
1.0000,0.0150818856,16.69374118,1075.285733
1.0050,0.0117323738,16.69561198,1075.286652
1.0100,0.008386425882,16.69762455,1075.287577
1.0150,0.005042835868,16.69975182,1075.288509
1.0200,0.001683381252,16.70198341,1075.289446
1.0250,-0.001645216096,16.70432245,1075.290381
1.0300,-0.004984820387,16.70675927,1075.291323
1.0350,-0.008329505687,16.70924382,1075.292266
1.0400,-0.01174181875,16.71172719,1075.293218
1.0450,-0.01523486953,16.71421938,1075.294179
1.0500,-0.01877309598,16.71667219,1075.295142
1.0550,-0.02238650536,16.71903838,1075.296107
1.0600,-0.02607109403,16.72131972,1075.297075
1.0650,-0.02980958438,16.72349048,1075.29804
1.0700,-0.03363427983,16.72553856,1075.299008
1.0750,-0.03751579121,16.72744344,1075.299971
1.0800,-0.04142500499,16.72917785,1075.300921
1.0850,-0.04536959935,16.73070166,1075.301858
1.0900,-0.04931840989,16.73201268,1075.302774
1.0950,-0.05326589723,16.73314815,1075.303677
1.1000,-0.05722007291,16.73402348,1075.30456
1.1050,-0.06112681588,16.73465215,1075.305414
1.1100,-0.06498734474,16.73505812,1075.306245
1.1150,-0.06878504699,16.73522822,1075.307049
1.1200,-0.07250127924,16.73514857,1075.307822
1.1250,-0.0760849191,16.73485261,1075.30856
1.1300,-0.07954277936,16.73436372,1075.309267
1.1350,-0.0828313706,16.73368792,1075.30994
1.1400,-0.0859514727,16.73281008,1075.310576
1.1450,-0.08884108782,16.73177099,1075.311174
1.1500,-0.09156854943,16.73061447,1075.311754
1.1550,-0.09413457987,16.72931605,1075.312316
1.1600,-0.09660168986,16.72796297,1075.312885
1.1650,-0.09895710842,16.72650802,1075.313457
1.1700,-0.1012703848,16.72504682,1075.314058
1.1750,-0.1035799896,16.7235119,1075.314694
1.1800,-0.1058690898,16.72200395,1075.315372
1.1850,-0.1082248082,16.72053477,1075.316116
1.1900,-0.1106707517,16.71913582,1075.316937
1.1950,-0.1132364588,16.7178445,1075.317847
1.2000,-0.1159445413,16.71668641,1075.318854
1.2050,-0.118827329,16.71569626,1075.319975
1.2100,-0.1219153113,16.71489914,1075.32122
1.2150,-0.1252444575,16.71432734,1075.322602
1.2200,-0.1288202576,16.71400928,1075.324127
1.2250,-0.1326682795,16.71396648,1075.325808
1.2300,-0.1367904622,16.71421826,1075.32765
1.2350,-0.1412262623,16.71474035,1075.329665
1.2400,-0.1459140635,16.71564662,1075.331853
1.2450,-0.1508994638,16.71690495,1075.334225
1.2500,-0.1561815511,16.71855843,1075.336787
1.2550,-0.1617405662,16.72062168,1075.339543
1.2600,-0.1676353033,16.72306802,1075.342505
1.2650,-0.173788656,16.72591798,1075.345662
1.2700,-0.1801974128,16.72925309,1075.34903
1.2750,-0.1868913141,16.73304974,1075.352614
1.2800,-0.1938441812,16.73730241,1075.356414
1.2850,-0.201028888,16.74198721,1075.360428
1.2900,-0.2085126317,16.74714704,1075.364679
1.2950,-0.2162705674,16.75277932,1075.369165
1.3000,-0.224311217,16.75891254,1075.3739
1.3050,-0.2326428554,16.76550694,1075.37888
1.3100,-0.2412963108,16.77256521,1075.384119
1.3150,-0.2502877909,16.78007904,1075.389622
1.3200,-0.2595939485,16.78807002,1075.39539
1.3250,-0.2693062735,16.79650141,1075.40144
1.3300,-0.2794013014,16.80535006,1075.407768
1.3350,-0.2899336571,16.81463164,1075.414387
1.3400,-0.3008504577,16.82435788,1075.421293
1.3450,-0.3121838334,16.83449618,1075.428494
1.3500,-0.3239517559,16.84504701,1075.435991
1.3550,-0.3361545321,16.85599918,1075.443789
1.3600,-0.3488315906,16.86732957,1075.451894
1.3650,-0.3619447055,16.87900461,1075.460298
1.3700,-0.3755039222,16.89104595,1075.469007
1.3750,-0.3895197917,16.90337471,1075.47802
1.3800,-0.4040634646,16.91597743,1075.487348
1.3850,-0.4190839221,16.92887065,1075.496987
1.3900,-0.4345887554,16.94197562,1075.506932
1.3950,-0.450587995,16.95532123,1075.517191
1.4000,-0.4670243478,16.96888662,1075.527753
1.4050,-0.4839200421,16.98260843,1075.538624
1.4100,-0.5012955959,16.99645031,1075.549804
1.4150,-0.5190921074,17.01037394,1075.561285
1.4200,-0.5373019425,17.02437566,1075.573071
1.4250,-0.5559319875,17.03844284,1075.585162
1.4300,-0.5749681712,17.05253291,1075.597558
1.4350,-0.5943794717,17.06658979,1075.610247
1.4400,-0.6141612942,17.08064131,1075.623236
1.4450,-0.6343482075,17.09469873,1075.63654
1.4500,-0.6549034481,17.1086996,1075.650146
1.4550,-0.6758476046,17.12267857,1075.664069
1.4600,-0.6971145201,17.13655152,1075.678285
1.4650,-0.7187458539,17.15038096,1075.692812
1.4700,-0.7407460153,17.16410271,1075.707644
1.4750,-0.7631001549,17.17777153,1075.722783
1.4800,-0.7858192205,17.19136116,1075.73823
1.4850,-0.808879699,17.20489641,1075.753985
1.4900,-0.8323209614,17.21834075,1075.770052
1.4950,-0.8561511912,17.23170142,1075.786431
1.5000,-0.8803496619,17.24499889,1075.803128
1.5050,-0.9049603748,17.25821524,1075.820139
1.5100,-0.9299919401,17.27131821,1075.837463
1.5150,-0.9554633589,17.28437208,1075.855117
1.5200,-0.981349215,17.29732326,1075.87308
1.5250,-1.00765302,17.31019842,1075.891358
1.5300,-1.034374988,17.32301856,1075.909951
1.5350,-1.061539941,17.33578216,1075.928861
1.5400,-1.089146341,17.34845539,1075.948088
1.5450,-1.117135517,17.36109206,1075.967624
1.5500,-1.145477094,17.37366144,1075.987462
1.5550,-1.174186702,17.38621174,1076.007608
1.5600,-1.203208693,17.39875006,1076.02805
1.5650,-1.232594262,17.4113074,1076.048805
1.5700,-1.262261511,17.42388827,1076.069854
1.5750,-1.292203503,17.43654716,1076.091207
1.5800,-1.322412052,17.44929627,1076.112862
1.5850,-1.352882278,17.46216861,1076.134826
1.5900,-1.383531382,17.47517628,1076.157084
1.5950,-1.414387613,17.48828538,1076.179643
1.6000,-1.445469041,17.50149225,1076.202503
1.6050,-1.476724455,17.51482697,1076.225666
1.6100,-1.508137156,17.52823716,1076.249131
1.6150,-1.539714687,17.54171285,1076.272897
1.6200,-1.571511507,17.55518478,1076.296966
1.6250,-1.603429323,17.56869523,1076.321332
1.6300,-1.635516195,17.5821959,1076.345995
1.6350,-1.667649685,17.59565366,1076.370923
1.6400,-1.699871666,17.60910616,1076.39614
1.6450,-1.732167233,17.62250462,1076.421628
1.6500,-1.764488744,17.63588194,1076.447386
1.6550,-1.796820272,17.64921604,1076.473411
1.6600,-1.829114091,17.66249584,1076.499682
1.6650,-1.86131465,17.67578667,1076.526202
1.6700,-1.893410352,17.68906898,1076.552961
1.6750,-1.925373938,17.7023643,1076.579953
1.6800,-1.957114074,17.71574747,1076.607165
1.6850,-1.988635096,17.72915858,1076.63459
1.6900,-2.019908457,17.7426658,1076.662233
1.6950,-2.050898228,17.75623875,1076.690066
1.7000,-2.081635928,17.76989632,1076.7181
1.7050,-2.112081142,17.78365362,1076.746326
1.7100,-2.142181274,17.79757915,1076.774725
1.7150,-2.171955871,17.81163577,1076.803298
1.7200,-2.201341669,17.8258293,1076.832021
1.7250,-2.230351954,17.840141,1076.860906
1.7300,-2.258977802,17.85455197,1076.88995
1.7350,-2.287251372,17.86905849,1076.919156
1.7400,-2.315176526,17.8836504,1076.948528
1.7450,-2.342752311,17.89821349,1076.97804
1.7500,-2.370018795,17.91273028,1077.007699
1.7550,-2.396971434,17.92717152,1077.037495
1.7600,-2.42365164,17.94149328,1077.067425
1.7650,-2.450042011,17.95565689,1077.097483
1.7700,-2.476174002,17.96964866,1077.127666
1.7750,-2.50200257,17.98346529,1077.157966
1.7800,-2.527579915,17.99710058,1077.188398
1.7850,-2.552873796,18.01053954,1077.218945
1.7900,-2.577894289,18.0237754,1077.249604
1.7950,-2.602632724,18.03682198,1077.280372
1.8000,-2.627073068,18.04968634,1077.311239
1.8050,-2.65117189,18.06242527,1077.34221
1.8100,-2.674946106,18.07505595,1077.373275
1.8150,-2.698347075,18.08755392,1077.404419
1.8200,-2.721394423,18.0999724,1077.435652
1.8250,-2.744142421,18.11228759,1077.466983
1.8300,-2.766586991,18.12447395,1077.49841
1.8350,-2.788696759,18.13660968,1077.529924
1.8400,-2.810483721,18.14865081,1077.561516
1.8450,-2.831960655,18.1605954,1077.593192
1.8500,-2.853156354,18.17252051,1077.624965
1.8550,-2.874076425,18.18435062,1077.656815
1.8600,-2.894736061,18.19610951,1077.688754
1.8650,-2.915073283,18.20777614,1077.720766
1.8700,-2.93516878,18.21930369,1077.752855
1.8750,-2.955034605,18.23064789,1077.785018
1.8800,-2.974739839,18.2417793,1077.817263
1.8850,-2.994253475,18.25270293,1077.849582
1.8900,-3.013650956,18.26335431,1077.881978
1.8950,-3.032918333,18.27378736,1077.914454
1.9000,-3.05206081,18.28399355,1077.947011
1.9050,-3.071098578,18.29394959,1077.979644
1.9100,-3.090057249,18.30362475,1078.012336
1.9150,-3.108944149,18.31305531,1078.045102
1.9200,-3.127725154,18.32223412,1078.077942
1.9250,-3.146421415,18.33115457,1078.110851
1.9300,-3.165038949,18.33986139,1078.143842
1.9350,-3.183598678,18.3483044,1078.176913
1.9400,-3.202137853,18.35648405,1078.21006
1.9450,-3.220631181,18.36441855,1078.243295
1.9500,-3.239116394,18.37206197,1078.276612
1.9550,-3.257606804,18.37943194,1078.310001
1.9600,-3.276121121,18.38650957,1078.343476
1.9650,-3.294684566,18.39329512,1078.377025
1.9700,-3.313264248,18.39979721,1078.410651
1.9750,-3.33184542,18.40601747,1078.444351
1.9800,-3.350447945,18.41189923,1078.478122
1.9850,-3.36903582,18.41750793,1078.511955
1.9900,-3.387620532,18.42283156,1078.545847
1.9950,-3.406172793,18.42781972,1078.579783
2.0000,-3.424662749,18.43251558,1078.613775
2.0050,-3.443133458,18.43688961,1078.647804
2.0100,-3.461610741,18.44092372,1078.681895
2.0150,-3.48011427,18.4446412,1078.716048
2.0200,-3.498636929,18.44803669,1078.75025
2.0250,-3.517162323,18.45114572,1078.784485
2.0300,-3.535690525,18.45397754,1078.818751
2.0350,-3.55419522,18.45657263,1078.85305
2.0400,-3.572667652,18.45889899,1078.887347
2.0450,-3.591140207,18.46102688,1078.921671
2.0500,-3.609593614,18.46293286,1078.956004
2.0550,-3.628041492,18.46461724,1078.990342
2.0600,-3.646504226,18.46612732,1079.024703
2.0650,-3.664975642,18.46746377,1079.059068
2.0700,-3.683472128,18.46866482,1079.093459
2.0750,-3.701957607,18.46975809,1079.127874
2.0800,-3.720430795,18.47071828,1079.162298
2.0850,-3.738930624,18.47159121,1079.196738
2.0900,-3.757459774,18.47240067,1079.231197
2.0950,-3.775986563,18.47317403,1079.265662
2.1000,-3.794526447,18.47389174,1079.300134
2.1050,-3.813123089,18.47455745,1079.334621
2.1100,-3.831706967,18.47514266,1079.369101
2.1150,-3.850317373,18.47569332,1079.403584
2.1200,-3.868953787,18.47619053,1079.438065
2.1250,-3.887551262,18.47665854,1079.472504
2.1300,-3.906089683,18.47711175,1079.506901
2.1350,-3.924522533,18.47758038,1079.541252
2.1400,-3.942854052,18.47811904,1079.575578
2.1450,-3.96109674,18.4787562,1079.609879
2.1500,-3.979200136,18.47946723,1079.644131
2.1550,-3.997127168,18.48031284,1079.678355
2.1600,-4.014872356,18.48127385,1079.712538
2.1650,-4.032513444,18.4823796,1079.746687
2.1700,-4.050021573,18.4836074,1079.780803
2.1750,-4.067329501,18.48499151,1079.814857
2.1800,-4.084474613,18.48651676,1079.84887
2.1850,-4.101491072,18.48817492,1079.882844
2.1900,-4.118382158,18.48996523,1079.916787
2.1950,-4.135152615,18.49192965,1079.9507
2.2000,-4.151799186,18.49402146,1079.984589
2.2050,-4.168346516,18.4962948,1080.018452
2.2100,-4.184792848,18.49878436,1080.052302
2.2150,-4.201135941,18.50144858,1080.086136
2.2200,-4.217406713,18.50437079,1080.119964
2.2250,-4.233628667,18.50750017,1080.153791
2.2300,-4.249761665,18.51083061,1080.187604
2.2350,-4.265831952,18.51438841,1080.221419
2.2400,-4.281858619,18.51810807,1080.255226
2.2450,-4.297870842,18.52201648,1080.28904
2.2500,-4.313861539,18.52611888,1080.322852
2.2550,-4.329797065,18.53041161,1080.356655
2.2600,-4.345643726,18.53491042,1080.390432
2.2650,-4.361417042,18.53959798,1080.424185
2.2700,-4.377109543,18.54448442,1080.457909
2.2750,-4.392744395,18.54956841,1080.491618
2.2800,-4.408272913,18.55488349,1080.525304
2.2850,-4.423691329,18.56044224,1080.558961
2.2900,-4.438987299,18.56620602,1080.592573
2.2950,-4.454168707,18.5721846,1080.62616
2.3000,-4.469239653,18.57835654,1080.659713
2.3050,-4.484150634,18.58471207,1080.693217
2.3100,-4.498882212,18.59122231,1080.726653
2.3150,-4.51338911,18.59788666,1080.759994
2.3200,-4.527705445,18.60465683,1080.793257
2.3250,-4.541849634,18.61148269,1080.826444
2.3300,-4.555803775,18.61835538,1080.859541
2.3350,-4.569620553,18.62523565,1080.892556
2.3400,-4.58331011,18.63210444,1080.925506
2.3450,-4.596884762,18.63888369,1080.958362
2.3500,-4.610348468,18.64561795,1080.99114
2.3550,-4.623707017,18.65223185,1081.023844
2.3600,-4.636966798,18.65875003,1081.056463
2.3650,-4.650138664,18.66515673,1081.089018
2.3700,-4.66321337,18.67140855,1081.121478
2.3750,-4.676227642,18.67747647,1081.153843
2.3800,-4.689177016,18.68340424,1081.186129
2.3850,-4.702064528,18.68916576,1081.218334
2.3900,-4.714842801,18.69478553,1081.250446
2.3950,-4.7275966,18.70020516,1081.282482
2.4000,-4.740314805,18.7054673,1081.314442
2.4050,-4.752968194,18.71053288,1081.346296
2.4100,-4.765609616,18.71541182,1081.378067
2.4150,-4.77822655,18.72004808,1081.409731
2.4200,-4.790834786,18.7244346,1081.441302
2.4250,-4.80345235,18.7285781,1081.472797
2.4300,-4.816141207,18.73240066,1081.504208
2.4350,-4.828954612,18.73586175,1081.535539
2.4400,-4.841889235,18.73894997,1081.566781
2.4450,-4.854949255,18.74165446,1081.597947
2.4500,-4.868175683,18.74394879,1081.629046
2.4550,-4.881583031,18.74584054,1081.660072
2.4600,-4.895129417,18.74733564,1081.690998
2.4650,-4.908804144,18.74842107,1081.721835
2.4700,-4.9226402,18.74912757,1081.752593
2.4750,-4.936666253,18.74948221,1081.783291
2.4800,-4.95079413,18.74956971,1081.813924
2.4850,-4.965018706,18.74938391,1081.844482
2.4900,-4.979308984,18.74896696,1081.874963
2.4950,-4.993662561,18.74828966,1081.905352
2.5000,-5.008051743,18.74741365,1081.935647
2.5050,-5.022501055,18.74636303,1081.965886
2.5100,-5.036921993,18.7451881,1081.996062
2.5150,-5.05124366,18.74393949,1082.026146
2.5200,-5.065464656,18.7426061,1082.05613
2.5250,-5.079569767,18.74119775,1082.086002
2.5300,-5.093523552,18.73972879,1082.115752
2.5350,-5.107324381,18.73823411,1082.145395
2.5400,-5.120912833,18.73674996,1082.174905
2.5450,-5.134261191,18.73526465,1082.204255
2.5500,-5.147347277,18.73378857,1082.233461
2.5550,-5.160152007,18.73234791,1082.262507
2.5600,-5.172651857,18.73090594,1082.291386
2.5650,-5.184815156,18.72948619,1082.320091
2.5700,-5.196700125,18.72804737,1082.348617
2.5750,-5.208239872,18.72662578,1082.376949
2.5800,-5.219466533,18.72521847,1082.405098
2.5850,-5.230323455,18.72376766,1082.433038
2.5900,-5.240796336,18.72234621,1082.460782
2.5950,-5.250885832,18.72095024,1082.488317
2.6000,-5.260527464,18.71960278,1082.515603
2.6050,-5.269782658,18.71830127,1082.542676
2.6100,-5.278641175,18.71705116,1082.569519
2.6150,-5.287159536,18.7158604,1082.596168
2.6200,-5.295323404,18.71473477,1082.622612
2.6250,-5.303161167,18.71370161,1082.648867
2.6300,-5.31068891,18.71271681,1082.674935
2.6350,-5.317888842,18.71183444,1082.700829
2.6400,-5.324721608,18.71106129,1082.726533
2.6450,-5.331164434,18.71042258,1082.752052
2.6500,-5.337209227,18.7098576,1082.777367
2.6550,-5.342906347,18.70941969,1082.802497
2.6600,-5.348245419,18.70904739,1082.827425
2.6650,-5.353266949,18.70873794,1082.852158
2.6700,-5.357975086,18.70848196,1082.876702
2.6750,-5.362457633,18.70825441,1082.901085
2.6800,-5.366721457,18.70802192,1082.925307
2.6850,-5.370779466,18.70779251,1082.949352
2.6900,-5.374678408,18.70750889,1082.973245
2.6950,-5.378404372,18.70719261,1082.996977
2.7000,-5.381960992,18.70687334,1083.020559
2.7050,-5.385352215,18.70657174,1083.043997
2.7100,-5.388581654,18.70628493,1083.06729
2.7150,-5.391672623,18.70602458,1083.09045
2.7200,-5.394658378,18.70575445,1083.113475
2.7250,-5.397521811,18.70548022,1083.136369
2.7300,-5.400255869,18.70527628,1083.159148
2.7350,-5.402870588,18.70510286,1083.18181
2.7400,-5.40537225,18.7049685,1083.204352
2.7450,-5.407766751,18.70485983,1083.226756
2.7500,-5.410091455,18.70478277,1083.249035
2.7550,-5.412395538,18.70472532,1083.271206
2.7600,-5.414699012,18.70470928,1083.293299
2.7650,-5.416969311,18.70472151,1083.315305
2.7700,-5.419182812,18.70480209,1083.337222
2.7750,-5.421342517,18.70495336,1083.359061
2.7800,-5.423421274,18.70514747,1083.380769
2.7850,-5.425432436,18.70538337,1083.402367
2.7900,-5.427377217,18.70567405,1083.423848
2.7950,-5.429245079,18.70600958,1083.445229
2.8000,-5.431026273,18.70643828,1083.466509
2.8050,-5.432660961,18.70689633,1083.487633
2.8100,-5.434191282,18.70736408,1083.508594
2.8150,-5.43568316,18.70782429,1083.52944
2.8200,-5.437090796,18.70826903,1083.550159
2.8250,-5.438392857,18.70874811,1083.570744
2.8300,-5.439628479,18.70918262,1083.591215
2.8350,-5.440758946,18.70962084,1083.611544
2.8400,-5.441778071,18.71000961,1083.631728
2.8450,-5.442673152,18.71034403,1083.651754
2.8500,-5.443468501,18.71058127,1083.671633
2.8550,-5.444189068,18.71071099,1083.691381
2.8600,-5.444819718,18.7107527,1083.710997
2.8650,-5.445401494,18.71068761,1083.730496
2.8700,-5.445914779,18.7105009,1083.749901
2.8750,-5.446396477,18.71016186,1083.7692
2.8800,-5.44681715,18.70967605,1083.788384
2.8850,-5.447235046,18.70909167,1083.807498
2.8900,-5.447624733,18.70838612,1083.826529
2.8950,-5.44793928,18.70760194,1083.845462
2.9000,-5.448246063,18.70671381,1083.864334
2.9050,-5.448452602,18.70574509,1083.883117
2.9100,-5.448528801,18.70474656,1083.901813
2.9150,-5.448440003,18.70373121,1083.920402
2.9200,-5.448162597,18.70268982,1083.938873
2.9250,-5.447626469,18.70159703,1083.957186
2.9300,-5.446828506,18.700435,1083.975332
2.9350,-5.445757874,18.69916134,1083.993281
2.9400,-5.444480624,18.69772321,1084.011051
2.9450,-5.442975537,18.69611362,1084.028636
2.9500,-5.441281669,18.69435004,1084.046061
2.9550,-5.439343961,18.6924152,1084.063295
2.9600,-5.437198256,18.69036568,1084.080398
2.9650,-5.434836146,18.68815621,1084.097339
2.9700,-5.432219857,18.68579514,1084.114088
2.9750,-5.429358469,18.68326525,1084.130666
2.9800,-5.426219147,18.68057108,1084.147037
2.9850,-5.422824875,18.67773305,1084.163233
2.9900,-5.419170322,18.67477719,1084.179245
2.9950,-5.415253543,18.67169697,1084.195088
3.0000,-5.411112632,18.66846254,1084.21075
3.0050,-5.406745086,18.66507048,1084.226232
3.0100,-5.402171853,18.66154341,1084.241557
3.0150,-5.397358969,18.65790402,1084.256703
3.0200,-5.392290405,18.65419718,1084.271665
3.0250,-5.386935927,18.6504659,1084.286436
3.0300,-5.381250474,18.6466833,1084.300981
3.0350,-5.375194209,18.64286644,1084.315273
3.0400,-5.368835356,18.63894898,1084.329327
3.0450,-5.362205275,18.63492588,1084.343146
3.0500,-5.355323214,18.63076441,1084.35673
3.0550,-5.348209905,18.62646047,1084.370077
3.0600,-5.340877947,18.62195287,1084.383187
3.0650,-5.333362384,18.61725274,1084.396062
3.0700,-5.325761626,18.61231135,1084.408713
3.0750,-5.318106657,18.60712814,1084.42115
3.0800,-5.310502054,18.60164057,1084.433427
3.0850,-5.302960689,18.59589294,1084.445549
3.0900,-5.295509518,18.58986261,1084.457528
3.0950,-5.288204917,18.58361528,1084.469394
3.1000,-5.281122112,18.57712177,1084.481171
3.1050,-5.27431617,18.57042307,1084.492897
3.1100,-5.267824873,18.56359325,1084.504628
3.1150,-5.26159955,18.55671412,1084.516339
3.1200,-5.255659395,18.54982842,1084.528047
3.1250,-5.25000047,18.54297489,1084.539751
3.1300,-5.244647607,18.53625821,1084.551488
3.1350,-5.239609087,18.52971296,1084.563272
3.1400,-5.234877724,18.52341655,1084.575113
3.1450,-5.230435509,18.51742986,1084.58703
3.1500,-5.226232509,18.51177078,1084.598965
3.1550,-5.222218448,18.50647051,1084.610924
3.1600,-5.218369733,18.50156525,1084.622893
3.1650,-5.214615227,18.49708405,1084.634844
3.1700,-5.210878712,18.49304667,1084.646717
3.1750,-5.207087976,18.48946222,1084.658489
3.1800,-5.203246502,18.48632582,1084.670154
3.1850,-5.199336746,18.48359354,1084.681692
3.1900,-5.195334416,18.4812471,1084.693085
3.1950,-5.191242992,18.47927302,1084.704345
3.2000,-5.187013687,18.47763413,1084.715444
3.2050,-5.182615861,18.47634865,1084.726363
3.2100,-5.178073793,18.47534392,1084.73711
3.2150,-5.173299112,18.47456003,1084.747644
3.2200,-5.168336167,18.4740238,1084.758002
3.2250,-5.163212966,18.47366382,1084.768176
3.2300,-5.15792723,18.47353885,1084.778189
3.2350,-5.152426516,18.47362626,1084.788016
3.2400,-5.146668728,18.47395023,1084.797667
3.2450,-5.14064991,18.47445876,1084.807123
3.2500,-5.134388395,18.47513386,1084.816409
3.2550,-5.127870832,18.47598651,1084.825534
3.2600,-5.12108972,18.47692345,1084.834454
3.2650,-5.114042482,18.4779896,1084.843202
3.2700,-5.106771607,18.47913588,1084.851812
3.2750,-5.099251816,18.48037401,1084.860267
3.2800,-5.091539402,18.48167997,1084.868597
3.2850,-5.083599094,18.48300871,1084.876775
3.2900,-5.075486331,18.48434209,1084.884832
3.2950,-5.067197703,18.48569619,1084.892762
3.3000,-5.058774247,18.48702485,1084.900589
3.3050,-5.050218312,18.48833119,1084.908329
3.3100,-5.041537473,18.48963546,1084.915983
3.3150,-5.032800938,18.49092621,1084.923587
3.3200,-5.024035013,18.49219616,1084.931169
3.3250,-5.015332952,18.49342852,1084.938765
3.3300,-5.006801312,18.49463614,1084.946436
3.3350,-4.998488252,18.49584092,1084.954218
3.3400,-4.990426515,18.49707859,1084.962144
3.3450,-4.982628855,18.49838554,1084.97023
3.3500,-4.975166102,18.49979272,1084.978522
3.3550,-4.968034145,18.50128767,1084.987012
3.3600,-4.96134712,18.50291284,1084.995752
3.3650,-4.955178983,18.50465203,1085.004777
3.3700,-4.949540375,18.50652782,1085.014118
3.3750,-4.944497535,18.50853304,1085.023801
3.3800,-4.940038097,18.51070668,1085.033828
3.3850,-4.936246293,18.51305731,1085.044239
3.3900,-4.933186334,18.51557862,1085.055075
3.3950,-4.930864957,18.51827929,1085.066322
3.4000,-4.929285948,18.52115095,1085.077998
3.4050,-4.928428603,18.5242538,1085.0901
3.4100,-4.928273506,18.52759561,1085.102603
3.4150,-4.928857721,18.53115216,1085.115523
3.4200,-4.930143651,18.53491264,1085.128834
3.4250,-4.932136832,18.53888328,1085.142538
3.4300,-4.934783743,18.54307144,1085.156594
3.4350,-4.938045551,18.54745533,1085.170971
3.4400,-4.94185733,18.55199481,1085.185624
3.4450,-4.946174065,18.5566817,1085.20052
3.4500,-4.950922775,18.56155899,1085.215638
3.4550,-4.956080681,18.56657967,1085.230935
3.4600,-4.96158475,18.57175276,1085.246383
3.4650,-4.967448962,18.57699601,1085.261961
3.4700,-4.973651917,18.58228927,1085.277654
3.4750,-4.980133717,18.58762032,1085.293436
3.4800,-4.986825546,18.59297367,1085.309257
3.4850,-4.993624141,18.59830295,1085.32505
3.4900,-5.000499134,18.60356004,1085.340789
3.4950,-5.007423629,18.6086855,1085.356426
3.5000,-5.014392314,18.613636,1085.371955
3.5050,-5.021404514,18.61836236,1085.387357
3.5100,-5.028426998,18.62280123,1085.402609
3.5150,-5.035479778,18.62695254,1085.417722
3.5200,-5.042528891,18.6307216,1085.432659
3.5250,-5.049523635,18.63409867,1085.447398
3.5300,-5.056434068,18.6370082,1085.461907
3.5350,-5.063323369,18.6393831,1085.476232
3.5400,-5.070165516,18.64122721,1085.490339
3.5450,-5.076976285,18.64253091,1085.504247
3.5500,-5.083748777,18.64329464,1085.517961
3.5550,-5.090481171,18.64350334,1085.531472
3.5600,-5.097156003,18.64315264,1085.54477
3.5650,-5.103764938,18.64223856,1085.557857
3.5700,-5.110333147,18.6407516,1085.570741
3.5750,-5.11684,18.63872385,1085.583423
3.5800,-5.123284193,18.63617672,1085.595908
3.5850,-5.129718726,18.63310474,1085.608241
3.5900,-5.136121015,18.6295254,1085.620411
3.5950,-5.142520991,18.62544721,1085.63243
3.6000,-5.148864788,18.62092757,1085.644285
3.6050,-5.155216014,18.61597345,1085.656009
3.6100,-5.161582598,18.61063007,1085.667616
3.6150,-5.167932749,18.60493395,1085.679096
3.6200,-5.174263156,18.59891814,1085.690447
3.6250,-5.180544835,18.59263565,1085.701663
3.6300,-5.186772908,18.58611387,1085.712745
3.6350,-5.192975645,18.57939874,1085.723723
3.6400,-5.199168891,18.57252531,1085.734597
3.6450,-5.205376488,18.56553301,1085.745399
3.6500,-5.211533864,18.55842468,1085.756079
3.6550,-5.217677771,18.55127959,1085.766698
3.6600,-5.223823982,18.54412485,1085.777269
3.6650,-5.22993328,18.53699017,1085.787763
3.6700,-5.236020158,18.52994623,1085.798212
3.6750,-5.242084999,18.52297642,1085.808607
3.6800,-5.248138291,18.51614976,1085.818965
3.6850,-5.254156072,18.50945433,1085.829265
3.6900,-5.260134192,18.50298786,1085.839518
3.6950,-5.266068492,18.49671911,1085.849725
3.7000,-5.271958085,18.49071462,1085.859882
3.7050,-5.27780899,18.48501265,1085.870003
3.7100,-5.283623261,18.47959709,1085.880085
3.7150,-5.289389475,18.47447086,1085.890111
3.7200,-5.295093761,18.46966543,1085.900081
3.7250,-5.300762,18.46522974,1085.91002
3.7300,-5.306365717,18.46112344,1085.919894
3.7350,-5.311881206,18.45736249,1085.929694
3.7400,-5.317319708,18.45395154,1085.93941
3.7450,-5.322685698,18.45091091,1085.949055
3.7500,-5.327998709,18.44819088,1085.958601
3.7550,-5.333236859,18.44580774,1085.968039
3.7600,-5.338415207,18.44373533,1085.977373
3.7650,-5.34347827,18.44197759,1085.986558
3.7700,-5.348411429,18.44057546,1085.9956
3.7750,-5.353253237,18.43948744,1086.004484
3.7800,-5.357983053,18.43868072,1086.013186
3.7850,-5.362644475,18.43817135,1086.021749
3.7900,-5.367231842,18.43797206,1086.030146
3.7950,-5.371746083,18.43807016,1086.038391
3.8000,-5.376153535,18.43849906,1086.046445
3.8050,-5.380433841,18.43917018,1086.054264
3.8100,-5.384567861,18.44013517,1086.061833
3.8150,-5.388573096,18.44132947,1086.069144
3.8200,-5.392433814,18.44278569,1086.076172
3.8250,-5.396117291,18.4444923,1086.082891
3.8300,-5.399617631,18.446431,1086.089273
3.8350,-5.402923462,18.44863287,1086.095299
3.8400,-5.406027814,18.45106387,1086.100958
3.8450,-5.408953048,18.45371442,1086.106247
3.8500,-5.411639909,18.45660443,1086.111111
3.8550,-5.414077833,18.45970121,1086.115536
3.8600,-5.416310973,18.46297666,1086.11954
3.8650,-5.418338618,18.46643811,1086.123107
3.8700,-5.420114085,18.47009687,1086.126188
3.8750,-5.421674231,18.47394976,1086.128817
3.8800,-5.423018444,18.47793022,1086.130958
3.8850,-5.42411794,18.48208409,1086.132591
3.8900,-5.424962454,18.48638487,1086.133695
3.8950,-5.425573828,18.49084152,1086.134292
3.9000,-5.425942931,18.49544066,1086.134363
3.9050,-5.42604302,18.50017638,1086.133888
3.9100,-5.425881303,18.50500153,1086.132855
3.9150,-5.425453535,18.50994235,1086.131276
3.9200,-5.424782102,18.51498539,1086.129168
3.9250,-5.423895021,18.52010747,1086.126536
3.9300,-5.422770236,18.52529703,1086.123384
3.9350,-5.421435501,18.53055023,1086.11972
3.9400,-5.419850009,18.53588013,1086.115527
3.9450,-5.418018158,18.54126254,1086.110815
3.9500,-5.415981477,18.54673605,1086.105641
3.9550,-5.41375232,18.55222134,1086.099969
3.9600,-5.411311342,18.55773449,1086.093813
3.9650,-5.408705998,18.56327042,1086.087223
3.9700,-5.40593985,18.56877448,1086.080186
3.9750,-5.403031972,18.57430968,1086.07274
3.9800,-5.400017907,18.57984099,1086.064921
3.9850,-5.396880484,18.58541966,1086.056747
3.9900,-5.393629348,18.59099566,1086.048227
3.9950,-5.3902878,18.59662927,1086.039396
4.0000,-5.38687593,18.60229073,1086.030269
4.0050,-5.383440163,18.6079304,1086.020879
4.0100,-5.380003041,18.61355319,1086.011249
4.0150,-5.376624541,18.61913703,1086.001427
4.0200,-5.373323609,18.62472173,1085.99144
4.0250,-5.370100318,18.63024584,1085.98129
4.0300,-5.367007183,18.63576306,1085.971031
4.0350,-5.364064675,18.64124176,1085.960666
4.0400,-5.36127749,18.64670097,1085.950221
4.0450,-5.358659534,18.65212265,1085.939691
4.0500,-5.356193175,18.6575152,1085.929088
4.0550,-5.353900224,18.66289344,1085.918419
4.0600,-5.351767973,18.66823871,1085.907666
4.0650,-5.349816165,18.67355245,1085.896836
4.0700,-5.348041194,18.67881731,1085.885925
4.0750,-5.34641753,18.68405424,1085.874928
4.0800,-5.344981674,18.68927313,1085.863877
4.0850,-5.343746418,18.69445529,1085.852747
4.0900,-5.342642984,18.69959455,1085.841498
4.0950,-5.341692071,18.70470418,1085.830134
4.1000,-5.340857542,18.70978323,1085.818637
4.1050,-5.340143409,18.71486392,1085.80702
4.1100,-5.339538209,18.71992894,1085.79526
4.1150,-5.338987005,18.72502168,1085.783328
4.1200,-5.338493743,18.73008619,1085.77122
4.1250,-5.338077207,18.73515708,1085.758955
4.1300,-5.337753863,18.74024299,1085.746567
4.1350,-5.337498791,18.74530551,1085.734009
4.1400,-5.337354746,18.75034176,1085.721322
4.1450,-5.337278093,18.75535032,1085.708483
4.1500,-5.337341412,18.7602776,1085.695519
4.1550,-5.337558612,18.76513546,1085.682441
4.1600,-5.337915343,18.76994282,1085.669262
4.1650,-5.338424241,18.77463254,1085.655965
4.1700,-5.339084057,18.77923025,1085.642579
4.1750,-5.339915446,18.78369504,1085.629081
4.1800,-5.340855537,18.78804379,1085.615449
4.1850,-5.341946575,18.79221358,1085.601693
4.1900,-5.343144796,18.79625274,1085.5878
4.1950,-5.344423341,18.80010984,1085.573745
4.2000,-5.345826915,18.80378064,1085.559558
4.2050,-5.347318867,18.80731206,1085.54523
4.2100,-5.348910872,18.81067689,1085.530774
4.2150,-5.350647858,18.81385097,1085.516208
4.2200,-5.35248376,18.816824,1085.501519
4.2250,-5.354423725,18.81960449,1085.486712
4.2300,-5.356492107,18.82221756,1085.471802
4.2350,-5.358646342,18.82462829,1085.456763
4.2400,-5.360895528,18.82683392,1085.44161
4.2450,-5.363261854,18.82884411,1085.426353
4.2500,-5.36574676,18.83062504,1085.410987
4.2550,-5.368335255,18.83225493,1085.395541
4.2600,-5.371032143,18.83371493,1085.380018
4.2650,-5.373855623,18.83502564,1085.364433
4.2700,-5.37678641,18.83621719,1085.3488
4.2750,-5.379805597,18.8372552,1085.333119
4.2800,-5.382910141,18.83815785,1085.317378
4.2850,-5.386168075,18.83890749,1085.301627
4.2900,-5.389579651,18.83952777,1085.285864
4.2950,-5.393151559,18.840001,1085.270101
4.3000,-5.39687232,18.84035299,1085.254353
4.3050,-5.400738111,18.84059657,1085.238601
4.3100,-5.404709164,18.84073068,1085.222828
4.3150,-5.408781102,18.84081551,1085.207048
4.3200,-5.412935449,18.84081754,1085.191246
4.3250,-5.417111094,18.84081274,1085.175412
4.3300,-5.421324357,18.84081746,1085.159556
4.3350,-5.425542222,18.84082819,1085.14365
4.3400,-5.429776679,18.84089179,1085.127715
4.3450,-5.434023897,18.8409947,1085.111737
4.3500,-5.438282762,18.84117129,1085.095737
4.3550,-5.442584458,18.84140682,1085.079719
4.3600,-5.446945216,18.84171855,1085.063693
4.3650,-5.451356155,18.84209688,1085.047648
4.3700,-5.455811601,18.84254352,1085.031572
4.3750,-5.46033146,18.84309633,1085.015489
4.3800,-5.464879921,18.84375599,1084.999364
4.3850,-5.469426388,18.84453976,1084.983206
4.3900,-5.473980756,18.84549531,1084.967018
4.3950,-5.478484497,18.846629,1084.950769
4.4000,-5.482994936,18.84790802,1084.934481
4.4050,-5.487496454,18.84933052,1084.918143
4.4100,-5.491969176,18.85087138,1084.901728
4.4150,-5.496456904,18.85255094,1084.885254
4.4200,-5.500903467,18.85437355,1084.868692
4.4250,-5.505323266,18.85628311,1084.852038
4.4300,-5.509645511,18.85836599,1084.835247
4.4350,-5.513884766,18.8606268,1084.818345
4.4400,-5.517970143,18.86305192,1084.801263
4.4450,-5.52192948,18.86565806,1084.784009
4.4500,-5.525676658,18.86849121,1084.766563
4.4550,-5.529207671,18.87155186,1084.748918
4.4600,-5.532479301,18.87479621,1084.731017
4.4650,-5.535472043,18.87826221,1084.712865
4.4700,-5.538230442,18.88190595,1084.694452
4.4750,-5.540748083,18.88568394,1084.675779
4.4800,-5.543062739,18.88961662,1084.656849
4.4850,-5.545162008,18.89370109,1084.637648
4.4900,-5.547094927,18.8978898,1084.618196
4.4950,-5.548824586,18.90219399,1084.598457
4.5000,-5.550346412,18.90659751,1084.578417
4.5050,-5.551713249,18.91106433,1084.558095
4.5100,-5.552880579,18.91566417,1084.537481
4.5150,-5.553815931,18.92037191,1084.516549
4.5200,-5.554522925,18.92524432,1084.495299
4.5250,-5.55496815,18.93024284,1084.473708
4.5300,-5.555158412,18.93533625,1084.45176
4.5350,-5.555125371,18.94053395,1084.42948
4.5400,-5.554892261,18.94580684,1084.406881
4.5450,-5.554416287,18.95113081,1084.383934
4.5500,-5.553747616,18.95649214,1084.360657
4.5550,-5.552857648,18.96192684,1084.337056
4.5600,-5.551744109,18.96742944,1084.313118
4.5650,-5.550409875,18.97298678,1084.288847
4.5700,-5.548886683,18.97858561,1084.264249
4.5750,-5.547196091,18.98424339,1084.239327
4.5800,-5.545330889,18.98995847,1084.214094
4.5850,-5.543291737,18.99575886,1084.18855
4.5900,-5.541087407,19.00166161,1084.162715
4.5950,-5.538712354,19.00767671,1084.136587
4.6000,-5.536159049,19.01378627,1084.110162
4.6050,-5.533414784,19.01995395,1084.083445
4.6100,-5.530521833,19.02619063,1084.056468
4.6150,-5.527473402,19.03247,1084.029228
4.6200,-5.524277825,19.03881264,1084.001728
4.6250,-5.520997961,19.0451403,1083.973972
4.6300,-5.517546981,19.05146805,1083.945945
4.6350,-5.513973405,19.05777879,1083.917674
4.6400,-5.510203793,19.06406123,1083.889136
4.6450,-5.506263222,19.07034988,1083.860363
4.6500,-5.502164371,19.07661678,1083.831349
4.6550,-5.49788023,19.08289739,1083.802114
4.6600,-5.493417506,19.08914337,1083.77266
4.6650,-5.488759292,19.09540576,1083.743013
4.6700,-5.483915762,19.10167993,1083.71318
4.6750,-5.478867661,19.10793049,1083.683133
4.6800,-5.473636038,19.11414645,1083.652882
4.6850,-5.468217308,19.12027115,1083.622409
4.6900,-5.462679567,19.12628931,1083.591759
4.6950,-5.456995364,19.13219487,1083.560927
4.7000,-5.451130591,19.13800785,1083.529909
4.7050,-5.445063173,19.14378875,1083.498701
4.7100,-5.438825489,19.14952669,1083.467333
4.7150,-5.432404669,19.1551909,1083.435792
4.7200,-5.425768259,19.16085089,1083.404074
4.7250,-5.418943595,19.16648584,1083.372178
4.7300,-5.411970413,19.17206628,1083.340138
4.7350,-5.404828123,19.17758308,1083.307935
4.7400,-5.397547877,19.18307889,1083.275591
4.7450,-5.390090056,19.18849648,1083.243086
4.7500,-5.38247912,19.19383588,1083.210427
4.7550,-5.374753816,19.19902341,1083.177604
4.7600,-5.366929289,19.20414596,1083.144654
4.7650,-5.359007094,19.20919722,1083.111573
4.7700,-5.350954045,19.21419342,1083.07835
4.7750,-5.342745587,19.21915046,1083.044968
4.7800,-5.334427917,19.22405689,1083.011452
4.7850,-5.326004658,19.22890974,1082.977798
4.7900,-5.317453332,19.23371407,1082.944008
4.7950,-5.308806916,19.23850485,1082.910093
4.8000,-5.300075763,19.2432715,1082.876065
4.8050,-5.291239493,19.24803292,1082.841897
4.8100,-5.282290368,19.25271417,1082.807566
4.8150,-5.2732351,19.25731753,1082.773063
4.8200,-5.264040554,19.26178772,1082.738358
4.8250,-5.254766276,19.26617059,1082.703497
4.8300,-5.245371701,19.27050655,1082.66848
4.8350,-5.235810037,19.27481014,1082.633299
4.8400,-5.226064332,19.27911584,1082.597942
4.8450,-5.21613886,19.28343943,1082.562425
4.8500,-5.205959237,19.28780488,1082.526716
4.8550,-5.195613595,19.29214718,1082.490824
4.8600,-5.185100095,19.2964903,1082.45477
4.8650,-5.174435643,19.30086624,1082.418553
4.8700,-5.163618234,19.30523176,1082.382147
4.8750,-5.152655187,19.30958696,1082.345572
4.8800,-5.141531382,19.31390938,1082.308824
4.8850,-5.130247742,19.31817985,1082.271885
4.8900,-5.118780143,19.3223515,1082.234742
4.8950,-5.107117385,19.3264261,1082.197401
4.9000,-5.095257054,19.330397,1082.159863
4.9050,-5.083153816,19.33431111,1082.122137
4.9100,-5.070804184,19.33818125,1082.084216
4.9150,-5.058162299,19.34204348,1082.046083
4.9200,-5.045311803,19.34586442,1082.007767
4.9250,-5.032210197,19.34966816,1081.969251
4.9300,-5.01892526,19.35343527,1081.930553
4.9350,-5.005459093,19.35717322,1081.891668
4.9400,-4.991917025,19.36084101,1081.852619
4.9450,-4.978283643,19.36441704,1081.813386
4.9500,-4.964591468,19.36786586,1081.773966
4.9550,-4.95084114,19.37118764,1081.734346
4.9600,-4.937068989,19.37445209,1081.694552
4.9650,-4.923302699,19.37760448,1081.654587
4.9700,-4.909512076,19.38065625,1081.614435
4.9750,-4.895692389,19.38362392,1081.57413
4.9800,-4.881828807,19.38655161,1081.533667
4.9850,-4.867946733,19.38953145,1081.493077
4.9900,-4.854090771,19.39254466,1081.45237
4.9950,-4.840333608,19.39557713,1081.41155
5.0000,-4.826665697,19.39864472,1081.370611
5.0050,-4.813119948,19.40172268,1081.329569
5.0100,-4.799647671,19.40485546,1081.288419
5.0150,-4.786263946,19.40807631,1081.247188
5.0200,-4.773020163,19.41137439,1081.205869
5.0250,-4.759936177,19.41476342,1081.164481
5.0300,-4.746974413,19.41822366,1081.123012
5.0350,-4.734090176,19.42176306,1081.081472
5.0400,-4.721249988,19.4253495,1081.039863
5.0450,-4.70850966,19.4289891,1080.998209
5.0500,-4.695840818,19.43267455,1080.956506
5.0550,-4.683221629,19.43645579,1080.914776
5.0600,-4.670628669,19.44023641,1080.873006
5.0650,-4.658047024,19.44402224,1080.831191
5.0700,-4.645522989,19.44778758,1080.789364
5.0750,-4.633071082,19.45155962,1080.747524
5.0800,-4.620693943,19.4553318,1080.705685
5.0850,-4.608389359,19.45912119,1080.663854
5.0900,-4.596109309,19.46296466,1080.622021
5.0950,-4.583864141,19.46684932,1080.580208
5.1000,-4.571574232,19.47077605,1080.538411
5.1050,-4.559167897,19.47469839,1080.496616
5.1100,-4.546654448,19.47866084,1080.454856
5.1150,-4.533982358,19.48262764,1080.413131
5.1200,-4.521187987,19.48657896,1080.371451
5.1250,-4.508259288,19.490473,1080.329799
5.1300,-4.495166372,19.49429267,1080.288156
5.1350,-4.481901315,19.4980937,1080.246525
5.1400,-4.468426557,19.50187281,1080.204907
5.1450,-4.45470964,19.50569733,1080.163297
5.1500,-4.440811104,19.50961075,1080.121747
5.1550,-4.426603433,19.51360165,1080.080214
5.1600,-4.412038075,19.51768284,1080.038703
5.1650,-4.397018507,19.52187965,1079.997212
5.1700,-4.381472514,19.52621439,1079.955729
5.1750,-4.365366843,19.53070946,1079.914251
5.1800,-4.348710711,19.53539938,1079.872787
5.1850,-4.331440626,19.54027872,1079.831324
5.1900,-4.313537004,19.54540852,1079.789893
5.1950,-4.295006462,19.55076696,1079.748492
5.2000,-4.27586783,19.55631926,1079.707118
5.2050,-4.256189356,19.56204316,1079.66578
5.2100,-4.235952207,19.567926,1079.624482
5.2150,-4.215182846,19.57388646,1079.583235
5.2200,-4.193857358,19.57993871,1079.542056
5.2250,-4.172006468,19.58607761,1079.500964
5.2300,-4.149617427,19.59223656,1079.459948
5.2350,-4.126734547,19.59847589,1079.419063
5.2400,-4.10329854,19.60480175,1079.378272
5.2450,-4.079357667,19.61117219,1079.337616
5.2500,-4.054908591,19.61761819,1079.297106
5.2550,-4.029987853,19.62410161,1079.256746
5.2600,-4.004610215,19.63054944,1079.216531
5.2650,-3.978799292,19.63696324,1079.176456
5.2700,-3.952649318,19.6432873,1079.136552
5.2750,-3.926181061,19.64947255,1079.096796
5.2800,-3.899453405,19.65547128,1079.057218
5.2850,-3.872491838,19.66121918,1079.017795
5.2900,-3.845241218,19.66665584,1078.978515
5.2950,-3.817673291,19.67179978,1078.939385
5.3000,-3.78984526,19.67663422,1078.900434
5.3050,-3.761777,19.68117618,1078.861667
5.3100,-3.733550422,19.68538604,1078.8231
5.3150,-3.705158069,19.68926421,1078.784722
5.3200,-3.676617819,19.69277705,1078.746557
5.3250,-3.647860081,19.69601858,1078.708604
5.3300,-3.618939834,19.69900289,1078.670868
5.3350,-3.589895124,19.70177858,1078.633364
5.3400,-3.560781335,19.70427993,1078.596079
5.3450,-3.531602369,19.70658671,1078.559039
5.3500,-3.502425595,19.70861543,1078.522222
5.3550,-3.473276455,19.71033323,1078.485629
5.3600,-3.444239042,19.71179376,1078.449271
5.3650,-3.415375076,19.71294809,1078.413153
5.3700,-3.38670573,19.71384282,1078.37728
5.3750,-3.3581855,19.71447793,1078.341647
5.3800,-3.329806185,19.71488832,1078.306262
5.3850,-3.301537852,19.71505987,1078.27112
5.3900,-3.27341816,19.71501807,1078.23623
5.3950,-3.24545612,19.71478305,1078.201586
5.4000,-3.217650717,19.71439383,1078.167176
5.4050,-3.190033029,19.71388554,1078.133022
5.4100,-3.162556318,19.713327,1078.099129
5.4150,-3.135193639,19.71271627,1078.065491
5.4200,-3.107906284,19.71213429,1078.032125
5.4250,-3.080596198,19.7116275,1077.99903
5.4300,-3.053254007,19.71126795,1077.966223
5.4350,-3.025849412,19.71100965,1077.933706
5.4400,-2.998347004,19.71088186,1077.901479
5.4450,-2.970743954,19.71080608,1077.869522
5.4500,-2.942964097,19.7107767,1077.83782
5.4550,-2.91509323,19.7107726,1077.806394
5.4600,-2.887090773,19.71074575,1077.775217
5.4650,-2.859007681,19.71070781,1077.74431
5.4700,-2.830853897,19.71060657,1077.713671
5.4750,-2.802617067,19.71042229,1077.683301
5.4800,-2.774257625,19.71011921,1077.653186
5.4850,-2.745778325,19.70969666,1077.623348
5.4900,-2.717146722,19.70910365,1077.593753
5.4950,-2.688340698,19.70834846,1077.5644
5.5000,-2.659271572,19.7075029,1077.5353
5.5050,-2.629895965,19.7065537,1077.506442
5.5100,-2.600160515,19.7055169,1077.477815
5.5150,-2.57010059,19.70445393,1077.449447
5.5200,-2.539631247,19.70335125,1077.421306
5.5250,-2.508712054,19.70219537,1077.393385
5.5300,-2.477337393,19.7010031,1077.365679
5.5350,-2.44543644,19.69965034,1077.33814
5.5400,-2.413075241,19.69818206,1077.310812
5.5450,-2.380200328,19.69654607,1077.283657
5.5500,-2.346848847,19.69469816,1077.256672
5.5550,-2.312989513,19.69258216,1077.229848
5.5600,-2.278685855,19.69017386,1077.203195
5.5650,-2.243938731,19.68747211,1077.17671
5.5700,-2.208790882,19.68446439,1077.150392
5.5750,-2.173268436,19.68113762,1077.124244
5.5800,-2.137433661,19.67747588,1077.098259
5.5850,-2.101295912,19.67350084,1077.072451
5.5900,-2.064945735,19.66928055,1077.04684
5.5950,-2.028452425,19.66483381,1077.021436
5.6000,-1.991829799,19.66017176,1076.996236
5.6050,-1.955160367,19.655321,1076.971267
5.6100,-1.918392425,19.65025658,1076.946502
5.6150,-1.881583074,19.64501457,1076.921971
5.6200,-1.844779046,19.6396605,1076.897693
5.6250,-1.808063024,19.63412659,1076.873665
5.6300,-1.771433001,19.62848491,1076.849908
5.6350,-1.734927168,19.62271784,1076.826426
5.6400,-1.69855122,19.61695586,1076.803251
5.6450,-1.662316076,19.61122063,1076.780387
5.6500,-1.626189895,19.60561573,1076.757851
5.6550,-1.590209369,19.6001964,1076.735655
5.6600,-1.554342255,19.59500313,1076.7138
5.6650,-1.518606664,19.59011963,1076.692306
5.6700,-1.482976953,19.58550941,1076.671148
5.6750,-1.447562169,19.58120199,1076.650346
5.6800,-1.41237098,19.57713,1076.629877
5.6850,-1.377445735,19.57333128,1076.609754
5.6900,-1.342779955,19.56971467,1076.589947
5.6950,-1.308397981,19.56624958,1076.570453
5.7000,-1.274323742,19.56289487,1076.551271
5.7050,-1.240568997,19.55967223,1076.532398
5.7100,-1.207128948,19.55650318,1076.51381
5.7150,-1.174039555,19.55341602,1076.495515
5.7200,-1.141286042,19.55042158,1076.477503
5.7250,-1.108899176,19.54750855,1076.459775
5.7300,-1.076847855,19.54466006,1076.442321
5.7350,-1.045132369,19.54189564,1076.425139
5.7400,-1.013741278,19.53924392,1076.40823
5.7450,-0.9826142599,19.53671711,1076.391591
5.7500,-0.9516770091,19.53429184,1076.375197
5.7550,-0.92082308,19.53205376,1076.359051
5.7600,-0.8900370603,19.53002681,1076.343154
5.7650,-0.8592310709,19.52818099,1076.327484
5.7700,-0.8283655691,19.52657945,1076.31205
5.7750,-0.7973824429,19.5252211,1076.296848
5.7800,-0.7662133309,19.52410868,1076.281866
5.7850,-0.7348549335,19.52326492,1076.267108
5.7900,-0.7032996636,19.5226653,1076.252571
5.7950,-0.6715407613,19.52231285,1076.238259
5.8000,-0.6396346202,19.52213837,1076.224154
5.8050,-0.6075991022,19.52215787,1076.210268
5.8100,-0.5755320631,19.52233146,1076.196609
5.8150,-0.5433337045,19.52260453,1076.183138
5.8200,-0.5111178168,19.52295456,1076.169873
5.8250,-0.4789105388,19.52342081,1076.156825
5.8300,-0.4467081837,19.52397954,1076.14399
5.8350,-0.4145472466,19.52468317,1076.131386
5.8400,-0.382422927,19.52547186,1076.118995
5.8450,-0.3503812927,19.52636795,1076.10683
5.8500,-0.3184137499,19.52738093,1076.09489
5.8550,-0.2865125163,19.52853474,1076.083179
5.8600,-0.2546381844,19.52983672,1076.071691
5.8650,-0.2228293434,19.53126866,1076.060431
5.8700,-0.1910087839,19.53283237,1076.049384
5.8750,-0.1592284913,19.53456226,1076.038571
5.8800,-0.1274227269,19.53644637,1076.027978
5.8850,-0.09561675919,19.53844839,1076.017599
5.8900,-0.06373921767,19.54056591,1076.007424
5.8950,-0.03181785784,19.54281676,1075.997462
5.9000,0.0002076759501,19.54520677,1075.987705
5.9050,0.0323670751,19.54767525,1075.97813
5.9100,0.06461942128,19.55030201,1075.968761
5.9150,0.09695054191,19.55303391,1075.959581
5.9200,0.1293653703,19.55594719,1075.950608
5.9250,0.1619052617,19.55908455,1075.941846
5.9300,0.1945235833,19.56241591,1075.933289
5.9350,0.2271814824,19.56597419,1075.924945
5.9400,0.259853624,19.56976158,1075.916817
5.9450,0.2925462846,19.57374886,1075.90889
5.9500,0.3251795492,19.57790372,1075.901164
5.9550,0.3577472712,19.58220813,1075.893631
5.9600,0.3902203502,19.58661404,1075.886281
5.9650,0.422591241,19.59109892,1075.879103
5.9700,0.4548597807,19.59572816,1075.872115
5.9750,0.4870709149,19.60047792,1075.865303
5.9800,0.5192107973,19.60539236,1075.858679
5.9850,0.5513227341,19.61047573,1075.852234
5.9900,0.5833722671,19.61577284,1075.845987
5.9950,0.6154510726,19.6213322,1075.839934
6.0000,0.6475369102,19.62713503,1075.834077
6.0050,0.6796165864,19.63313647,1075.828405
6.0100,0.7116861074,19.63933026,1075.822918
6.0150,0.7437973814,19.64573225,1075.817615
6.0200,0.7759201264,19.65226068,1075.812482
6.0250,0.8080329907,19.65890687,1075.807521
6.0300,0.8400879481,19.66563359,1075.802729
6.0350,0.8720680032,19.67243687,1075.798108
6.0400,0.9039637153,19.67923711,1075.793638
6.0450,0.9357195011,19.68607755,1075.789336
6.0500,0.9673287799,19.69292539,1075.785199
6.0550,0.9988107188,19.69974051,1075.781211
6.0600,1.030205268,19.70648251,1075.777354
6.0650,1.061540746,19.71313946,1075.773622
6.0700,1.092826205,19.71973009,1075.770022
6.0750,1.124127321,19.72627495,1075.766545
6.0800,1.155419017,19.73278087,1075.763195
6.0850,1.186734548,19.73921129,1075.759958
6.0900,1.21813574,19.74556118,1075.756822
6.0950,1.249660885,19.75182061,1075.753776
6.1000,1.28141657,19.75804354,1075.750824
6.1050,1.313439645,19.76420739,1075.747954
6.1100,1.34589672,19.77031511,1075.745146
6.1150,1.378768005,19.7764305,1075.742422
6.1200,1.412141518,19.78258373,1075.739779
6.1250,1.446052593,19.78877077,1075.737211
6.1300,1.480479546,19.7950029,1075.734724
6.1350,1.51540459,19.80132292,1075.732331
6.1400,1.550855925,19.80769795,1075.730018
6.1450,1.586837067,19.81416988,1075.727799
6.1500,1.623289715,19.8207003,1075.725667
6.1550,1.660130286,19.82729252,1075.723632
6.1600,1.697277248,19.83396849,1075.721705
6.1650,1.73467872,19.84068925,1075.71988
6.1700,1.772262919,19.84746341,1075.718164
6.1750,1.809990734,19.85427617,1075.716553
6.1800,1.847794771,19.86111515,1075.715052
6.1850,1.885646197,19.8680047,1075.713666
6.1900,1.923409505,19.87490066,1075.712392
6.1950,1.961075857,19.88179869,1075.711227
6.2000,1.9985323,19.88868053,1075.710175
6.2050,2.035704513,19.89555217,1075.709236
6.2100,2.072557408,19.90240671,1075.708411
6.2150,2.109097324,19.90923954,1075.707695
6.2200,2.145299193,19.91599832,1075.707072
6.2250,2.181139211,19.92268183,1075.706539
6.2300,2.216614668,19.92926864,1075.70609
6.2350,2.251739778,19.93574336,1075.705716
6.2400,2.286528151,19.94208722,1075.705407
6.2450,2.320992492,19.94826811,1075.705152
6.2500,2.355212156,19.95436802,1075.704969
6.2550,2.389178019,19.96034993,1075.704843
6.2600,2.422941667,19.96624146,1075.704778
6.2650,2.456560124,19.97203523,1075.704767
6.2700,2.489976606,19.97767865,1075.704796
6.2750,2.523223923,19.98316139,1075.704859
6.2800,2.556279433,19.98849799,1075.70496
6.2850,2.589138418,19.99363652,1075.705083
6.2900,2.621800335,19.99856248,1075.705222
6.2950,2.654203227,20.00323846,1075.705366
6.3000,2.686368262,20.00768882,1075.70552
6.3050,2.718266889,20.0119266,1075.705685
6.3100,2.749869322,20.01592618,1075.705854
6.3150,2.78108947,20.01968338,1075.706025
6.3200,2.811875691,20.02321901,1075.706201
6.3250,2.842187249,20.02650882,1075.706375
6.3300,2.872011667,20.02957081,1075.70655
6.3350,2.901272009,20.03240166,1075.706723
6.3400,2.929947919,20.03501592,1075.706894
6.3450,2.957990367,20.03736355,1075.707047
6.3500,2.985380948,20.03948864,1075.70719
6.3550,3.012042242,20.04140654,1075.707328
6.3600,3.037900961,20.04314322,1075.707463
6.3650,3.062907152,20.04467936,1075.707588
6.3700,3.087053495,20.04600123,1075.707694
6.3750,3.110309105,20.04707249,1075.707767
6.3800,3.132661589,20.04788178,1075.707798
6.3850,3.154137261,20.04839604,1075.707774
6.3900,3.174732777,20.04861643,1075.707691
6.3950,3.194408866,20.04850503,1075.707538
6.4000,3.213141836,20.04805308,1075.707306
6.4050,3.230960665,20.04727905,1075.707001
6.4100,3.247820023,20.04617047,1075.706612
6.4150,3.263721,20.04470514,1075.706131
6.4200,3.27863257,20.04286672,1075.705551
6.4250,3.292541496,20.04064476,1075.704866
6.4300,3.305505967,20.0381043,1075.70409
6.4350,3.31750781,20.03524215,1075.703223
6.4400,3.328545471,20.0321316,1075.702281
6.4450,3.338584377,20.02874884,1075.701257
6.4500,3.34765626,20.02519435,1075.700178
6.4550,3.355726941,20.02144864,1075.699037
6.4600,3.36286077,20.01747646,1075.69782
6.4650,3.369020287,20.01334886,1075.696547
6.4700,3.374237871,20.00906692,1075.695216
6.4750,3.378498726,20.00463905,1075.693829
6.4800,3.381815848,20.00010442,1075.692398
6.4850,3.384218992,19.99546127,1075.690919
6.4900,3.385832139,19.99074491,1075.689404
6.4950,3.386651599,19.98587807,1075.687827
6.5000,3.386760123,19.9809066,1075.686202
6.5050,3.386295364,19.97582526,1075.684529
6.5100,3.385281844,19.97061152,1075.682802
6.5150,3.383729039,19.96529415,1075.681029
6.5200,3.381697765,19.95982439,1075.679196
6.5250,3.379216718,19.95418941,1075.677301
6.5300,3.376294343,19.94839863,1075.675348
6.5350,3.372997694,19.94240722,1075.673324
6.5400,3.36934848,19.9361711,1075.671218
6.5450,3.365365544,19.92976099,1075.669052
6.5500,3.361043921,19.92308224,1075.666799
6.5550,3.356425035,19.91616482,1075.664471
6.5600,3.351449842,19.90901417,1075.66207
6.5650,3.346101033,19.90164102,1075.659601
6.5700,3.340411667,19.89407407,1075.657074
6.5750,3.334339544,19.88636358,1075.654503
6.5800,3.327980297,19.87847412,1075.65188
6.5850,3.321281162,19.87045289,1075.649221
6.5900,3.314258383,19.86230822,1075.646528
6.5950,3.306936776,19.85404724,1075.643806
6.6000,3.299290559,19.84567737,1075.641058
6.6050,3.291322294,19.83718272,1075.638281
6.6100,3.283018106,19.82863269,1075.635497
6.6150,3.274443959,19.81999147,1075.632695
6.6200,3.265631077,19.81130239,1075.62989
6.6250,3.256636929,19.80258139,1075.627085
6.6300,3.247472533,19.79380889,1075.624275
6.6350,3.238234855,19.78501425,1075.621471
6.6400,3.228942039,19.77615649,1075.61866
6.6450,3.219619808,19.76727564,1075.615853
6.6500,3.210260711,19.75835938,1075.613048
6.6550,3.200888711,19.74939198,1075.61024
6.6600,3.191564986,19.74040645,1075.60744
6.6650,3.182278386,19.73139257,1075.604645
6.6700,3.173023465,19.72234884,1075.601854
6.6750,3.163787525,19.71326551,1075.599066
6.6800,3.154553178,19.70416329,1075.596289
6.6850,3.145357549,19.695073,1075.593528
6.6900,3.136164796,19.68599081,1075.590785
6.6950,3.126995935,19.67696686,1075.588072
6.7000,3.117806357,19.6679757,1075.585384
6.7050,3.108625661,19.65902102,1075.582719
6.7100,3.099386419,19.65015638,1075.580095
6.7150,3.090107979,19.64138283,1075.577512
6.7200,3.080794654,19.63271925,1075.574976
6.7250,3.071476341,19.62416424,1075.572483
6.7300,3.062112156,19.61571715,1075.570039
6.7350,3.052726472,19.60734787,1075.567629
6.7400,3.043327157,19.59902966,1075.56525
6.7450,3.033918183,19.59074348,1075.562893
6.7500,3.024510844,19.58248107,1075.560559
6.7550,3.015121185,19.57426581,1075.558251
6.7600,3.005744359,19.56614042,1075.555982
6.7650,2.996390688,19.55807048,1075.553744
6.7700,2.987030376,19.55006362,1075.551536
6.7750,2.977658911,19.54215919,1075.549369
6.7800,2.96825597,19.53435363,1075.547242
6.7850,2.958789866,19.52663429,1075.545153
6.7900,2.949214546,19.51898621,1075.543097
6.7950,2.939550375,19.51145562,1075.541088
6.8000,2.929755429,19.50403527,1075.539124
6.8050,2.919751306,19.49674175,1075.537212
6.8100,2.90949061,19.48957183,1075.535352
6.8150,2.899009703,19.4825049,1075.533536
6.8200,2.888186459,19.47556463,1075.531776
6.8250,2.877072061,19.46874166,1075.530067
6.8300,2.865610101,19.46201768,1075.528407
6.8350,2.853809406,19.45541746,1075.526802
6.8400,2.841616075,19.44896076,1075.52526
6.8450,2.829044839,19.44260617,1075.523771
6.8500,2.816051379,19.43637785,1075.522342
6.8550,2.80264778,19.4303152,1075.520986
6.8600,2.788883815,19.42437062,1075.51969
6.8650,2.774723571,19.41858777,1075.518465
6.8700,2.76024039,19.41293694,1075.517307
6.8750,2.745439938,19.40739013,1075.516207
6.8800,2.730295462,19.40197211,1075.515173
6.8850,2.714854923,19.39669928,1075.51421
6.8900,2.699091119,19.39157673,1075.513321
6.8950,2.683002322,19.38657519,1075.512499
6.9000,2.666576166,19.38170476,1075.51175
6.9050,2.64983289,19.37698934,1075.51108
6.9100,2.632808668,19.37235572,1075.510469
6.9150,2.615447719,19.36785081,1075.509935
6.9200,2.597767135,19.36341481,1075.509462
6.9250,2.579745391,19.35906723,1075.509058
6.9300,2.561357354,19.3548088,1075.508726
6.9350,2.542623931,19.35059352,1075.508454
6.9400,2.523470098,19.346463,1075.508256
6.9450,2.50396343,19.34236806,1075.508122
6.9500,2.484111102,19.33833353,1075.508058
6.9550,2.463955058,19.33432578,1075.508053
6.9600,2.443487721,19.33032202,1075.508107
6.9650,2.422790094,19.32629125,1075.508207
6.9700,2.401913308,19.32222476,1075.508351
6.9750,2.380872303,19.31808441,1075.508531
6.9800,2.359803304,19.31384405,1075.508734
6.9850,2.33868035,19.30945097,1075.508951
6.9900,2.317568983,19.30490215,1075.509181
6.9950,2.296547293,19.30012547,1075.5094
7.0000,2.275704947,19.29512299,1075.509608
7.0050,2.255051861,19.28984964,1075.509793
7.0100,2.234659271,19.28428698,1075.509948
7.0150,2.214558407,19.27843766,1075.510073
7.0200,2.194807565,19.27229003,1075.510162
7.0250,2.175380806,19.26583713,1075.510216
7.0300,2.156309283,19.25906975,1075.510233
7.0350,2.137604229,19.25202408,1075.510223
7.0400,2.119188867,19.24473153,1075.510202
7.0450,2.101063471,19.23721644,1075.510176
7.0500,2.083193464,19.22944872,1075.510141
7.0550,2.065539098,19.22146009,1075.51011
7.0600,2.048060414,19.21324028,1075.510083
7.0650,2.030708788,19.20485618,1075.510085
7.0700,2.013430869,19.19631566,1075.510121
7.0750,1.996204701,19.18763524,1075.510199
7.0800,1.978967427,19.17881856,1075.510324
7.0850,1.961719276,19.16990785,1075.51051
7.0900,1.944396084,19.16091037,1075.510765
7.0950,1.9269724,19.15186531,1075.511101
7.1000,1.909382046,19.14276402,1075.511524
7.1050,1.891555195,19.13361764,1075.512043
7.1100,1.873489758,19.12446674,1075.512666
7.1150,1.855143769,19.11531447,1075.513401
7.1200,1.836584905,19.10620425,1075.514254
7.1250,1.817738146,19.0971618,1075.515237
7.1300,1.798623947,19.08818318,1075.516349
7.1350,1.779214179,19.07929374,1075.517598
7.1400,1.759564087,19.07053955,1075.51899
7.1450,1.73959803,19.06192916,1075.520536
7.1500,1.719347569,19.05350238,1075.522243
7.1550,1.698804469,19.04523434,1075.524105
7.1600,1.677927213,19.03719977,1075.526142
7.1650,1.656745285,19.02938498,1075.528353
7.1700,1.63521756,19.02181119,1075.530745
7.1750,1.613320935,19.01447155,1075.533319
7.1800,1.591065819,19.0074095,1075.53609
7.1850,1.568423422,19.00058009,1075.539049
7.1900,1.545435091,18.99397791,1075.542199
7.1950,1.52206354,18.98761945,1075.545547
7.2000,1.49831386,18.98148257,1075.549092
7.2050,1.474218365,18.97554423,1075.552831
7.2100,1.44969803,18.96984605,1075.556781
7.2150,1.424797756,18.96434054,1075.560933
7.2200,1.399518958,18.9590658,1075.565299
7.2250,1.373886665,18.95394274,1075.569867
7.2300,1.347950037,18.94899395,1075.574638
7.2350,1.321691734,18.94419916,1075.579612
7.2400,1.295161957,18.93952834,1075.584787
7.2450,1.268361999,18.93496639,1075.590159
7.2500,1.241337326,18.93047973,1075.595716
7.2550,1.214078398,18.92605915,1075.601464
7.2600,1.186608698,18.9216642,1075.607395
7.2650,1.158936721,18.91728764,1075.61351
7.2700,1.131103597,18.91290572,1075.619804
7.2750,1.103118737,18.90851349,1075.626276
7.2800,1.074994534,18.90412531,1075.632931
7.2850,1.046742501,18.89970583,1075.63976
7.2900,1.01837496,18.89522044,1075.646759
7.2950,0.9898448501,18.89070222,1075.653941
7.3000,0.9611533945,18.8861036,1075.661296
7.3050,0.9322667437,18.88143844,1075.668836
7.3100,0.903225197,18.87669952,1075.676553
7.3150,0.8740398654,18.87186209,1075.684446
7.3200,0.8446541958,18.86690998,1075.692517
7.3250,0.8151166116,18.86186204,1075.70077
7.3300,0.7854011491,18.85669246,1075.709207
7.3350,0.7555048829,18.85142095,1075.71783
7.3400,0.7254621402,18.84602051,1075.726637
7.3450,0.6952660983,18.8405236,1075.735633
7.3500,0.6648929438,18.83495605,1075.744832
7.3550,0.6343520142,18.82932975,1075.754236
7.3600,0.6036446894,18.82369899,1075.763857
7.3650,0.5728009064,18.81806493,1075.773687
7.3700,0.5418346156,18.81241654,1075.783726
7.3750,0.510781658,18.80681716,1075.793988
7.3800,0.4796549119,18.80127729,1075.80447
7.3850,0.4484134835,18.79583782,1075.815178
7.3900,0.4171243794,18.79054657,1075.826115
7.3950,0.3857430495,18.78542642,1075.837286
7.4000,0.3543521213,18.78048308,1075.848679
7.4050,0.3229676859,18.7757543,1075.860306
7.4100,0.2915970304,18.77122394,1075.872155
7.4150,0.2602115763,18.76692251,1075.88424
7.4200,0.2287942067,18.76279262,1075.896547
7.4250,0.1973171719,18.75883632,1075.909082
7.4300,0.1658232933,18.75507709,1075.921838
7.4350,0.1342775392,18.75148725,1075.934817
7.4400,0.1026417528,18.74802892,1075.948015
7.4450,0.07097183538,18.74471023,1075.961421
7.4500,0.03927275698,18.74152049,1075.975036
7.4550,0.007564854536,18.73848163,1075.988862
7.4600,-0.02413656076,18.73556003,1076.002892
7.4650,-0.05580321448,18.73274513,1076.017115
7.4700,-0.0874301577,18.73005523,1076.031532
7.4750,-0.118972594,18.72749311,1076.046138
7.4800,-0.1504305874,18.72500506,1076.060924
7.4850,-0.1817636089,18.7226209,1076.075893
7.4900,-0.2130181378,18.72030042,1076.091037
7.4950,-0.2440800355,18.71808235,1076.106349
7.5000,-0.2749844734,18.71596501,1076.121831
7.5050,-0.3056763699,18.71392407,1076.137474
7.5100,-0.3361266165,18.71193329,1076.153273
7.5150,-0.366293802,18.71004577,1076.169229
7.5200,-0.3961768504,18.70821393,1076.185333
7.5250,-0.4257332504,18.70647576,1076.201581
7.5300,-0.4549880251,18.70481474,1076.217984
7.5350,-0.4839180596,18.70323312,1076.234541
7.5400,-0.5124433846,18.70176567,1076.251241
7.5450,-0.5406266652,18.70043517,1076.268104
7.5500,-0.5684233384,18.69922411,1076.285113
7.5550,-0.5958357863,18.69817993,1076.302282
7.5600,-0.6228060152,18.69732019,1076.319598
7.5650,-0.6493097358,18.69665724,1076.337059
7.5700,-0.6753662762,18.69617494,1076.354675
7.5750,-0.7009541224,18.69590131,1076.372433
7.5800,-0.7260875752,18.69581849,1076.390337
7.5850,-0.7507608154,18.69593585,1076.408382
7.5900,-0.7749797592,18.69628717,1076.426584
7.5950,-0.7987125471,18.69685745,1076.444935
7.6000,-0.8219866277,18.69766036,1076.46344
7.6050,-0.8447258898,18.69866092,1076.482086
7.6100,-0.8669455924,18.69989221,1076.500889
7.6150,-0.8887148723,18.70131152,1076.51985
7.6200,-0.9099733666,18.70294432,1076.538968
7.6250,-0.9307745985,18.70481447,1076.558259
7.6300,-0.9510989365,18.7069485,1076.577708
7.6350,-0.9709548821,18.70930626,1076.59733
7.6400,-0.9903627495,18.71197287,1076.617134
7.6450,-1.009352785,18.71495101,1076.637127
7.6500,-1.027912741,18.71824379,1076.657306
7.6550,-1.046032245,18.72192426,1076.677691
7.6600,-1.063730823,18.7259967,1076.698285
7.6650,-1.080997687,18.73050658,1076.719091
7.6700,-1.097853028,18.73548509,1076.740115
7.6750,-1.114373482,18.74094871,1076.761372
7.6800,-1.130579155,18.74692555,1076.782866
7.6850,-1.146489861,18.75338976,1076.804609
7.6900,-1.162171931,18.76037929,1076.826612
7.6950,-1.177629686,18.76786464,1076.848878
7.7000,-1.19296198,18.77581261,1076.87142
7.7050,-1.208223469,18.78422986,1076.894239
7.7100,-1.223492028,18.7931004,1076.917362
7.7150,-1.238790857,18.80239434,1076.94078
7.7200,-1.254201925,18.81207831,1076.964511
7.7250,-1.269772459,18.82213398,1076.988553
7.7300,-1.285568648,18.83248858,1077.012911
7.7350,-1.301611341,18.84312333,1077.037605
7.7400,-1.31795042,18.85399859,1077.062625
7.7450,-1.33457806,18.86506349,1077.08797
7.7500,-1.351564937,18.87627539,1077.11365
7.7550,-1.368907286,18.88759883,1077.13966
7.7600,-1.38665613,18.89902326,1077.166006
7.7650,-1.404820444,18.91048838,1077.192686
7.7700,-1.423391487,18.92194858,1077.219695
7.7750,-1.44238014,18.93341841,1077.247037
7.7800,-1.461793504,18.94488425,1077.274708
7.7850,-1.481619661,18.95633248,1077.302708
7.7900,-1.501771341,18.96778277,1077.331034
7.7950,-1.522297656,18.97918932,1077.359678
7.8000,-1.543091886,18.99054289,1077.388636
7.8050,-1.564193328,19.00188955,1077.417914
7.8100,-1.585546903,19.01322181,1077.44751
7.8150,-1.607117154,19.02453503,1077.47741
7.8200,-1.628882959,19.03582638,1077.507616
7.8250,-1.650784487,19.04712601,1077.538116
7.8300,-1.672815201,19.05841955,1077.568899
7.8350,-1.694926834,19.0696863,1077.599964
7.8400,-1.717181103,19.08088258,1077.631309
7.8450,-1.739502887,19.09203995,1077.662919
7.8500,-1.761931494,19.10313916,1077.694802
7.8550,-1.784452222,19.11412238,1077.726939
7.8600,-1.807070622,19.12497318,1077.759322
7.8650,-1.829844204,19.1357158,1077.791962
7.8700,-1.852741802,19.14635921,1077.824843
7.8750,-1.875721519,19.15687938,1077.85797
7.8800,-1.898812763,19.16723651,1077.891327
7.8850,-1.921958613,19.17747835,1077.92492
7.8900,-1.945177941,19.18757812,1077.958736
7.8950,-1.96841446,19.19753969,1077.992757
7.9000,-1.991659038,19.20738994,1078.026977
7.9050,-2.014936862,19.21717051,1078.0614
7.9100,-2.038248662,19.22686559,1078.096027
7.9150,-2.06153396,19.23650514,1078.130838
7.9200,-2.084821608,19.24610326,1078.165843
7.9250,-2.108059538,19.25566542,1078.201026
7.9300,-2.13122407,19.26520582,1078.236388
7.9350,-2.154312144,19.27474535,1078.271922
7.9400,-2.177261921,19.28425772,1078.307609
7.9450,-2.200066583,19.29375739,1078.343449
7.9500,-2.222715156,19.3032793,1078.379444
7.9550,-2.245191816,19.31276198,1078.415563
7.9600,-2.267531885,19.32221289,1078.451809
7.9650,-2.289748372,19.33159983,1078.488171
7.9700,-2.311865627,19.34094264,1078.524654
7.9750,-2.333869511,19.35023406,1078.56124
7.9800,-2.355762186,19.35946597,1078.597932
7.9850,-2.377582215,19.36864851,1078.634718
7.9900,-2.399324073,19.37775037,1078.67159
7.9950,-2.421052921,19.38674446,1078.708539
8.0000,-2.44273845,19.39567218,1078.74557
8.0050,-2.464361795,19.40450886,1078.78266
8.0100,-2.48590953,19.41325702,1078.8198
8.0150,-2.50739309,19.42187258,1078.856978
8.0200,-2.528751429,19.43039871,1078.894183
8.0250,-2.549956959,19.43883059,1078.931406
8.0300,-2.57101356,19.4471393,1078.968631
8.0350,-2.591938651,19.45536543,1079.005857
8.0400,-2.612712192,19.46349954,1079.043091
8.0450,-2.633409082,19.47153949,1079.080321
8.0500,-2.653949297,19.47951813,1079.117547
8.0550,-2.674330335,19.48741603,1079.154751
8.0600,-2.694488342,19.49525671,1079.191938
8.0650,-2.714450075,19.50301521,1079.229108
8.0700,-2.734207092,19.5107191,1079.26625
8.0750,-2.753734192,19.51830264,1079.303351
8.0800,-2.773030163,19.52574583,1079.340397
8.0850,-2.792094658,19.53304716,1079.377392
8.0900,-2.810975132,19.54019715,1079.414343
8.0950,-2.82966269,19.54719525,1079.451258
8.1000,-2.848166534,19.55403752,1079.48811
8.1050,-2.866492768,19.56070708,1079.524901
8.1100,-2.884601248,19.5671996,1079.561608
8.1150,-2.902568036,19.57353404,1079.598263
8.1200,-2.920348694,19.5797253,1079.634853
8.1250,-2.937989217,19.58571001,1079.671386
8.1300,-2.955477211,19.59149626,1079.707852
8.1350,-2.972835833,19.59713475,1079.74426
8.1400,-2.990034732,19.60260486,1079.780598
8.1450,-3.007073852,19.60791491,1079.816879
8.1500,-3.023941152,19.61309608,1079.853095
8.1550,-3.040591637,19.61819291,1079.889246
8.1600,-3.057044484,19.62316813,1079.925335
8.1650,-3.073248158,19.62801277,1079.961346
8.1700,-3.089197812,19.63278411,1079.997298
8.1750,-3.104877074,19.6375049,1080.033182
8.1800,-3.120278001,19.64217427,1080.068998
8.1850,-3.135430216,19.64674576,1080.104732
8.1900,-3.150276688,19.65123004,1080.140362
8.1950,-3.164903044,19.65560467,1080.175904
8.2000,-3.179308513,19.65984437,1080.211364
8.2050,-3.193534742,19.66389817,1080.246727
8.2100,-3.207572144,19.66777269,1080.281971
8.2150,-3.221512407,19.67144486,1080.317117
8.2200,-3.235376606,19.67490245,1080.352161
8.2250,-3.249176423,19.67809992,1080.387101
8.2300,-3.262926655,19.68106764,1080.421942
8.2350,-3.276639259,19.68382172,1080.456688
8.2400,-3.290377855,19.68641274,1080.491355
8.2450,-3.304093426,19.68886669,1080.525945
8.2500,-3.317810639,19.69123017,1080.560467
8.2550,-3.331509763,19.69351423,1080.594917
8.2600,-3.345163019,19.69572361,1080.62928
8.2650,-3.358780723,19.69788219,1080.663574
8.2700,-3.372342958,19.69999242,1080.697786
8.2750,-3.385841948,19.70205649,1080.731914
8.2800,-3.399315461,19.70411012,1080.765973
8.2850,-3.412716731,19.70620331,1080.799956
8.2900,-3.426040884,19.70833526,1080.833882
8.2950,-3.439217392,19.71052848,1080.867726
8.3000,-3.452253044,19.71278307,1080.901499
8.3050,-3.465120126,19.71510803,1080.935191
8.3100,-3.477753716,19.7175086,1080.968782
8.3150,-3.490226775,19.71995216,1081.002279
8.3200,-3.502578583,19.72243816,1081.035685
8.3250,-3.5148597,19.72494661,1081.069024
8.3300,-3.527068144,19.72751368,1081.102308
8.3350,-3.539228132,19.73012264,1081.135522
8.3400,-3.551321291,19.73276803,1081.168656
8.3450,-3.563355248,19.73549005,1081.201736
8.3500,-3.575359883,19.7382869,1081.234761
8.3550,-3.587362935,19.74118461,1081.267755
8.3600,-3.599346021,19.74416876,1081.300689
8.3650,-3.611322165,19.74731325,1081.33358
8.3700,-3.62324385,19.75066574,1081.366442
8.3750,-3.635078224,19.75427507,1081.399289
8.3800,-3.646784601,19.7581672,1081.432119
8.3850,-3.658380901,19.76235482,1081.46493
8.3900,-3.669785124,19.76682706,1081.497701
8.3950,-3.680999872,19.77159921,1081.530437
8.4000,-3.692011326,19.77669754,1081.563155
8.4050,-3.702824567,19.78208173,1081.595844
8.4100,-3.713438216,19.78771705,1081.628504
8.4150,-3.723800126,19.79353083,1081.661086
8.4200,-3.733992859,19.79949825,1081.693614
8.4250,-3.744034214,19.8056036,1081.726092
8.4300,-3.753939866,19.81181181,1081.758527
8.4350,-3.763720816,19.81805926,1081.790889
8.4400,-3.773369277,19.82436606,1081.823194
8.4450,-3.782910793,19.83071753,1081.855443
8.4500,-3.792328964,19.83707271,1081.887645
8.4550,-3.80164291,19.84337765,1081.919781
8.4600,-3.810798005,19.84969035,1081.951851
8.4650,-3.819806567,19.8559921,1081.983854
8.4700,-3.828729297,19.86218665,1082.01577
8.4750,-3.83761649,19.86821985,1082.047603
8.4800,-3.846465177,19.87410001,1082.079361
8.4850,-3.855329741,19.87980334,1082.111067
8.4900,-3.864262524,19.88526741,1082.142726
8.4950,-3.873257359,19.89051743,1082.17434
8.5000,-3.882355707,19.89556979,1082.20592
8.5050,-3.891505547,19.90044982,1082.237453
8.5100,-3.900739793,19.90516313,1082.268976
8.5150,-3.909977342,19.90973591,1082.300455
8.5200,-3.919159616,19.91419573,1082.331885
8.5250,-3.928319733,19.91857636,1082.363276
8.5300,-3.937489937,19.92282615,1082.39463
8.5350,-3.946609499,19.92694982,1082.425929
8.5400,-3.955686121,19.93090206,1082.457162
8.5450,-3.964757557,19.93463777,1082.48832
8.5500,-3.973834095,19.93814721,1082.519397
8.5550,-3.98296937,19.94142529,1082.550412
8.5600,-3.992133899,19.94447515,1082.581372
8.5650,-4.001317854,19.94732483,1082.612267
8.5700,-4.010553001,19.94999053,1082.643117
8.5750,-4.019808577,19.95243256,1082.673894
8.5800,-4.029061106,19.9546854,1082.704588
8.5850,-4.038304356,19.95668984,1082.735189
8.5900,-4.047548143,19.95845309,1082.765685
8.5950,-4.056801013,19.95994426,1082.796069
8.6000,-4.066112861,19.96117363,1082.826338
8.6050,-4.075484189,19.96213402,1082.856488
8.6100,-4.085020657,19.96280795,1082.88654
8.6150,-4.094566271,19.96326703,1082.916472
8.6200,-4.104130837,19.96349315,1082.946278
8.6250,-4.113743128,19.96348424,1082.975939
8.6300,-4.123396856,19.96327438,1083.005471
8.6350,-4.133096192,19.96284781,1083.034861
8.6400,-4.142860144,19.96229602,1083.064146
8.6450,-4.152645893,19.96159554,1083.093285
8.6500,-4.162428689,19.9608189,1083.122284
8.6550,-4.172215749,19.95997312,1083.151138
8.6600,-4.182004819,19.95911724,1083.179872
8.6650,-4.191700681,19.95825456,1083.208435
8.6700,-4.201341269,19.95738668,1083.236836
8.6750,-4.210934179,19.95655488,1083.265083
8.6800,-4.220468881,19.95582171,1083.293187
8.6850,-4.229860585,19.95515231,1083.321103
8.6900,-4.239124388,19.95459654,1083.348853
8.6950,-4.248211135,19.95414711,1083.37639
8.7000,-4.257116385,19.95376378,1083.403716
8.7050,-4.265802867,19.95346294,1083.430813
8.7100,-4.274271091,19.9532898,1083.457693
8.7150,-4.282554077,19.95320371,1083.484353
8.7200,-4.290578167,19.9532092,1083.510766
8.7250,-4.298363888,19.95329488,1083.536924
8.7300,-4.305869036,19.95346726,1083.562814
8.7350,-4.313123181,19.95371978,1083.588442
8.7400,-4.320100325,19.95405101,1083.613797
8.7450,-4.326772366,19.95438908,1083.638828
8.7500,-4.333225667,19.95466604,1083.663547
8.7550,-4.339465167,19.95490285,1083.68796
8.7600,-4.345580857,19.95501368,1083.712091
8.7650,-4.351633048,19.95496915,1083.735954
8.7700,-4.357564935,19.95477733,1083.759532
8.7750,-4.363392427,19.95447418,1083.782859
8.7800,-4.369095716,19.95406511,1083.805909
8.7850,-4.374648328,19.95362076,1083.828705
8.7900,-4.380029281,19.95317614,1083.851244
8.7950,-4.385211949,19.952704,1083.873517
8.8000,-4.39012365,19.95219942,1083.895492
8.8050,-4.394807608,19.95166636,1083.917196
8.8100,-4.399248019,19.95104944,1083.938602
8.8150,-4.403406887,19.95039422,1083.95971
8.8200,-4.407344993,19.9496636,1083.980525
8.8250,-4.411034716,19.94885676,1084.001042
8.8300,-4.414442665,19.94799362,1084.021256
8.8350,-4.417593442,19.94708259,1084.041167
8.8400,-4.420483936,19.94612059,1084.06077
8.8450,-4.42312365,19.9451109,1084.080076
8.8500,-4.425514114,19.94408242,1084.099075
8.8550,-4.427648725,19.94302772,1084.117791
8.8600,-4.42954592,19.94198582,1084.136224
8.8650,-4.431244721,19.94094023,1084.154387
8.8700,-4.432761467,19.93987717,1084.172289
8.8750,-4.434145056,19.93880281,1084.189951
8.8800,-4.435390679,19.93770739,1084.207374
8.8850,-4.436541183,19.93660581,1084.224583
8.8900,-4.437622342,19.9355381,1084.241602
8.8950,-4.438653169,19.93449291,1084.258444
8.9000,-4.439602324,19.9334861,1084.27511
8.9050,-4.440443825,19.93251879,1084.291602
8.9100,-4.441173259,19.93162695,1084.307938
8.9150,-4.441880684,19.93080215,1084.324144
8.9200,-4.44256639,19.93004323,1084.340222
8.9250,-4.443176085,19.9293427,1084.356176
8.9300,-4.443686265,19.92874452,1084.372001
8.9350,-4.444086543,19.92828621,1084.387727
8.9400,-4.444334463,19.92792141,1084.403325
8.9450,-4.444412245,19.92771251,1084.418843
8.9500,-4.444299576,19.92760374,1084.434242
8.9550,-4.443928835,19.92762668,1084.449529
8.9600,-4.443280832,19.92776809,1084.464683
8.9650,-4.442363068,19.92802808,1084.479745
8.9700,-4.441187309,19.92835537,1084.494693
8.9750,-4.439744513,19.92870649,1084.509511
8.9800,-4.438017585,19.92903576,1084.524202
8.9850,-4.436034494,19.92938028,1084.538788
8.9900,-4.433778703,19.9297211,1084.553252
8.9950,-4.431241191,19.93002175,1084.567597
9.0000,-4.428407839,19.9302593,1084.581797
9.0050,-4.425265348,19.93041653,1084.595853
9.0100,-4.42181035,19.9304499,1084.609758
9.0150,-4.418028554,19.93033589,1084.623499
9.0200,-4.413929965,19.93004834,1084.637075
9.0250,-4.409414043,19.92958448,1084.65045
9.0300,-4.404502133,19.92887137,1084.663619
9.0350,-4.399194546,19.9278806,1084.67656
9.0400,-4.39350436,19.92656924,1084.689283
9.0450,-4.38750984,19.92489062,1084.701802
9.0500,-4.381173947,19.92290981,1084.714132
9.0550,-4.374558989,19.92054212,1084.72627
9.0600,-4.367661511,19.91781086,1084.738214
9.0650,-4.360472823,19.91474979,1084.749983
9.0700,-4.353024744,19.91134537,1084.761579
9.0750,-4.345340512,19.90759272,1084.773003
9.0800,-4.337489442,19.90349361,1084.784287
9.0850,-4.32951587,19.8990172,1084.795426
9.0900,-4.321440648,19.89420353,1084.806443
9.0950,-4.313346026,19.88909517,1084.817389
9.1000,-4.305308019,19.88371514,1084.828304
9.1050,-4.297371494,19.87809024,1084.839209
9.1100,-4.289590211,19.87229551,1084.850121
9.1150,-4.282011145,19.86634046,1084.861068
9.1200,-4.27463611,19.86033667,1084.872078
9.1250,-4.267527462,19.8543298,1084.883175
9.1300,-4.260717877,19.84833979,1084.894358
9.1350,-4.254206898,19.8424716,1084.905663
9.1400,-4.247986387,19.83678036,1084.917084
9.1450,-4.242056679,19.83132225,1084.928625
9.1500,-4.236423779,19.82608706,1084.94028
9.1550,-4.231094173,19.82115197,1084.952036
9.1600,-4.226097071,19.81653847,1084.963925
9.1650,-4.2214229,19.81224832,1084.975913
9.1700,-4.21701552,19.80831156,1084.987967
9.1750,-4.212863128,19.80474521,1085.00009
9.1800,-4.208943986,19.8015136,1085.012248
9.1850,-4.205241978,19.7986396,1085.024429
9.1900,-4.201790865,19.79607361,1085.036622
9.1950,-4.19852318,19.7938378,1085.0488
9.2000,-4.195477836,19.79194627,1085.060977
9.2050,-4.192661373,19.79036805,1085.073151
9.2100,-4.190057709,19.78906209,1085.085278
9.2150,-4.187634086,19.78800717,1085.097345
9.2200,-4.185386771,19.7872242,1085.109369
9.2250,-4.183315479,19.78671586,1085.12134
9.2300,-4.181510357,19.78637167,1085.133266
9.2350,-4.17996808,19.78616585,1085.145139
9.2400,-4.178744004,19.78605647,1085.156963
9.2450,-4.177854211,19.78597536,1085.168722
9.2500,-4.177310175,19.78592148,1085.180442
9.2550,-4.177107995,19.7858811,1085.192105
9.2600,-4.177242648,19.78583012,1085.20372
9.2650,-4.177692458,19.78573209,1085.215254
9.2700,-4.178396417,19.7856015,1085.226702
9.2750,-4.179350891,19.7854258,1085.238065
9.2800,-4.180576486,19.7851774,1085.249331
9.2850,-4.182037537,19.78482956,1085.260498
9.2900,-4.183732358,19.78434654,1085.271564
9.2950,-4.185651411,19.78377131,1085.282547
9.3000,-4.18777979,19.78311459,1085.293462
9.3050,-4.190067042,19.7823905,1085.304291
9.3100,-4.192512394,19.7816445,1085.315063
9.3150,-4.19505631,19.78090205,1085.325775
9.3200,-4.197680986,19.78019106,1085.336418
9.3250,-4.20044102,19.77955891,1085.347051
9.3300,-4.203336657,19.77904445,1085.357696
9.3350,-4.206354021,19.77868412,1085.368379
9.3400,-4.209522325,19.77849672,1085.379119
9.3450,-4.212777921,19.77856055,1085.389944
9.3500,-4.216150135,19.77887629,1085.400867
9.3550,-4.219593179,19.77954229,1085.411921
9.3600,-4.223098939,19.78058963,1085.423132
9.3650,-4.226655583,19.78202715,1085.434496
9.3700,-4.230312843,19.78394192,1085.446104
9.3750,-4.234081144,19.78629999,1085.457948
9.3800,-4.237996089,19.78912806,1085.470082
9.3850,-4.242014707,19.79242086,1085.482493
9.3900,-4.246208317,19.79619294,1085.495243
9.3950,-4.250513201,19.80040887,1085.508269
9.4000,-4.254918892,19.80504844,1085.521565
9.4050,-4.259349391,19.81014699,1085.535103
9.4100,-4.26382955,19.81564688,1085.548885
9.4150,-4.268369484,19.82154325,1085.562907
9.4200,-4.272944343,19.82777484,1085.577132
9.4250,-4.277494874,19.83430356,1085.591509
9.4300,-4.282021154,19.84115152,1085.606047
9.4350,-4.286533531,19.84820072,1085.620701
9.4400,-4.290997923,19.85544701,1085.635446
9.4450,-4.295392366,19.86287598,1085.650252
9.4500,-4.299705636,19.87047092,1085.665098
9.4550,-4.303937086,19.87815402,1085.679943
9.4600,-4.308061983,19.88589197,1085.694738
9.4650,-4.312095975,19.89363663,1085.709484
9.4700,-4.316061946,19.90133499,1085.724152
9.4750,-4.319952699,19.90894392,1085.738683
9.4800,-4.323819882,19.9164377,1085.753087
9.4850,-4.327632616,19.92378212,1085.767307
9.4900,-4.3313369,19.93092456,1085.781287
9.4950,-4.334989578,19.93785601,1085.795034
9.5000,-4.338587493,19.94451442,1085.808509
9.5050,-4.342132639,19.95088452,1085.821691
9.5100,-4.345624943,19.95692593,1085.83455
9.5150,-4.349094637,19.96263905,1085.84709
9.5200,-4.352551985,19.96800455,1085.859284
9.5250,-4.355965431,19.97298841,1085.871089
9.5300,-4.359309336,19.97762715,1085.88249
9.5350,-4.362542082,19.98189105,1085.893438
9.5400,-4.365651416,19.98582551,1085.903928
9.5450,-4.368645678,19.98943515,1085.913951
9.5500,-4.371511472,19.99271903,1085.923467
9.5550,-4.374266425,19.99571506,1085.932507
9.5600,-4.376897464,19.99839148,1085.941025
9.5650,-4.379442772,20.00081632,1085.949068
9.5700,-4.381893921,20.0029658,1085.956598
9.5750,-4.384226968,20.00489592,1085.963616
9.5800,-4.386380111,20.0066372,1085.970085
9.5850,-4.388371754,20.0082023,1085.976015
9.5900,-4.3902132,20.00964327,1085.981421
9.5950,-4.391857717,20.01094861,1085.986264
9.6000,-4.393322833,20.01216853,1085.990564
9.6050,-4.394623305,20.01329608,1085.994324
9.6100,-4.395732047,20.01432741,1085.99751
9.6150,-4.396674453,20.01528343,1086.000145
9.6200,-4.397461799,20.01616059,1086.002242
9.6250,-4.3980867,20.01695164,1086.003796
9.6300,-4.398516935,20.01766698,1086.004781
9.6350,-4.398754886,20.01834932,1086.005221
9.6400,-4.398787807,20.01902193,1086.005124
9.6450,-4.398625279,20.01966556,1086.00449
9.6500,-4.398269353,20.0202939,1086.003324
9.6550,-4.397755722,20.0209021,1086.001654
9.6600,-4.397096918,20.02150637,1085.999508
9.6650,-4.396323311,20.02208067,1085.996891
9.6700,-4.395430557,20.02262,1085.993806
9.6750,-4.394436348,20.02316568,1085.990293
9.6800,-4.393303128,20.02370177,1085.986326
9.6850,-4.392079337,20.02426076,1085.981957
9.6900,-4.390755733,20.02482257,1085.977166
9.6950,-4.389383197,20.02536805,1085.971999
9.7000,-4.387948535,20.0259521,1085.966484
9.7050,-4.386534874,20.02647855,1085.960629
9.7100,-4.38511262,20.02701979,1085.954461
9.7150,-4.383677252,20.02754491,1085.947976
9.7200,-4.382281961,20.02803373,1085.941204
9.7250,-4.38093363,20.02850425,1085.934162
9.7300,-4.379673267,20.02892097,1085.92687
9.7350,-4.378472855,20.02934178,1085.919339
9.7400,-4.377348527,20.0297422,1085.911582
9.7450,-4.376331328,20.03010146,1085.903618
9.7500,-4.37539286,20.03043368,1085.895448
9.7550,-4.374568265,20.0307535,1085.887122
9.7600,-4.373868745,20.03103485,1085.878622
9.7650,-4.373332597,20.0312913,1085.869986
9.7700,-4.372950392,20.03155878,1085.861228
9.7750,-4.372742737,20.03185304,1085.852391
9.7800,-4.372724945,20.03217886,1085.843493
9.7850,-4.372930499,20.03253447,1085.834574
9.7900,-4.373384465,20.03292795,1085.825645
9.7950,-4.374058187,20.03338634,1085.816726
9.8000,-4.374928741,20.03389679,1085.807789
9.8050,-4.37601534,20.03448275,1085.798859
9.8100,-4.377345227,20.03512163,1085.789951
9.8150,-4.378917034,20.03584601,1085.781086
9.8200,-4.38071441,20.03661744,1085.772245
9.8250,-4.382782054,20.0374606,1085.763456
9.8300,-4.385081929,20.03834509,1085.754682
9.8350,-4.387631159,20.03927268,1085.745931
9.8400,-4.390413871,20.0402394,1085.737198
9.8450,-4.393389929,20.04121327,1085.728436
9.8500,-4.396584592,20.0422096,1085.71968
9.8550,-4.399989607,20.04318981,1085.710893
9.8600,-4.403566952,20.04420883,1085.70208
9.8650,-4.407299159,20.04523265,1085.693206
9.8700,-4.411175797,20.04630325,1085.684296
9.8750,-4.415171804,20.04738882,1085.6753
9.8800,-4.419336622,20.04847419,1085.66626
9.8850,-4.423608043,20.04959542,1085.657132
9.8900,-4.428002913,20.05068359,1085.647891
9.8950,-4.432525739,20.05176118,1085.638545
9.9000,-4.437164902,20.05280532,1085.629076
9.9050,-4.44193404,20.05378727,1085.61948
9.9100,-4.44680858,20.05470844,1085.609744
9.9150,-4.451777098,20.05557802,1085.599859
9.9200,-4.456876558,20.05640718,1085.589858
9.9250,-4.462044069,20.05718589,1085.579695
9.9300,-4.467297646,20.05790793,1085.56939
9.9350,-4.47258616,20.05856318,1085.558919
9.9400,-4.477881359,20.05913873,1085.548259
9.9450,-4.483209308,20.05964208,1085.53742
9.9500,-4.488559864,20.06006807,1085.526411
9.9550,-4.493916609,20.06041099,1085.51522
9.9600,-4.499302361,20.06065034,1085.50385
9.9650,-4.504704046,20.06083282,1085.492321
9.9700,-4.510104875,20.06090232,1085.480595
9.9750,-4.515480638,20.06085245,1085.468661
9.9800,-4.520896534,20.06064667,1085.456532
9.9850,-4.526325495,20.06027902,1085.444195
9.9900,-4.531747786,20.05975691,1085.431653
9.9950,-4.537132396,20.05913169,1085.418893
10.0000,-4.542476523,20.05836255,1085.405916
10.0050,-4.547789502,20.05747636,1085.39274
10.0100,-4.553048602,20.05640581,1085.379338
10.0150,-4.558271538,20.05518822,1085.365735
10.0200,-4.563413004,20.05383526,1085.351896
10.0250,-4.568538011,20.05232435,1085.33786
10.0300,-4.573613218,20.05067523,1085.323617
10.0350,-4.578683059,20.04883877,1085.309163
10.0400,-4.583802714,20.04684642,1085.294535
10.0450,-4.58894988,20.04469516,1085.279719
10.0500,-4.594149524,20.04236669,1085.264708
10.0550,-4.599391623,20.03986143,1085.249501
10.0600,-4.604658506,20.03720072,1085.23411
10.0650,-4.609926384,20.03441532,1085.21853
10.0700,-4.615223395,20.03150287,1085.202788
10.0750,-4.620543958,20.02847518,1085.186877
10.0800,-4.625828939,20.02535653,1085.170782
10.0850,-4.631063792,20.02217324,1085.154491
10.0900,-4.636223439,20.01895511,1085.138012
10.0950,-4.641359,20.0156705,1085.121349
10.1000,-4.64647672,20.01235313,1085.104529
10.1050,-4.651587175,20.00904695,1085.087567
10.1100,-4.656649392,20.00576247,1085.070442
10.1150,-4.661628299,20.00249378,1085.053138
10.1200,-4.666526347,19.99922983,1085.035643
10.1250,-4.671339254,19.99597243,1085.017956
10.1300,-4.676046521,19.99276204,1085.000082
10.1350,-4.680639525,19.9895887,1084.982014
10.1400,-4.685115359,19.98644098,1084.963736
10.1450,-4.689507674,19.98330975,1084.945267
10.1500,-4.693786976,19.98018667,1084.926598
10.1550,-4.697917086,19.97706249,1084.907697
10.1600,-4.701911612,19.97393467,1084.888572
10.1650,-4.705739219,19.97080252,1084.869214
10.1700,-4.709447704,19.96767027,1084.849641
10.1750,-4.713028531,19.96454713,1084.829854
10.1800,-4.716479753,19.96145233,1084.809853
10.1850,-4.719838135,19.9583636,1084.789659
10.1900,-4.723060272,19.9553213,1084.769262
10.1950,-4.726170074,19.95232183,1084.748663
10.2000,-4.729166155,19.94933882,1084.727866
10.2050,-4.732057861,19.94641135,1084.706869
10.2100,-4.734866296,19.94351689,1084.685682
10.2150,-4.737586955,19.9406599,1084.66431
10.2200,-4.740183389,19.9378518,1084.642727
10.2250,-4.74269249,19.93508518,1084.620965
10.2300,-4.745112713,19.93242502,1084.599018
10.2350,-4.747483195,19.92981718,1084.576885
10.2400,-4.749850238,19.92730938,1084.554609
10.2450,-4.752195184,19.92490398,1084.532186
10.2500,-4.754470586,19.92261068,1084.509593
10.2550,-4.756644805,19.9204193,1084.486815
10.2600,-4.758676269,19.91832114,1084.463814
10.2650,-4.76057043,19.9163303,1084.440597
10.2700,-4.762372287,19.91442208,1084.417178
10.2750,-4.764078226,19.91257402,1084.393543
10.2800,-4.76566397,19.91084755,1084.369696
10.2850,-4.767127617,19.90918631,1084.345621
10.2900,-4.768499118,19.90757614,1084.321319
10.2950,-4.769793445,19.90598158,1084.296789
10.3000,-4.771032663,19.90438875,1084.272029
10.3050,-4.772184056,19.9028331,1084.247046
10.3100,-4.773318745,19.901348,1084.221863
10.3150,-4.774457793,19.89989452,1084.196476
10.3200,-4.775622242,19.89850467,1084.170912
10.3250,-4.776755965,19.8972142,1084.145155
10.3300,-4.777857764,19.89598321,1084.119179
10.3350,-4.778963882,19.89483701,1084.093018
10.3400,-4.780025437,19.89373284,1084.066627
10.3450,-4.7810817,19.8926532,1084.040021
10.3500,-4.782144677,19.89167391,1084.013237
10.3550,-4.78322405,19.89074269,1083.986261
10.3600,-4.784328893,19.88988474,1083.959106
10.3650,-4.785434677,19.88910176,1083.93176
10.3700,-4.786569372,19.88837605,1083.904232
10.3750,-4.787723077,19.88772829,1083.876517
10.3800,-4.788908758,19.88717777,1083.848648
10.3850,-4.790114723,19.8867223,1083.820622
10.3900,-4.791367316,19.88636659,1083.792454
10.3950,-4.792617478,19.88613345,1083.764133
10.4000,-4.793914546,19.88597912,1083.735669
10.4050,-4.7952516,19.88588374,1083.70707
10.4100,-4.796631795,19.88589688,1083.678372
10.4150,-4.798067855,19.88598195,1083.649552
10.4200,-4.799561777,19.88618418,1083.620651
10.4250,-4.801089805,19.88648624,1083.591665
10.4300,-4.802684448,19.88691905,1083.562639
10.4350,-4.804371428,19.88746306,1083.533579
10.4400,-4.806126857,19.88814056,1083.504499
10.4450,-4.807892114,19.88903079,1083.475405
10.4500,-4.809646496,19.8901216,1083.446275
10.4550,-4.811426623,19.89143809,1083.417161
10.4600,-4.813233572,19.89296911,1083.388041
10.4650,-4.815024771,19.8947195,1083.358894
10.4700,-4.816771867,19.89669803,1083.329719
10.4750,-4.81848379,19.89887202,1083.300512
10.4800,-4.820101033,19.90122586,1083.271239
10.4850,-4.821621775,19.90376771,1083.241903
10.4900,-4.823058385,19.90646289,1083.212519
10.4950,-4.824358057,19.90928457,1083.183067
10.5000,-4.825478792,19.91226682,1083.153533
10.5050,-4.826374312,19.91541455,1083.123901
10.5100,-4.827060077,19.91873972,1083.094162
10.5150,-4.827558999,19.92223261,1083.064315
10.5200,-4.827816382,19.92580829,1083.034319
10.5250,-4.827848744,19.9294694,1083.004164
10.5300,-4.827614801,19.93321756,1082.973844
10.5350,-4.827110022,19.93707203,1082.943352
10.5400,-4.82629769,19.94096974,1082.912644
10.5450,-4.825184263,19.94490845,1082.881732
10.5500,-4.823811647,19.94886123,1082.850592
10.5550,-4.822224884,19.95278515,1082.819223
10.5600,-4.820440154,19.95668137,1082.787643
10.5650,-4.818457769,19.96050907,1082.755835
10.5700,-4.816224635,19.96430016,1082.723794
10.5750,-4.813699328,19.96807589,1082.691491
10.5800,-4.810872715,19.97180493,1082.658929
10.5850,-4.807775019,19.97551329,1082.626106
10.5900,-4.804381014,19.97920378,1082.593014
10.5950,-4.800648189,19.98291847,1082.559647
10.6000,-4.796538068,19.98663731,1082.52596
10.6050,-4.792054765,19.9903612,1082.491956
10.6100,-4.787168688,19.99404094,1082.45761
10.6150,-4.781876567,19.99767785,1082.422914
10.6200,-4.776170658,20.00124101,1082.387877
10.6250,-4.770086181,20.00472031,1082.352483
10.6300,-4.763631802,20.00808946,1082.31674
10.6350,-4.756828257,20.01131453,1082.280657
10.6400,-4.749664383,20.01438247,1082.244234
10.6450,-4.742107312,20.01726386,1082.20746
10.6500,-4.734179496,20.01986834,1082.170327
10.6550,-4.725862209,20.02225682,1082.132841
10.6600,-4.717180873,20.02437995,1082.094989
10.6650,-4.708161853,20.02620854,1082.056787
10.6700,-4.698771416,20.0277556,1082.018214
10.6750,-4.689033274,20.02904104,1081.979303
10.6800,-4.678937249,20.03003436,1081.940035
10.6850,-4.668496405,20.03069635,1081.900416
10.6900,-4.657758355,20.03100478,1081.86048
10.6950,-4.646701312,20.03098178,1081.820233
10.7000,-4.635349362,20.03067259,1081.779694
10.7050,-4.623631291,20.03008618,1081.738828
10.7100,-4.61158466,20.02921501,1081.697641
10.7150,-4.599205432,20.02803939,1081.656145
10.7200,-4.586503731,20.0265867,1081.61433
10.7250,-4.573491951,20.02487931,1081.572195
10.7300,-4.560177188,20.02286958,1081.529731
10.7350,-4.546515647,20.02059821,1081.486949
10.7400,-4.532529163,20.01806652,1081.443854
10.7450,-4.518235792,20.0152821,1081.400448
10.7500,-4.503696003,20.01226064,1081.356773
10.7550,-4.488884935,20.00901536,1081.312809
10.7600,-4.473844585,20.00555785,1081.26861
10.7650,-4.458628069,20.00191852,1081.224203
10.7700,-4.4431939,19.99809636,1081.17957
10.7750,-4.427568723,19.99410561,1081.13472
10.7800,-4.411753811,19.98999277,1081.089674
10.7850,-4.395684478,19.98577156,1081.044412
10.7900,-4.379390312,19.98148802,1080.998945
10.7950,-4.362904746,19.97712586,1080.95327
10.8000,-4.346270657,19.97268098,1080.907407
10.8050,-4.32949003,19.96811126,1080.861361
10.8100,-4.312541637,19.96341859,1080.815163
10.8150,-4.29539495,19.95862435,1080.768834
10.8200,-4.278116895,19.9537382,1080.722411
10.8250,-4.260730946,19.94879558,1080.675927
10.8300,-4.243294118,19.94377004,1080.629413
10.8350,-4.225863099,19.93861666,1080.582891
10.8400,-4.208478862,19.93340249,1080.536399
10.8450,-4.191112221,19.92813843,1080.489934
10.8500,-4.173746372,19.92289141,1080.443519
10.8550,-4.156360983,19.91767561,1080.397179
10.8600,-4.138958096,19.91255562,1080.350928
10.8650,-4.121528533,19.90749105,1080.304763
10.8700,-4.104050499,19.90247324,1080.258684
10.8750,-4.086575326,19.89747479,1080.21273
10.8800,-4.069060732,19.89249086,1080.166903
10.8850,-4.051495189,19.88752028,1080.12123
10.8900,-4.033864766,19.88258032,1080.075705
10.8950,-4.016229749,19.87762913,1080.030352
10.9000,-3.998598541,19.87269997,1079.985197
10.9050,-3.980929435,19.86777979,1079.940223
10.9100,-3.963163466,19.86285565,1079.895428
10.9150,-3.945235814,19.85794818,1079.850803
10.9200,-3.92714101,19.85303089,1079.806332
10.9250,-3.908813446,19.84806635,1079.76201
10.9300,-3.890235873,19.84303341,1079.717836
10.9350,-3.871361271,19.83795164,1079.673791
10.9400,-3.852203784,19.83279185,1079.629875
10.9450,-3.832806979,19.82759024,1079.586106
10.9500,-3.813193149,19.82231383,1079.542471
10.9550,-3.793405926,19.81692346,1079.498975
10.9600,-3.773511458,19.81142805,1079.455657
10.9650,-3.753554189,19.80576012,1079.412503
10.9700,-3.733556523,19.79990121,1079.369525
10.9750,-3.713559134,19.79375093,1079.326707
10.9800,-3.693555941,19.78728226,1079.284051
10.9850,-3.6735829,19.78051054,1079.24157
10.9900,-3.65360557,19.77345255,1079.199239
10.9950,-3.633657705,19.76610456,1079.157067
11.0000,-3.613622861,19.7585025,1079.115033
11.0050,-3.59353844,19.75063878,1079.073163
11.0100,-3.573350048,19.74252988,1079.031439
11.0150,-3.553105153,19.73422728,1078.989891
11.0200,-3.532752742,19.72571796,1078.948502
11.0250,-3.512267853,19.71702088,1078.907285
11.0300,-3.491636471,19.70820828,1078.866245
11.0350,-3.470822376,19.69922441,1078.825354
11.0400,-3.449827001,19.6901205,1078.784633
11.0450,-3.428609093,19.68086001,1078.744074
11.0500,-3.407137537,19.67143727,1078.703662
11.0550,-3.385361578,19.66191342,1078.6634
11.0600,-3.36331364,19.65224069,1078.623298
11.0650,-3.340947019,19.64242902,1078.583345
11.0700,-3.318327239,19.63244014,1078.543567
11.0750,-3.295467853,19.62232237,1078.503993
11.0800,-3.272361261,19.61207071,1078.464624
11.0850,-3.249082953,19.6016883,1078.425482
11.0900,-3.22560742,19.59121406,1078.386584
11.0950,-3.201967745,19.58064653,1078.347957
11.1000,-3.178143107,19.57001887,1078.309597
11.1050,-3.154176422,19.55935492,1078.271529
11.1100,-3.130094212,19.54865593,1078.233742
11.1150,-3.105881216,19.53793795,1078.196232
11.1200,-3.081512811,19.52725416,1078.159006
11.1250,-3.056943395,19.51657916,1078.122053
11.1300,-3.032157882,19.50590024,1078.08537
11.1350,-3.007132123,19.49526987,1078.048971
11.1400,-2.981828604,19.48465354,1078.012854
11.1450,-2.956229121,19.47404766,1077.977014
11.1500,-2.930391756,19.46339372,1077.941467
11.1550,-2.904315619,19.45270619,1077.906215
11.1600,-2.877985494,19.44188385,1077.871237
11.1650,-2.851425557,19.43095764,1077.836548
11.1700,-2.824674135,19.41993668,1077.802152
11.1750,-2.797737173,19.40882102,1077.768049
11.1800,-2.770617518,19.39763246,1077.734228
11.1850,-2.743251075,19.38635515,1077.700669
11.1900,-2.715629838,19.3750091,1077.66738
11.1950,-2.687766951,19.36360364,1077.634365
11.2000,-2.659655622,19.35211612,1077.60162
11.2050,-2.631324115,19.34056776,1077.569149
11.2100,-2.602822443,19.32899806,1077.536951
11.2150,-2.574181492,19.31740172,1077.505041
11.2200,-2.545413082,19.30579582,1077.473414
11.2250,-2.516534906,19.29417641,1077.442068
11.2300,-2.48752747,19.28260937,1077.411011
11.2350,-2.458377629,19.27107134,1077.380223
11.2400,-2.429102036,19.25961274,1077.349714
11.2450,-2.399655703,19.2482691,1077.319477
11.2500,-2.370030972,19.23705252,1077.289519
11.2550,-2.34019718,19.22596672,1077.259829
11.2600,-2.310133177,19.21500598,1077.230392
11.2650,-2.279777818,19.20426231,1077.201208
11.2700,-2.24912615,19.19375393,1077.172279
11.2750,-2.218173945,19.18348866,1077.143602
11.2800,-2.186942776,19.17356251,1077.115184
11.2850,-2.155419169,19.16396342,1077.087013
11.2900,-2.123611742,19.15466266,1077.059089
11.2950,-2.091533163,19.14561934,1077.031405
11.3000,-2.059266749,19.1368183,1077.003983
11.3050,-2.026869858,19.12823151,1076.976823
11.3100,-1.994416028,19.11980233,1076.949932
11.3150,-1.961913517,19.11149797,1076.923305
11.3200,-1.929504221,19.10329672,1076.896976
11.3250,-1.897263559,19.09516826,1076.870952
11.3300,-1.865185682,19.08708735,1076.845226
11.3350,-1.833327321,19.0790744,1076.819815
11.3400,-1.80166903,19.0710852,1076.794701
11.3450,-1.770273397,19.06310606,1076.769894
11.3500,-1.739141544,19.05515645,1076.745396
11.3550,-1.708308129,19.04710547,1076.721193
11.3600,-1.677735956,19.0389593,1076.697271
11.3650,-1.647561757,19.03072114,1076.673662
11.3700,-1.61775291,19.02235818,1076.650349
11.3750,-1.58833922,19.01390698,1076.627344
11.3800,-1.559272141,19.00531288,1076.604621
11.3850,-1.530521455,18.99660556,1076.582184
11.3900,-1.502078683,18.98776179,1076.56003
11.3950,-1.473915426,18.97880038,1076.538149
11.4000,-1.445979419,18.96974251,1076.516544
11.4050,-1.418212872,18.96061926,1076.495211
11.4100,-1.390505655,18.95147632,1076.474145
11.4150,-1.362824407,18.94229953,1076.453336
11.4200,-1.335098076,18.93309579,1076.432776
11.4250,-1.307304858,18.92387248,1076.412457
11.4300,-1.279377444,18.91465458,1076.392373
11.4350,-1.251200759,18.90543827,1076.372503
11.4400,-1.222708895,18.89622935,1076.352832
11.4450,-1.193887323,18.88703469,1076.333358
11.4500,-1.164681966,18.87786419,1076.314075
11.4550,-1.135004836,18.86870336,1076.294958
11.4600,-1.10487281,18.85960921,1076.27602
11.4650,-1.074244786,18.85053093,1076.257248
11.4700,-1.043075199,18.84145105,1076.238631
11.4750,-1.01138847,18.83236761,1076.220175
11.4800,-0.9791677129,18.823277,1076.201879
11.4850,-0.9464677447,18.8141972,1076.183755
11.4900,-0.9133074438,18.80513082,1076.165808
11.4950,-0.8796664736,18.79612742,1076.148047
11.5000,-0.8455812656,18.7872503,1076.130479
11.5050,-0.8111216276,18.77850185,1076.113123
11.5100,-0.7762919099,18.76994448,1076.095993
11.5150,-0.7411452635,18.76163814,1076.079101
11.5200,-0.705719677,18.7536326,1076.062459
11.5250,-0.6700583237,18.74600357,1076.046085
11.5300,-0.6342216319,18.73882058,1076.029994
11.5350,-0.5982786087,18.73212236,1076.014196
11.5400,-0.562285474,18.72598072,1075.998712
11.5450,-0.5263564524,18.72035364,1075.983544
11.5500,-0.4905194194,18.71529547,1075.968697
11.5550,-0.4548710205,18.71080384,1075.954183
11.5600,-0.4194659303,18.70689361,1075.940006
11.5650,-0.3844604684,18.70352519,1075.926178
11.5700,-0.3499673886,18.70070475,1075.912713
11.5750,-0.3160738228,18.69844763,1075.899621
11.5800,-0.2829041356,18.69668191,1075.886898
11.5850,-0.2505608061,18.6953968,1075.874558
11.5900,-0.2190898897,18.69461616,1075.862602
11.5950,-0.1885487062,18.69437161,1075.851039
11.6000,-0.1589693277,18.69458536,1075.839851
11.6050,-0.1303226547,18.69526423,1075.829029
11.6100,-0.1025853439,18.69646027,1075.818579
11.6150,-0.07578030016,18.69816705,1075.808499
11.6200,-0.04981276231,18.70035384,1075.79877
11.6250,-0.0246326094,18.70303243,1075.789382
11.6300,-0.0002161028902,18.70615071,1075.780329
11.6350,0.0234649745,18.70976499,1075.771617
11.6400,0.04642328221,18.71383051,1075.763242
11.6450,0.06874738947,18.71834884,1075.755188
11.6500,0.09047463122,18.72325952,1075.747448
11.6550,0.1116429763,18.72861892,1075.740025
11.6600,0.1323318247,18.73441034,1075.732909
11.6650,0.1527213686,18.74057319,1075.726065
11.6700,0.1729364574,18.74711479,1075.719481
11.6750,0.1930886487,18.75392615,1075.713119
11.6800,0.2131989481,18.76102056,1075.706985
11.6850,0.2333196113,18.76826842,1075.701047
11.6900,0.2535238305,18.77566694,1075.695293
11.6950,0.273874351,18.78314803,1075.689701
11.7000,0.2943806832,18.79066523,1075.684264
11.7050,0.3151025989,18.79817745,1075.678963
11.7100,0.3360124244,18.80560716,1075.673787
11.7150,0.3571301856,18.81291004,1075.668722
11.7200,0.3784960461,18.82009118,1075.663762
11.7250,0.4001598101,18.82712349,1075.658894
11.7300,0.4221484721,18.83392955,1075.654092
11.7350,0.4444701037,18.84049349,1075.649353
11.7400,0.4670798759,18.84679157,1075.644671
11.7450,0.4900379446,18.85275166,1075.640016
11.7500,0.5133807007,18.85838916,1075.635385
11.7550,0.5370634699,18.86368122,1075.630774
11.7600,0.5611767105,18.86859142,1075.626159
11.7650,0.5857025427,18.87312964,1075.62154
11.7700,0.610613863,18.87729353,1075.616918
11.7750,0.6359590409,18.88107486,1075.612275
11.7800,0.6617354852,18.88445013,1075.607605
11.7850,0.6879360997,18.88740146,1075.602899
11.7900,0.7145219299,18.88992648,1075.59816
11.7950,0.7415103629,18.89199665,1075.593374
11.8000,0.7688555848,18.89357423,1075.588539
11.8050,0.7965894976,18.89467418,1075.583652
11.8100,0.8246480755,18.89529521,1075.578719
11.8150,0.8529809603,18.89542172,1075.573741
11.8200,0.8816057778,18.89504659,1075.568714
11.8250,0.91047579,18.89419243,1075.563647
11.8300,0.9395555182,18.89282987,1075.558536
11.8350,0.9688297833,18.8909935,1075.553392
11.8400,0.9982096232,18.88864443,1075.54822
11.8450,1.027666144,18.88584239,1075.543032
11.8500,1.057114797,18.88257106,1075.537835
11.8550,1.086530461,18.87887372,1075.532637
11.8600,1.115848502,18.87473825,1075.527444
11.8650,1.145069715,18.87019388,1075.522261
11.8700,1.174170234,18.86525791,1075.51709
11.8750,1.203154757,18.85995705,1075.511938
11.8800,1.231985767,18.85431095,1075.506812
11.8850,1.260677347,18.84837351,1075.501718
11.8900,1.289153155,18.84215099,1075.496666
11.8950,1.31729577,18.83566431,1075.491665
11.9000,1.345082239,18.82899543,1075.486737
11.9050,1.372361408,18.82216358,1075.481897
11.9100,1.399049688,18.81519012,1075.477152
11.9150,1.425109108,18.80810269,1075.47251
11.9200,1.450481447,18.80096289,1075.467983
11.9250,1.475069021,18.79377565,1075.463579
11.9300,1.49878499,18.78657288,1075.459305
11.9350,1.521631595,18.77936467,1075.455159
11.9400,1.543505985,18.77218209,1075.451148
11.9450,1.564365414,18.7650573,1075.447281
11.9500,1.584204459,18.75803662,1075.443562
11.9550,1.603012641,18.75112647,1075.439985
11.9600,1.620799283,18.74436893,1075.436558
11.9650,1.637565258,18.73778182,1075.433275
11.9700,1.653268073,18.73133361,1075.430128
11.9750,1.667943027,18.72506074,1075.42712
11.9800,1.68158063,18.71897329,1075.42425
11.9850,1.694224597,18.71308821,1075.421513
11.9900,1.70589532,18.7073054,1075.418887
11.9950,1.716603823,18.70167607,1075.416377
12.0000,1.726446756,18.69617841,1075.413969
12.0050,1.735397499,18.69080886,1075.411664
12.0100,1.743528291,18.68555649,1075.40945
12.0150,1.750983858,18.68041669,1075.407314
12.0200,1.757764645,18.67536175,1075.405252
12.0250,1.763881172,18.67040476,1075.403262
12.0300,1.7693994,18.66552915,1075.401337
12.0350,1.774305968,18.6607453,1075.399477
12.0400,1.778709364,18.65602006,1075.397668
12.0450,1.782621864,18.65135642,1075.395911
12.0500,1.786073526,18.64671819,1075.394196
12.0550,1.789102693,18.64209271,1075.392515
12.0600,1.791717768,18.6374506,1075.390862
12.0650,1.793967448,18.63279209,1075.389233
12.0700,1.795893003,18.62811945,1075.387624
12.0750,1.797552277,18.6233936,1075.386024
12.0800,1.798927132,18.61862326,1075.384437
12.0850,1.800054094,18.61379109,1075.382856
12.0900,1.800968563,18.60889771,1075.38128
12.0950,1.801680051,18.6039355,1075.379706
12.1000,1.802182491,18.59891234,1075.378138
12.1050,1.802531669,18.59383245,1075.376572
12.1100,1.80278047,18.58867511,1075.374998
12.1150,1.803000305,18.5834555,1075.373417
12.1200,1.803200647,18.57816726,1075.371825
12.1250,1.803374555,18.57279777,1075.370223
12.1300,1.803591949,18.56735095,1075.368604
12.1350,1.80381141,18.56183082,1075.366975
12.1400,1.804138828,18.55625659,1075.365331
12.1450,1.804620896,18.55059089,1075.363662
12.1500,1.805292599,18.54484383,1075.361968
12.1550,1.806173897,18.53899,1075.360245
12.1600,1.807272413,18.53305677,1075.358494
12.1650,1.808662433,18.52704803,1075.356715
12.1700,1.810305705,18.52095858,1075.354908
12.1750,1.812159969,18.51477922,1075.353074
12.1800,1.81429124,18.50852442,1075.35121
12.1850,1.816647328,18.50216229,1075.349315
12.1900,1.819241514,18.49572145,1075.347393
12.1950,1.822096531,18.48921879,1075.345449
12.2000,1.825216271,18.48263994,1075.343478
12.2050,1.828638058,18.47599483,1075.341479
12.2100,1.832333914,18.46930376,1075.33946
12.2150,1.836300558,18.46258382,1075.337423
12.2200,1.840521476,18.45585084,1075.335373
12.2250,1.844982832,18.44916503,1075.333323
12.2300,1.849661069,18.44252681,1075.331274
12.2350,1.85446403,18.43597381,1075.329244
12.2400,1.859408004,18.4295217,1075.327232
12.2450,1.86440718,18.42318653,1075.325248
12.2500,1.869404395,18.41698584,1075.323301
12.2550,1.874351826,18.41092286,1075.321395
12.2600,1.879186759,18.4050131,1075.319538
12.2650,1.883850495,18.39925711,1075.317735
12.2700,1.888361321,18.39372947,1075.315999
12.2750,1.89263807,18.38841479,1075.314332
12.2800,1.896709872,18.38327468,1075.312724
12.2850,1.900533451,18.37833585,1075.311185
12.2900,1.904147059,18.373647,1075.309718
12.2950,1.907573424,18.36915051,1075.30831
12.3000,1.910783157,18.36484435,1075.306964
12.3050,1.913810492,18.36068517,1075.305666
12.3100,1.916714496,18.35668225,1075.304416
12.3150,1.919404452,18.35281901,1075.303216
12.3200,1.921933531,18.34904589,1075.302051
12.3250,1.924353785,18.34533666,1075.300912
12.3300,1.926645881,18.34168979,1075.299802
12.3350,1.928865334,18.33807618,1075.298708
12.3400,1.930987052,18.33447875,1075.297631
12.3450,1.933041968,18.33095587,1075.296579
12.3500,1.935007532,18.3273979,1075.295533
12.3550,1.936864364,18.32387979,1075.294507
12.3600,1.938596012,18.32032326,1075.29349
12.3650,1.94017383,18.31677244,1075.29249
12.3700,1.941558111,18.31318678,1075.291504
12.3750,1.942681152,18.30961842,1075.290545
12.3800,1.943537871,18.30602149,1075.289608
12.3850,1.944099301,18.30242063,1075.288698
12.3900,1.94433358,18.2987978,1075.287815
12.3950,1.944174788,18.29516267,1075.286967
12.4000,1.943640766,18.29153589,1075.286158
12.4050,1.942639082,18.28789909,1075.285389
12.4100,1.941176337,18.28428051,1075.284668
12.4150,1.939223813,18.28067157,1075.283993
12.4200,1.936776446,18.27713522,1075.283379
12.4250,1.933838564,18.27363649,1075.282817
12.4300,1.930388235,18.27019976,1075.282316
12.4350,1.926507736,18.2668407,1075.281871
12.4400,1.922168768,18.26355588,1075.281483
12.4450,1.917364034,18.26038465,1075.281162
12.4500,1.912114118,18.25730799,1075.280902
12.4550,1.906443859,18.25438123,1075.280711
12.4600,1.900412349,18.25158188,1075.280583
12.4650,1.894002479,18.248915,1075.280519
12.4700,1.88726755,18.24637558,1075.280514
12.4750,1.880279516,18.2439882,1075.280568
12.4800,1.873004234,18.24175437,1075.280685
12.4850,1.865469019,18.23970025,1075.280868
12.4900,1.857666942,18.23780478,1075.281113
12.4950,1.849661919,18.2360616,1075.281415
12.5000,1.841392167,18.2344486,1075.281775
12.5050,1.832857443,18.23301868,1075.282206
12.5100,1.824089088,18.23173013,1075.282698
12.5150,1.81505849,18.23057473,1075.283251
12.5200,1.805761762,18.22956259,1075.283867
12.5250,1.79622391,18.22863179,1075.284535
12.5300,1.786471657,18.22782595,1075.285264
12.5350,1.776494959,18.22711063,1075.286045
12.5400,1.766331573,18.22651476,1075.286885
12.5450,1.756014462,18.22603164,1075.287777
12.5500,1.745560576,18.22566048,1075.288722
12.5550,1.734992803,18.22538672,1075.289715
12.5600,1.72436062,18.22517609,1075.290743
12.5650,1.71366386,18.22507868,1075.291818
12.5700,1.702902816,18.2250141,1075.292923
12.5750,1.692101955,18.2249739,1075.294059
12.5800,1.681231806,18.22496075,1075.295224
12.5850,1.670311368,18.22494859,1075.296414
12.5900,1.659383266,18.2249174,1075.29762
12.5950,1.64840824,18.22488619,1075.298852
12.6000,1.637453793,18.22478331,1075.300087
12.6050,1.626555707,18.22465508,1075.301332
12.6100,1.615686582,18.22442409,1075.302573
12.6150,1.604902211,18.22408803,1075.303805
12.6200,1.594232405,18.22364626,1075.305027
12.6250,1.583677171,18.22303411,1075.306225
12.6300,1.573270477,18.22226581,1075.307398
12.6350,1.56298951,18.22125501,1075.308534
12.6400,1.552887721,18.22003102,1075.309631
12.6450,1.542954701,18.21851834,1075.31068
12.6500,1.533187435,18.21675841,1075.311688
12.6550,1.523654812,18.21467868,1075.312635
12.6600,1.514334971,18.21229212,1075.313527
12.6650,1.505247113,18.20951821,1075.31435
12.6700,1.496384754,18.20637849,1075.315108
12.6750,1.487762266,18.20281369,1075.315794
12.6800,1.479286529,18.19885887,1075.316421
12.6850,1.470998208,18.19449286,1075.316986
12.6900,1.462866185,18.18969353,1075.317487
12.6950,1.45488919,18.18448738,1075.317934
12.7000,1.446996756,18.17883663,1075.318326
12.7050,1.439176972,18.17276367,1075.318671
12.7100,1.431328283,18.16629837,1075.318988
12.7150,1.423399214,18.1594287,1075.319282
12.7200,1.415305311,18.15211939,1075.319556
12.7250,1.407029335,18.14443502,1075.319829
12.7300,1.398463063,18.13643415,1075.320122
12.7350,1.38956863,18.1280731,1075.320433
12.7400,1.380266746,18.11940906,1075.320785
12.7450,1.370557595,18.11047592,1075.321184
12.7500,1.360386548,18.10130097,1075.321643
12.7550,1.349710882,18.09194027,1075.322179
12.7600,1.338475607,18.08241115,1075.322798
12.7650,1.326635439,18.07272464,1075.32351
12.7700,1.314199285,18.06290863,1075.324321
12.7750,1.301159952,18.05300324,1075.325244
12.7800,1.287509915,18.04301338,1075.326279
12.7850,1.273232229,18.03290957,1075.327426
12.7900,1.258357849,18.0227415,1075.328692
12.7950,1.242851229,18.0125201,1075.330087
12.8000,1.226753756,18.00231537,1075.331621
12.8050,1.210040497,17.99209112,1075.333294
12.8100,1.192714866,17.98186926,1075.335112
12.8150,1.174778156,17.97166681,1075.337084
12.8200,1.156232095,17.96148029,1075.339214
12.8250,1.137088884,17.95136768,1075.341513
12.8300,1.117329952,17.94131218,1075.343984
12.8350,1.097001307,17.93134444,1075.346631
12.8400,1.076076475,17.92146894,1075.34946
12.8450,1.054563966,17.9116894,1075.352474
12.8500,1.032455053,17.90200322,1075.355672
12.8550,1.009773847,17.89247022,1075.359069
12.8600,0.9865396822,17.88309237,1075.362662
12.8650,0.9628356814,17.87383575,1075.366442
12.8700,0.9386706616,17.86478501,1075.370423
12.8750,0.914129913,17.85597978,1075.374604
12.8800,0.8893179852,17.84744275,1075.378978
12.8850,0.864265961,17.83918191,1075.383547
12.8900,0.838988359,17.83120943,1075.388313
12.8950,0.8135863656,17.82349981,1075.393265
12.9000,0.788063845,17.81606614,1075.398406
12.9050,0.7624882808,17.80884213,1075.40372
12.9100,0.7369076688,17.8018865,1075.409217
12.9150,0.7113738361,17.79515863,1075.414886
12.9200,0.6858996032,17.78863085,1075.420724
12.9250,0.6605606736,17.78234556,1075.426734
12.9300,0.635375855,17.77626626,1075.432911
12.9350,0.6104553138,17.77043891,1075.439253
12.9400,0.5857760351,17.76480441,1075.445759
12.9450,0.5613490686,17.75936473,1075.452429
12.9500,0.5372267443,17.75409504,1075.459258
12.9550,0.5134239893,17.74898427,1075.466248
12.9600,0.4899048562,17.74404413,1075.473409
12.9650,0.466702347,17.73927483,1075.480741
12.9700,0.4438183367,17.73465742,1075.488245
12.9750,0.4212315479,17.73020273,1075.495928
12.9800,0.3990465935,17.72590872,1075.503776
12.9850,0.3771585873,17.7218077,1075.511814
12.9900,0.3555300756,17.71792181,1075.520053
12.9950,0.3341593064,17.71423052,1075.528488
13.0000,0.3130496285,17.71076558,1075.537127
13.0050,0.2921660938,17.70753868,1075.545979
13.0100,0.2715091246,17.70455569,1075.555044
13.0150,0.2510448654,17.70186065,1075.564328
13.0200,0.2307874106,17.69947014,1075.573837
13.0250,0.2106792748,17.69740568,1075.583576
13.0300,0.1907259914,17.69563752,1075.59354
13.0350,0.1708778441,17.69421608,1075.603739
13.0400,0.1511326502,17.69314112,1075.61417
13.0450,0.1314437421,17.69241293,1075.624835
13.0500,0.111817391,17.69202629,1075.635729
13.0550,0.09213613295,17.69193268,1075.646865
13.0600,0.07241626125,17.69216245,1075.658242
13.0650,0.05258986627,17.6927102,1075.669872
13.0700,0.03263285781,17.69357241,1075.681751
13.0750,0.01245187083,17.69471663,1075.693889
13.0800,-0.00798385956,17.69618174,1075.706293
13.0850,-0.0287089243,17.69796946,1075.71897
13.0900,-0.04972992059,17.70005348,1075.731918
13.0950,-0.07106682415,17.70243322,1075.745141
13.1000,-0.09271957615,17.70510836,1075.758632
13.1050,-0.1147158691,17.70806726,1075.772398
13.1100,-0.137038388,17.71130914,1075.786432
13.1150,-0.1596405625,17.71485145,1075.800729
13.1200,-0.1825561272,17.71865705,1075.815291
13.1250,-0.2057660146,17.72275541,1075.830109
13.1300,-0.2292764626,17.72713186,1075.845187
13.1350,-0.253114807,17.73177059,1075.860528
13.1400,-0.2772481319,17.73664665,1075.876118
13.1450,-0.3016823059,17.74179333,1075.891962
13.1500,-0.3264131972,17.74719705,1075.90807
13.1550,-0.3513775788,17.7528148,1075.924414
13.1600,-0.3765829798,17.75870365,1075.941004
13.1650,-0.4020238963,17.76481258,1075.957844
13.1700,-0.42770172,17.77108444,1075.974916
13.1750,-0.4535889238,17.77750756,1075.992221
13.1800,-0.4797483778,17.78402083,1076.009763
13.1850,-0.5061336462,17.79063932,1076.027534
13.1900,-0.5327318167,17.79736402,1076.04553
13.1950,-0.5595149732,17.80419387,1076.063746
13.2000,-0.5864952323,17.81109645,1076.082187
13.2050,-0.613605361,17.8180641,1076.100841
13.2100,-0.640850155,17.82506594,1076.119699
13.2150,-0.6682046918,17.83208455,1076.138772
13.2200,-0.6955933704,17.83912219,1076.158048
13.2250,-0.7230039647,17.84613759,1076.17752
13.2300,-0.7503895156,17.85314044,1076.197187
13.2350,-0.7777490542,17.86011629,1076.217054
13.2400,-0.8050398352,17.86707074,1076.237113
13.2450,-0.8322346569,17.8739682,1076.257354
13.2500,-0.8593392061,17.88084848,1076.277788
13.2550,-0.886327161,17.88767745,1076.298406
13.2600,-0.9131607831,17.89447673,1076.319197
13.2650,-0.9398296329,17.90125472,1076.34017
13.2700,-0.9663278348,17.90798969,1076.361308
13.2750,-0.9926262259,17.91469798,1076.382614
13.2800,-1.01874865,17.9213617,1076.404091
13.2850,-1.044705615,17.92798491,1076.42573
13.2900,-1.070420792,17.9345775,1076.447516
13.2950,-1.095927427,17.94111654,1076.46945
13.3000,-1.121236166,17.94764346,1076.491544
13.3050,-1.146343253,17.95414633,1076.513787
13.3100,-1.171227472,17.96063153,1076.536167
13.3150,-1.195903746,17.96706183,1076.558688
13.3200,-1.220390587,17.97347733,1076.581339
13.3250,-1.244710734,17.97985904,1076.604138
13.3300,-1.268813229,17.98623631,1076.627075
13.3350,-1.292751482,17.99261164,1076.650156
13.3400,-1.316500388,17.99893875,1076.673365
13.3450,-1.340051095,18.00525889,1076.696711
13.3500,-1.363454239,18.01161471,1076.720206
13.3550,-1.386644247,18.01802201,1076.74384
13.3600,-1.409629109,18.02445681,1076.767609
13.3650,-1.432379873,18.03097321,1076.791493
13.3700,-1.454973893,18.03756768,1076.81552
13.3750,-1.477359232,18.0442758,1076.839677
13.3800,-1.499523921,18.05108662,1076.863967
13.3850,-1.521467472,18.0580552,1076.888384
13.3900,-1.543228435,18.06518257,1076.912937
13.3950,-1.56477923,18.07248791,1076.937609
13.4000,-1.586121955,18.07998766,1076.962423
13.4050,-1.60721359,18.08770456,1076.987357
13.4100,-1.628071904,18.09567366,1077.012426
13.4150,-1.648734264,18.10387708,1077.037636
13.4200,-1.669174673,18.11233619,1077.06298
13.4250,-1.689365943,18.12105652,1077.088461
13.4300,-1.709311092,18.13002233,1077.114075
13.4350,-1.728990176,18.13923435,1077.139815
13.4400,-1.748430753,18.14871498,1077.165686
13.4450,-1.767570672,18.15839948,1077.191681
13.4500,-1.786382032,18.16831518,1077.217786
13.4550,-1.804897516,18.17845688,1077.244018
13.4600,-1.823096743,18.18873421,1077.270366
13.4650,-1.841023145,18.19918144,1077.296824
13.4700,-1.858621739,18.2097723,1077.323391
13.4750,-1.875924682,18.22048308,1077.350065
13.4800,-1.892940233,18.2313119,1077.376848
13.4850,-1.909630136,18.24220496,1077.403725
13.4900,-1.926000368,18.25309622,1077.4307
13.4950,-1.942051526,18.26396209,1077.457774
13.5000,-1.957773997,18.27484763,1077.484952
13.5050,-1.973241537,18.28571241,1077.512252
13.5100,-1.988405546,18.29652757,1077.539668
13.5150,-2.00331456,18.30729235,1077.567193
13.5200,-2.017978706,18.31800733,1077.594829
13.5250,-2.032410179,18.32867725,1077.622592
13.5300,-2.046629279,18.33925071,1077.650465
13.5350,-2.060667056,18.3497345,1077.678451
13.5400,-2.074533043,18.36014603,1077.706569
13.5450,-2.088253282,18.37047145,1077.734811
13.5500,-2.101792584,18.38069389,1077.763173
13.5550,-2.115199176,18.39080462,1077.791656
13.5600,-2.128520063,18.40079346,1077.820273
13.5650,-2.141810018,18.41062516,1077.849014
13.5700,-2.155062025,18.42029219,1077.87789
13.5750,-2.168377392,18.42977607,1077.906899
13.5800,-2.181798147,18.43907271,1077.936046
13.5850,-2.195333516,18.44816204,1077.965332
13.5900,-2.209016962,18.45705814,1077.994757
13.5950,-2.222854617,18.46576543,1078.024315
13.6000,-2.236880238,18.47428098,1078.053992
13.6050,-2.25110872,18.48260877,1078.083814
13.6100,-2.265591822,18.49073224,1078.113772
13.6150,-2.280284979,18.49866011,1078.143854
13.6200,-2.295235732,18.50639429,1078.17408
13.6250,-2.310433984,18.51394034,1078.204421
13.6300,-2.325900492,18.52133197,1078.234884
13.6350,-2.341642368,18.52852742,1078.265466
