type,name,time_units,begin_time,frequency,count,units
signal_3d,"Noraxon MyoMotion-Trajectories-Medial humeral epicondyle RT","s",0.0000,200,4984,"mm"

time,x,y,z
0.0000,138.6877851,-33.05124276,1240.70309
0.0050,138.6844195,-33.09606162,1240.691817
0.0100,138.6810661,-33.14088367,1240.680548
0.0150,138.6777248,-33.18570889,1240.669284
0.0200,138.6760345,-33.23470903,1240.656792
0.0250,138.6764268,-33.28769363,1240.643074
0.0300,138.6793539,-33.34440794,1240.62814
0.0350,138.685273,-33.40455113,1240.612009
0.0400,138.6946257,-33.46779564,1240.594708
0.0450,138.7078228,-33.53380334,1240.576271
0.0500,138.7252357,-33.60223529,1240.556735
0.0550,138.7471856,-33.6727572,1240.536147
0.0600,138.7739289,-33.74504634,1240.514559
0.0650,138.8056482,-33.81879749,1240.492031
0.0700,138.8424501,-33.89372139,1240.468629
0.0750,138.8843663,-33.96953962,1240.444426
0.0800,138.9313575,-34.04598465,1240.4195
0.0850,138.9833171,-34.12280355,1240.393929
0.0900,139.040068,-34.19975988,1240.367795
0.0950,139.101357,-34.27663344,1240.341185
0.1000,139.1668479,-34.35321948,1240.314189
0.1050,139.2361148,-34.42932717,1240.286906
0.1100,139.3086381,-34.50477676,1240.259444
0.1150,139.3838016,-34.57939551,1240.23192
0.1200,139.4608877,-34.65301408,1240.204468
0.1250,139.5390789,-34.72546502,1240.177237
0.1300,139.6174636,-34.79658088,1240.150393
0.1350,139.695045,-34.86619065,1240.124116
0.1400,139.7707587,-34.93411807,1240.098604
0.1450,139.8434975,-35.00018338,1240.074064
0.1500,139.9121417,-35.06420715,1240.050709
0.1550,139.9741922,-35.1867376,1240.02091
0.1600,140.0287581,-35.30634762,1239.993469
0.1650,140.0752059,-35.42229133,1239.968652
0.1700,140.1137217,-35.53416861,1239.946341
0.1750,140.1430127,-35.64231425,1239.92683
0.1800,140.1616473,-35.74519942,1239.910474
0.1850,140.1701319,-35.84295508,1239.897303
0.1900,140.1681954,-35.93481413,1239.887385
0.1950,140.155118,-36.02126492,1239.880763
0.2000,140.1313214,-36.10149233,1239.877509
0.2050,140.098246,-36.17560578,1239.877344
0.2100,140.0552219,-36.24312404,1239.880498
0.2150,140.0025396,-36.3039491,1239.886897
0.2200,139.9421134,-36.35842551,1239.896308
0.2250,139.87399,-36.40604204,1239.908686
0.2300,139.7989583,-36.44770414,1239.923809
0.2350,139.7193536,-36.48356835,1239.941285
0.2400,139.6366908,-36.51255052,1239.960814
0.2450,139.5516483,-36.5365524,1239.982116
0.2500,139.4660668,-36.55514849,1240.004791
0.2550,139.3807231,-36.56917964,1240.028629
0.2600,139.2964587,-36.5781296,1240.053323
0.2650,139.2150101,-36.58319494,1240.078462
0.2700,139.1361785,-36.58387231,1240.103962
0.2750,139.0607879,-36.58096522,1240.129623
0.2800,138.9889399,-36.5752729,1240.15524
0.2850,138.9213742,-36.56604871,1240.180639
0.2900,138.858223,-36.55490146,1240.205571
0.2950,138.7991199,-36.54160504,1240.230073
0.3000,138.7443974,-36.52617424,1240.254034
0.3050,138.6944869,-36.50811892,1240.277231
0.3100,138.6500449,-36.48798623,1240.299509
0.3150,138.6104213,-36.46544956,1240.320796
0.3200,138.5752487,-36.44114975,1240.34118
0.3250,138.5444386,-36.41578313,1240.360489
0.3300,138.5182741,-36.38840681,1240.378651
0.3350,138.4965408,-36.35983441,1240.395548
0.3400,138.4793533,-36.33021845,1240.411157
0.3450,138.4668441,-36.30051469,1240.425294
0.3500,138.4579846,-36.27018713,1240.438076
0.3550,138.4538319,-36.24043293,1240.449183
0.3600,138.4546804,-36.21164232,1240.458393
0.3650,138.4589404,-36.18584385,1240.465857
0.3700,138.4674156,-36.16183152,1240.471564
0.3750,138.4789056,-36.14114862,1240.475502
0.3800,138.494107,-36.12450995,1240.477474
0.3850,138.5123578,-36.11272908,1240.477491
0.3900,138.532071,-36.10516678,1240.475914
0.3950,138.5544736,-36.10281142,1240.472456
0.4000,138.576991,-36.10566434,1240.46762
0.4050,138.6011556,-36.11445616,1240.461105
0.4100,138.6246471,-36.13002234,1240.45324
0.4150,138.6479794,-36.15063476,1240.444231
0.4200,138.6709699,-36.17665215,1240.43409
0.4250,138.6919694,-36.20813454,1240.423191
0.4300,138.7109457,-36.2442634,1240.41183
0.4350,138.7288059,-36.28357962,1240.399972
0.4400,138.7447528,-36.32644396,1240.387811
0.4450,138.7594347,-36.37234522,1240.375364
0.4500,138.7732426,-36.41972519,1240.362807
0.4550,138.7860131,-36.46880636,1240.350172
0.4600,138.7990822,-36.51940394,1240.337254
0.4650,138.8120428,-36.57083548,1240.324165
0.4700,138.8259408,-36.62316337,1240.310884
0.4750,138.8412405,-36.67511033,1240.297395
0.4800,138.8583496,-36.72777527,1240.283577
0.4850,138.8772273,-36.78058233,1240.269443
0.4900,138.8979906,-36.83376457,1240.254958
0.4950,138.9217214,-36.88654317,1240.240058
0.5000,138.9480685,-36.93985902,1240.224698
0.5050,138.9767696,-36.9928031,1240.208989
0.5100,139.0089356,-37.04651483,1240.19258
0.5150,139.0438617,-37.10117333,1240.175601
0.5200,139.0816267,-37.15660361,1240.158015
0.5250,139.1218557,-37.21239488,1240.13987
0.5300,139.164951,-37.26706866,1240.121251
0.5350,139.210426,-37.32149538,1240.102057
0.5400,139.2578413,-37.37668771,1240.082282
0.5450,139.3072539,-37.43107972,1240.062105
0.5500,139.3582615,-37.48370139,1240.041628
0.5550,139.4106084,-37.53555035,1240.020786
0.5600,139.463542,-37.58654022,1239.999791
0.5650,139.5174583,-37.6362306,1239.97856
0.5700,139.5710145,-37.68577529,1239.9573
0.5750,139.6245537,-37.73409223,1239.936109
0.5800,139.678348,-37.78092544,1239.914961
0.5850,139.731149,-37.82802502,1239.893996
0.5900,139.783036,-37.87307351,1239.873492
0.5950,139.8327637,-37.91652313,1239.853584
0.6000,139.8806929,-37.95913819,1239.834192
0.6050,139.9258997,-38.00240645,1239.815527
0.6100,139.9676418,-38.04522702,1239.797779
0.6150,140.0064331,-38.08897772,1239.780802
0.6200,140.0421989,-38.13405892,1239.764545
0.6250,140.0740967,-38.17986337,1239.749315
0.6300,140.1023966,-38.22766868,1239.73506
0.6350,140.1263374,-38.27735152,1239.721964
0.6400,140.1454465,-38.32925169,1239.710056
0.6450,140.1603498,-38.38361113,1239.699269
0.6500,140.1711906,-38.44066216,1239.689637
0.6550,140.1771202,-38.49933944,1239.681498
0.6600,140.1793301,-38.56047711,1239.674569
0.6650,140.1781087,-38.62217278,1239.668976
0.6700,140.1736514,-38.6851229,1239.664652
0.6750,140.1667906,-38.74841248,1239.661531
0.6800,140.1577507,-38.81117978,1239.659757
0.6850,140.1464187,-38.87233571,1239.65939
0.6900,140.1342242,-38.93282807,1239.66011
0.6950,140.1205788,-38.99071116,1239.662256
0.7000,140.1087905,-39.04676855,1239.665167
0.7050,140.0977442,-39.09929165,1239.669173
0.7100,140.0877614,-39.14885117,1239.674249
0.7150,140.07988,-39.19574945,1239.680099
0.7200,140.073826,-39.23975709,1239.686771
0.7250,140.0702048,-39.28079603,1239.694105
0.7300,140.0703643,-39.31925964,1239.701725
0.7350,140.0723695,-39.35497399,1239.709913
0.7400,140.0784506,-39.38783223,1239.718248
0.7450,140.0879715,-39.41865126,1239.726646
0.7500,140.0999926,-39.44778193,1239.735233
0.7550,140.1144679,-39.47443073,1239.744016
0.7600,140.1313056,-39.49891237,1239.752954
0.7650,140.1493751,-39.52240637,1239.7621
0.7700,140.1684839,-39.54567941,1239.771374
0.7750,140.1877176,-39.56804211,1239.78094
0.7800,140.2066222,-39.58981585,1239.790755
0.7850,140.2249704,-39.61109592,1239.800821
0.7900,140.2414782,-39.63184943,1239.811299
0.7950,140.2549939,-39.65384606,1239.822156
0.8000,140.2661898,-39.67584518,1239.833408
0.8050,140.2739604,-39.69808836,1239.845277
0.8100,140.2782612,-39.72046274,1239.857702
0.8150,140.2791637,-39.74304005,1239.870692
0.8200,140.2759638,-39.76631157,1239.884314
0.8250,140.2690387,-39.79032163,1239.898641
0.8300,140.2585227,-39.81629663,1239.913509
0.8350,140.2441516,-39.84343654,1239.929096
0.8400,140.2260798,-39.87149864,1239.945465
0.8450,140.2038687,-39.90046412,1239.962617
0.8500,140.1793923,-39.93171706,1239.980254
0.8550,140.1530532,-39.96372216,1239.998392
0.8600,140.1262283,-39.99676371,1240.016743
0.8650,140.0987452,-40.0302474,1240.03536
0.8700,140.0724707,-40.06363734,1240.05399
0.8750,140.0476055,-40.09629354,1240.072563
0.8800,140.0231485,-40.12902431,1240.091287
0.8850,140.0007,-40.16089881,1240.109858
0.8900,139.9798674,-40.19174884,1240.128303
0.8950,139.9625784,-40.22216677,1240.146311
0.9000,139.9468145,-40.25153173,1240.164252
0.9050,139.9335376,-40.27901459,1240.181935
0.9100,139.922389,-40.30450637,1240.199359
0.9150,139.9124435,-40.32765682,1240.216769
0.9200,139.9044082,-40.34783313,1240.234084
0.9250,139.8971557,-40.36578998,1240.251321
0.9300,139.8907452,-40.38032132,1240.268466
0.9350,139.8851551,-40.39163888,1240.285383
0.9400,139.8789152,-40.39961416,1240.302458
0.9450,139.871896,-40.40417389,1240.319668
0.9500,139.8634562,-40.40549751,1240.337032
0.9550,139.8538631,-40.40432772,1240.354384
0.9600,139.8416247,-40.39907021,1240.372118
0.9650,139.8265289,-40.3906198,1240.390185
0.9700,139.8074869,-40.37960363,1240.408621
0.9750,139.7835578,-40.36584717,1240.427535
0.9800,139.7550962,-40.34907601,1240.446839
0.9850,139.7217845,-40.32918592,1240.466502
0.9900,139.6839173,-40.30604081,1240.486374
0.9950,139.6415458,-40.28056948,1240.506308
1.0000,139.5941216,-40.2521704,1240.526408
1.0050,139.5416472,-40.22134756,1240.546696
1.0100,139.4850693,-40.18659513,1240.567039
1.0150,139.4247997,-40.1487467,1240.587413
1.0200,139.3604313,-40.10757359,1240.607972
1.0250,139.2935557,-40.06306818,1240.628515
1.0300,139.2236656,-40.01559785,1240.649251
1.0350,139.1510323,-39.96637315,1240.670081
1.0400,139.0744615,-39.91650787,1240.691263
1.0450,138.9938894,-39.86543144,1240.712962
1.0500,138.9108786,-39.81464098,1240.734881
1.0550,138.8252036,-39.76523229,1240.75712
1.0600,138.7374297,-39.71737386,1240.779648
1.0650,138.6485831,-39.67171038,1240.802348
1.0700,138.5584739,-39.62858896,1240.825372
1.0750,138.4683175,-39.58857437,1240.848545
1.0800,138.3802133,-39.5522853,1240.87172
1.0850,138.2943412,-39.52113614,1240.894783
1.0900,138.2126527,-39.49525053,1240.917591
1.0950,138.1358118,-39.47426678,1240.940111
1.1000,138.0641428,-39.46031246,1240.962217
1.1050,137.999646,-39.45328881,1240.983624
1.1100,137.9427853,-39.45303969,1241.004334
1.1150,137.8945503,-39.459821,1241.024256
1.1200,137.855509,-39.47412229,1241.043253
1.1250,137.8272885,-39.49556789,1241.061052
1.1300,137.8101575,-39.52340132,1241.077797
1.1350,137.8054097,-39.5579329,1241.093209
1.1400,137.8131728,-39.59921264,1241.107347
1.1450,137.8353615,-39.64687669,1241.119884
1.1500,137.8700949,-39.70020089,1241.131216
1.1550,137.9178076,-39.75965877,1241.141361
1.1600,137.9772136,-39.82342028,1241.150797
1.1650,138.0487223,-39.89270918,1241.159395
1.1700,138.1307383,-39.96535244,1241.167689
1.1750,138.2224358,-40.04330209,1241.175732
1.1800,138.3239934,-40.12388584,1241.183679
1.1850,138.4331383,-40.2073746,1241.191914
1.1900,138.5492843,-40.29320193,1241.200604
1.1950,138.6712879,-40.38039784,1241.20997
1.2000,138.7985505,-40.46848736,1241.220152
1.2050,138.9303288,-40.55705218,1241.231319
1.2100,139.0657694,-40.64558122,1241.243663
1.2150,139.2036509,-40.73332439,1241.257399
1.2200,139.3437533,-40.81961662,1241.272628
1.2250,139.4856325,-40.9041969,1241.28948
1.2300,139.6292766,-40.98673389,1241.307984
1.2350,139.773847,-41.06791228,1241.328306
1.2400,139.9204926,-41.14505309,1241.350292
1.2450,140.0680048,-41.21907141,1241.374102
1.2500,140.2166296,-41.28871896,1241.399862
1.2550,140.3668828,-41.35384652,1241.42748
1.2600,140.5172147,-41.41496901,1241.457233
1.2650,140.6695948,-41.47128956,1241.488829
1.2700,140.8243831,-41.52131765,1241.522342
1.2750,140.9811781,-41.56510158,1241.55798
1.2800,141.1403467,-41.6030876,1241.595543
1.2850,141.3031265,-41.63561255,1241.634929
1.2900,141.467741,-41.66183753,1241.676523
1.2950,141.6349327,-41.6815469,1241.720254
1.3000,141.8045325,-41.69442102,1241.766145
1.3050,141.9759999,-41.70089815,1241.814224
1.3100,142.1487517,-41.70112812,1241.864605
1.3150,142.3217826,-41.69530358,1241.917304
1.3200,142.4958038,-41.68280502,1241.972251
1.3250,142.6680867,-41.66434279,1242.029828
1.3300,142.8386494,-41.64043192,1242.089832
1.3350,143.006576,-41.61025963,1242.152624
1.3400,143.1722715,-41.57377527,1242.217868
1.3450,143.3353114,-41.53155986,1242.285703
1.3500,143.4945636,-41.48324895,1242.356226
1.3550,143.6500675,-41.42907775,1242.429394
1.3600,143.8005612,-41.3693494,1242.50537
1.3650,143.946969,-41.30457818,1242.583941
1.3700,144.0884536,-41.23409655,1242.665177
1.3750,144.2248762,-41.15993302,1242.748923
1.3800,144.3539646,-41.08217641,1242.835488
1.3850,144.4771047,-41.00009163,1242.924694
1.3900,144.5934834,-40.91567736,1243.016372
1.3950,144.7031519,-40.82790846,1243.110677
1.4000,144.8072814,-40.73716753,1243.207285
1.4050,144.9053266,-40.64504636,1243.306169
1.4100,144.9967001,-40.5521867,1243.407374
1.4150,145.0828015,-40.45956637,1243.510511
1.4200,145.1640308,-40.36731726,1243.615516
1.4250,145.2398336,-40.27552846,1243.722406
1.4300,145.3105174,-40.18533748,1243.830978
1.4350,145.3766786,-40.09773349,1243.941002
1.4400,145.4384346,-40.01226016,1244.052451
1.4450,145.4950896,-39.92841992,1244.16555
1.4500,145.5475697,-39.84742199,1244.280049
1.4550,145.5949847,-39.76862012,1244.39607
1.4600,145.6389196,-39.69360917,1244.513162
1.4650,145.6782271,-39.62074799,1244.631636
1.4700,145.7124261,-39.55158351,1244.751363
1.4750,145.7413884,-39.48453311,1244.8724
1.4800,145.7648448,-39.41998261,1244.994768
1.4850,145.7835106,-39.3570849,1245.118444
1.4900,145.795816,-39.29656318,1245.24356
1.4950,145.8014391,-39.23797993,1245.370213
1.5000,145.8009388,-39.1808696,1245.498323
1.5050,145.7923622,-39.12538098,1245.628069
1.5100,145.7755501,-39.07196704,1245.759491
1.5150,145.7499383,-39.01924309,1245.892758
1.5200,145.7155637,-38.96818573,1246.027636
1.5250,145.6725285,-38.91790187,1246.164212
1.5300,145.6203247,-38.86786054,1246.302526
1.5350,145.5581845,-38.81782416,1246.442703
1.5400,145.4859946,-38.76882684,1246.584645
1.5450,145.4049035,-38.71941037,1246.728181
1.5500,145.3157134,-38.67032998,1246.873053
1.5550,145.2176572,-38.62026622,1247.019477
1.5600,145.1121352,-38.56887724,1247.1672
1.5650,144.9975731,-38.51551215,1247.316546
1.5700,144.8759334,-38.45971235,1247.467178
1.5750,144.7474235,-38.40023504,1247.61921
1.5800,144.6122222,-38.33627781,1247.772764
1.5850,144.4703008,-38.26730237,1247.927851
1.5900,144.3240003,-38.19242575,1248.084239
1.5950,144.1722861,-38.11279713,1248.24198
1.6000,144.0148391,-38.02782513,1248.401369
1.6050,143.8528956,-37.93724618,1248.562128
1.6100,143.6871215,-37.84205256,1248.724209
1.6150,143.5170249,-37.74264457,1248.887597
1.6200,143.3410417,-37.64059865,1249.052455
1.6250,143.161795,-37.53512993,1249.218315
1.6300,142.9777446,-37.4272022,1249.385402
1.6350,142.7915228,-37.31787796,1249.552929
1.6400,142.6026451,-37.20608427,1249.721269
1.6450,142.4107789,-37.09306246,1249.890194
1.6500,142.2174799,-36.9777474,1250.059602
1.6550,142.0227611,-36.86110549,1250.229291
1.6600,141.8278551,-36.74270678,1250.39915
1.6650,141.6341213,-36.62132375,1250.568917
1.6700,141.4417845,-36.49717536,1250.738497
1.6750,141.251357,-36.36956871,1250.907858
1.6800,141.0649334,-36.23674276,1251.076667
1.6850,140.8823438,-36.10004521,1251.244851
1.6900,140.7044116,-35.95765762,1251.412475
1.6950,140.5316626,-35.80996238,1251.579319
1.7000,140.3632436,-35.65648421,1251.745629
1.7050,140.2001062,-35.49684832,1251.911168
1.7100,140.0431034,-35.32924189,1252.075832
1.7150,139.8915676,-35.15475937,1252.239581
1.7200,139.7471247,-34.97280006,1252.402152
1.7250,139.6094768,-34.78430699,1252.563478
1.7300,139.4787474,-34.58977978,1252.723456
1.7350,139.3538622,-34.38943495,1252.882259
1.7400,139.2348122,-34.1835909,1253.039856
1.7450,139.1213486,-33.97482112,1253.196046
1.7500,139.0120567,-33.76393336,1253.350999
1.7550,138.9069852,-33.55148677,1253.504686
1.7600,138.8047105,-33.3386152,1253.657314
1.7650,138.7058508,-33.12621346,1253.808682
1.7700,138.6092734,-32.91474073,1253.958948
1.7750,138.5162189,-32.70431333,1254.107806
1.7800,138.4252871,-32.49528546,1254.255516
1.7850,138.3371292,-32.28790205,1254.401919
1.7900,138.2515874,-32.08219577,1254.547032
1.7950,138.168811,-31.87776631,1254.690916
1.8000,138.0891401,-31.67418605,1254.83361
1.8050,138.0139787,-31.46997896,1254.97502
1.8100,137.9426912,-31.26450286,1255.115297
1.8150,137.8767159,-31.05813532,1255.254168
1.8200,137.8154706,-30.84964434,1255.391887
1.8250,137.7573183,-30.63979631,1255.528752
1.8300,137.702817,-30.42887794,1255.664654
1.8350,137.6523969,-30.215072,1255.799607
1.8400,137.6059173,-29.9991326,1255.933613
1.8450,137.5629878,-29.78132235,1256.066712
1.8500,137.5228584,-29.55962045,1256.1993
1.8550,137.4851616,-29.3360568,1256.33109
1.8600,137.449635,-29.10998793,1256.462252
1.8650,137.4178502,-28.88214902,1256.592288
1.8700,137.3879462,-28.65321717,1256.72163
1.8750,137.3593493,-28.42469885,1256.850183
1.8800,137.3301503,-28.19738949,1256.978274
1.8850,137.3010822,-27.97121151,1257.105754
1.8900,137.2703939,-27.74746154,1257.23297
1.8950,137.2383835,-27.52485784,1257.359947
1.9000,137.204603,-27.30412068,1257.486574
1.9050,137.1687678,-27.0854376,1257.612961
1.9100,137.129887,-26.86967707,1257.739087
1.9150,137.0882525,-26.65553027,1257.865166
1.9200,137.0447036,-26.44349781,1257.990888
1.9250,136.9985919,-26.23371002,1258.116405
1.9300,136.9498933,-26.02496204,1258.241914
1.9350,136.8982263,-25.818345,1258.367454
1.9400,136.8424628,-25.61378315,1258.493267
1.9450,136.783453,-25.41098727,1258.619168
1.9500,136.7198944,-25.21135095,1258.745233
1.9550,136.6514568,-25.01413252,1258.871655
1.9600,136.577504,-24.82032269,1258.998336
1.9650,136.4972265,-24.62975778,1259.125514
1.9700,136.4114724,-24.44251512,1259.252928
1.9750,136.3207684,-24.25840053,1259.380441
1.9800,136.2243599,-24.07926369,1259.507871
1.9850,136.123002,-23.90354865,1259.63519
1.9900,136.0164303,-23.73147551,1259.762421
1.9950,135.9053736,-23.564459,1259.889156
2.0000,135.7906586,-23.40156104,1260.015322
2.0050,135.6710834,-23.24317449,1260.141288
2.0100,135.5462635,-23.08972989,1260.267209
2.0150,135.415531,-22.94064733,1260.39342
2.0200,135.2787276,-22.79644563,1260.519767
2.0250,135.1363742,-22.65584727,1260.646408
2.0300,134.9884124,-22.51869203,1260.773397
2.0350,134.8354587,-22.38412101,1260.9007
2.0400,134.6774967,-22.25301585,1261.02814
2.0450,134.513539,-22.12396623,1261.156122
2.0500,134.3442587,-21.99730218,1261.28443
2.0550,134.169325,-21.87297466,1261.413153
2.0600,133.9882219,-21.74988137,1261.542604
2.0650,133.8007595,-21.62836979,1261.672706
2.0700,133.606811,-21.50722674,1261.803817
2.0750,133.4072724,-21.38587838,1261.935865
2.0800,133.2021031,-21.26505925,1262.068764
2.0850,132.9901129,-21.14378957,1262.202962
2.0900,132.7713387,-21.02137193,1262.338619
2.0950,132.5463048,-20.89757911,1262.475543
2.1000,132.3147191,-20.77285481,1262.613777
2.1050,132.0754494,-20.64712562,1262.753727
2.1100,131.8302414,-20.52137706,1262.894813
2.1150,131.5781674,-20.39430427,1263.037505
2.1200,131.3192704,-20.26644424,1263.181725
2.1250,131.0552756,-20.13708711,1263.327074
2.1300,130.7867924,-20.00588338,1263.473554
2.1350,130.5150649,-19.87218756,1263.620878
2.1400,130.2402591,-19.73435267,1263.769341
2.1450,129.962217,-19.59144967,1263.91915
2.1500,129.6822458,-19.44420904,1264.06994
2.1550,129.4016676,-19.29077067,1264.221707
2.1600,129.1206309,-19.13167722,1264.374395
2.1650,128.8371569,-18.96606207,1264.528717
2.1700,128.5520421,-18.79464821,1264.684308
2.1750,128.2672112,-18.61635069,1264.840819
2.1800,127.9816307,-18.43180068,1264.998414
2.1850,127.6945697,-18.24103581,1265.157346
2.1900,127.4057538,-18.04449087,1265.317593
2.1950,127.1151211,-17.84105251,1265.479397
2.2000,126.8230368,-17.63164383,1265.642595
2.2050,126.5287371,-17.41508618,1265.807721
2.2100,126.2322804,-17.19058712,1265.974997
2.2150,125.9337659,-16.9592695,1266.144199
2.2200,125.6323512,-16.71909598,1266.315986
2.2250,125.3275673,-16.47127505,1266.490393
2.2300,125.0204025,-16.2161969,1266.667149
2.2350,124.7102996,-15.95308165,1266.846651
2.2400,124.3968123,-15.68367049,1267.028881
2.2450,124.079131,-15.40745962,1267.214285
2.2500,123.7574297,-15.12443284,1267.402718
2.2550,123.4325542,-14.83486676,1267.593895
2.2600,123.1051792,-14.53879113,1267.787424
2.2650,122.7749525,-14.23668296,1267.983337
2.2700,122.4420506,-13.92843238,1268.181571
2.2750,122.105869,-13.61415649,1268.382307
2.2800,121.7677036,-13.29306404,1268.585284
2.2850,121.4276881,-12.96487946,1268.790461
2.2900,121.0860326,-12.63090591,1268.997442
2.2950,120.7426671,-12.29070683,1269.206351
2.3000,120.397349,-11.94516869,1269.417017
2.3050,120.0510555,-11.59515004,1269.628864
2.3100,119.7045065,-11.24117916,1269.841544
2.3150,119.3589251,-10.88337698,1270.054626
2.3200,119.0133959,-10.52310115,1270.268236
2.3250,118.6673185,-10.16190204,1270.482234
2.3300,118.3213283,-9.799881593,1270.696412
2.3350,117.973978,-9.438256159,1270.911006
2.3400,117.6250696,-9.077452703,1271.126118
2.3450,117.2746344,-8.719132471,1271.341547
2.3500,116.9223562,-8.362573662,1271.557536
2.3550,116.5682806,-8.009407516,1271.773843
2.3600,116.2122253,-7.65922132,1271.990567
2.3650,115.8540369,-7.312151615,1272.207857
2.3700,115.4940771,-6.969400853,1272.425395
2.3750,115.1315568,-6.631578921,1272.643371
2.3800,114.7664874,-6.297767004,1272.862004
2.3850,114.3990805,-5.968232473,1273.081248
2.3900,114.0304364,-5.642623031,1273.300654
2.3950,113.6585943,-5.322090752,1273.520744
2.4000,113.283579,-5.006031471,1273.741461
2.4050,112.906237,-4.695502089,1273.962227
2.4100,112.525313,-4.390048286,1274.183589
2.4150,112.1410775,-4.091369273,1274.405013
2.4200,111.7531628,-3.799585852,1274.626681
2.4250,111.361097,-3.514495775,1274.848853
2.4300,110.9633954,-3.238156235,1275.071689
2.4350,110.5590152,-2.971257796,1275.29566
2.4400,110.1478175,-2.714633874,1275.520578
2.4450,109.7296996,-2.468514489,1275.746467
2.4500,109.3036213,-2.233591394,1275.973554
2.4550,108.8691788,-2.010044673,1276.202077
2.4600,108.4275949,-1.797783285,1276.431605
2.4650,107.9792467,-1.596896408,1276.662099
2.4700,107.5234965,-1.40642558,1276.894094
2.4750,107.0594064,-1.226018725,1277.127941
2.4800,106.5892249,-1.053486402,1277.363185
2.4850,106.1134226,-0.8886304212,1277.599814
2.4900,105.6326384,-0.7307040254,1277.837671
2.4950,105.1471197,-0.5803862317,1278.076618
2.5000,104.6575617,-0.4363023778,1278.316653
2.5050,104.1630659,-0.2979621585,1278.558172
2.5100,103.6659178,-0.1638061033,1278.800459
2.5150,103.1679454,-0.03285718805,1279.043002
2.5200,102.6692823,0.09466073573,1279.28565
2.5250,102.1703385,0.2188575353,1279.528242
2.5300,101.6722068,0.3403954376,1279.7704
2.5350,101.1747706,0.460017574,1280.012281
2.5400,100.679467,0.578304202,1280.25327
2.5450,100.1873738,0.6953807174,1280.492929
2.5500,99.69911649,0.8118327464,1280.731197
2.5550,99.2151871,0.9281290445,1280.967875
2.5600,98.73648583,1.043834989,1281.202641
2.5650,98.26375148,1.159450901,1281.435192
2.5700,97.79589948,1.274166242,1281.665983
2.5750,97.33448863,1.388628747,1281.894386
2.5800,96.87888098,1.503113496,1282.120716
2.5850,96.4307526,1.616601671,1282.344006
2.5900,95.99042082,1.730941727,1282.564512
2.5950,95.55802151,1.846032479,1282.782145
2.6000,95.13541059,1.962396191,1282.996163
2.6050,94.72123248,2.080609667,1283.207318
2.6100,94.31554401,2.200210171,1283.415304
2.6150,93.91678138,2.321518657,1283.620772
2.6200,93.52559465,2.445000051,1283.823571
2.6250,93.14112382,2.571092317,1284.02412
2.6300,92.76321227,2.699106525,1284.222437
2.6350,92.39217133,2.830363019,1284.418608
2.6400,92.02903526,2.965035555,1284.612189
2.6450,91.67432451,3.103765115,1284.803092
2.6500,91.32851789,3.24541499,1284.99085
2.6550,90.99010102,3.390684893,1285.176225
2.6600,90.65956979,3.538312875,1285.358773
2.6650,90.33604396,3.688291654,1285.538937
2.6700,90.0194415,3.84048498,1285.716732
2.6750,89.70753978,3.994140407,1285.893059
2.6800,89.40000827,4.148171455,1286.067802
2.6850,89.09668646,4.302528723,1286.241021
2.6900,88.79633697,4.45591694,1286.413078
2.6950,88.49948402,4.60895126,1286.583888
2.7000,88.20606176,4.762535135,1286.753684
2.7050,87.91581245,4.916874693,1286.922556
2.7100,87.62871231,5.071832873,1287.090553
2.7150,87.34429848,5.227822715,1287.258123
2.7200,87.06199391,5.384113426,1287.425386
2.7250,86.78177925,5.540333057,1287.592103
2.7300,86.50383037,5.698456666,1287.758622
2.7350,86.22769214,5.857295851,1287.924701
2.7400,85.95357141,6.017315753,1288.090525
2.7450,85.68137296,6.177797737,1288.255949
2.7500,85.4101765,6.338651627,1288.421477
2.7550,85.13874969,6.499556597,1288.587642
2.7600,84.86648132,6.661253949,1288.754885
2.7650,84.59404938,6.823356978,1288.922709
2.7700,84.32187303,6.98655492,1289.091001
2.7750,84.04988225,7.151032743,1289.259904
2.7800,83.77941585,7.316171784,1289.428728
2.7850,83.50943418,7.481151457,1289.597605
2.7900,83.24020799,7.646535064,1289.766533
2.7950,82.97173914,7.812253306,1289.935438
2.8000,82.70418635,7.979161335,1290.104353
2.8050,82.43943822,8.145971697,1290.272009
2.8100,82.17663967,8.311789573,1290.438676
2.8150,81.91390562,8.476384229,1290.605276
2.8200,81.65219934,8.639425052,1290.771152
2.8250,81.39208058,8.802041018,1290.936266
2.8300,81.13239473,8.962452171,1291.10072
2.8350,80.87418889,9.121488965,1291.264081
2.8400,80.61758217,9.277992291,1291.426004
2.8450,80.36290929,9.431680191,1291.586206
2.8500,80.10948839,9.581588467,1291.744801
2.8550,79.85649116,9.72727816,1291.902088
2.8600,79.6043548,9.869250505,1292.05802
2.8650,79.35228917,10.00734515,1292.213127
2.8700,79.10022256,10.14127343,1292.36724
2.8750,78.84770266,10.27037124,1292.520534
2.8800,78.59542231,10.39482592,1292.672663
2.8850,78.3419037,10.51592579,1292.824816
2.8900,78.08757167,10.63299249,1292.97642
2.8950,77.83374839,10.74734753,1293.127083
2.9000,77.57845744,10.85815014,1293.277593
2.9050,77.32397673,10.96638355,1293.426878
2.9100,77.07086088,11.07318295,1293.574826
2.9150,76.81989691,11.17869118,1293.720912
2.9200,76.57177645,11.2828958,1293.864765
2.9250,76.32836245,11.38539377,1294.005272
2.9300,76.08964168,11.48547301,1294.14218
2.9350,75.85632065,11.58234024,1294.275021
2.9400,75.62674098,11.67457112,1294.404334
2.9450,75.40127265,11.76192854,1294.529797
2.9500,75.1788879,11.84481562,1294.652099
2.9550,74.96118362,11.92311214,1294.770402
2.9600,74.74669441,11.99827214,1294.885806
2.9650,74.53603886,12.06926192,1294.99778
2.9700,74.33011248,12.13588909,1295.105696
2.9750,74.12840279,12.19781648,1295.209728
2.9800,73.9323386,12.25565424,1295.309279
2.9850,73.74090573,12.30975897,1295.404943
2.9900,73.55465452,12.36099273,1295.496732
2.9950,73.37312434,12.40904737,1295.584661
3.0000,73.19574567,12.45299116,1295.66891
3.0050,73.02273551,12.49305637,1295.749471
3.0100,72.85316014,12.52950458,1295.826787
3.0150,72.68802785,12.56308663,1295.900335
3.0200,72.52774139,12.59468307,1295.970089
3.0250,72.37297983,12.62546233,1296.035806
3.0300,72.22503277,12.65475984,1296.096595
3.0350,72.08508125,12.68288691,1296.151924
3.0400,71.95133618,12.70788547,1296.202336
3.0450,71.82327277,12.72942862,1296.248171
3.0500,71.70078291,12.74719562,1296.289563
3.0550,71.58357217,12.7610238,1296.326715
3.0600,71.47127715,12.76930263,1296.359516
3.0650,71.36363781,12.77243323,1296.38849
3.0700,71.25881866,12.76906824,1296.414607
3.0750,71.15634243,12.75922193,1296.438277
3.0800,71.05343118,12.74139351,1296.460846
3.0850,70.95029246,12.71699908,1296.482711
3.0900,70.84640341,12.68551503,1296.504222
3.0950,70.74072014,12.64864499,1296.526537
3.1000,70.63206874,12.60617642,1296.550596
3.1050,70.51907138,12.55903273,1296.577472
3.1100,70.40045509,12.50914687,1296.608358
3.1150,70.27789959,12.45875259,1296.642855
3.1200,70.15124934,12.40926302,1296.681456
3.1250,70.02036805,12.3611823,1296.724164
3.1300,69.88479351,12.31723595,1296.771994
3.1350,69.74418438,12.27828887,1296.825235
3.1400,69.59872201,12.24615665,1296.884151
3.1450,69.44854468,12.22242782,1296.948936
3.1500,69.29528556,12.20705048,1297.018467
3.1550,69.13977667,12.20115118,1297.092359
3.1600,68.98236022,12.20511905,1297.170227
3.1650,68.82449749,12.21941841,1297.251083
3.1700,68.66863296,12.24457566,1297.333634
3.1750,68.51612887,12.28061629,1297.416899
3.1800,68.36679931,12.3269257,1297.500776
3.1850,68.22106776,12.38232099,1297.584676
3.1900,68.07977772,12.44660148,1297.668117
3.1950,67.94236028,12.51902315,1297.751146
3.2000,67.81032255,12.59931895,1297.832899
3.2050,67.68406923,12.68703761,1297.91289
3.2100,67.56325397,12.78116894,1297.991169
3.2150,67.4499488,12.88063171,1298.06625
3.2200,67.34261069,12.98567347,1298.138977
3.2250,67.24097059,13.09496736,1298.209301
3.2300,67.14480677,13.20994978,1298.277636
3.2350,67.05505579,13.32977354,1298.34304
3.2400,66.97229545,13.45547749,1298.405312
3.2450,66.89683599,13.58593885,1298.464019
3.2500,66.82821486,13.72136029,1298.51957
3.2550,66.7664424,13.86206293,1298.571984
3.2600,66.71218634,14.00570301,1298.620345
3.2650,66.66491829,14.15339827,1298.665153
3.2700,66.62349044,14.3046334,1298.707052
3.2750,66.58853213,14.45942034,1298.745634
3.2800,66.55856978,14.61725989,1298.7817
3.2850,66.5344851,14.77716373,1298.814415
3.2900,66.51468504,14.93858061,1298.844547
3.2950,66.49926558,15.10164764,1298.872064
3.3000,66.4870654,15.26553728,1298.897424
3.3050,66.47758065,15.43020295,1298.92083
3.3100,66.47092926,15.59641466,1298.942449
3.3150,66.46526215,15.7634632,1298.963349
3.3200,66.45967668,15.93138759,1298.984064
3.3250,66.45227129,16.09975287,1299.005911
3.3300,66.44054759,16.26885105,1299.030641
3.3350,66.42322185,16.43922993,1299.05924
3.3400,66.39939725,16.61182062,1299.09254
3.3450,66.36874537,16.78745933,1299.131006
3.3500,66.32933927,16.96642851,1299.175965
3.3550,66.28142861,17.14850545,1299.227256
3.3600,66.22278176,17.33444522,1299.286787
3.3650,66.15134317,17.52322929,1299.355541
3.3700,66.06646986,17.71537161,1299.434136
3.3750,65.96669789,17.91026958,1299.523476
3.3800,65.85227393,18.10867334,1299.62366
3.3850,65.7214977,18.31052525,1299.736022
3.3900,65.57265669,18.51551567,1299.861657
3.3950,65.40601582,18.72340341,1300.00053
3.4000,65.22075675,18.9333624,1300.152826
3.4050,65.01744104,19.14649778,1300.318561
3.4100,64.79688289,19.3626656,1300.497316
3.4150,64.55800859,19.58076777,1300.689534
3.4200,64.30169108,19.80013398,1300.894488
3.4250,64.02798988,20.02102861,1301.112309
3.4300,63.73817613,20.24292461,1301.341978
3.4350,63.43317474,20.46502586,1301.582672
3.4400,63.11470889,20.68662874,1301.833066
3.4450,62.78367721,20.90690791,1302.092251
3.4500,62.44176738,21.12722446,1302.359516
3.4550,62.09007223,21.34632183,1302.633951
3.4600,61.73003819,21.56440423,1302.914645
3.4650,61.36189652,21.77984998,1303.201203
3.4700,60.98589022,21.9918689,1303.493103
3.4750,60.60333809,22.2004174,1303.789435
3.4800,60.21626275,22.40555902,1304.08887
3.4850,59.82707638,22.60629653,1304.389389
3.4900,59.43646643,22.80151337,1304.690219
3.4950,59.04537695,22.98957746,1304.990225
3.5000,58.65382561,23.16969195,1305.289037
3.5050,58.26200218,23.34082323,1305.586222
3.5100,57.87033786,23.50121436,1305.880915
3.5150,57.47823181,23.65067902,1306.17339
3.5200,57.08645424,23.78728285,1306.462508
3.5250,56.69578968,23.91060097,1306.747395
3.5300,56.30692075,24.0190388,1307.027107
3.5350,55.9182233,24.1118944,1307.302616
3.5400,55.53051961,24.18874564,1307.5732
3.5450,55.14306431,24.24949268,1307.839181
3.5500,54.75554476,24.29381967,1308.100532
3.5550,54.36809373,24.32150816,1308.357034
3.5600,53.98099105,24.33234302,1308.608365
3.5650,53.59427805,24.32646945,1308.85444
3.5700,53.207402,24.30352682,1309.095572
3.5750,52.82070028,24.26434123,1309.331687
3.5800,52.43396936,24.20922797,1309.562908
3.5850,52.04585237,24.1384464,1309.790354
3.5900,51.65696269,24.0524893,1310.013761
3.5950,51.26682325,23.95144568,1310.233607
3.6000,50.87685981,23.83702368,1310.449471
3.6050,50.48579846,23.70940032,1310.662475
3.6100,50.09358359,23.56951656,1310.873039
3.6150,49.70109476,23.41855042,1311.080908
3.6200,49.30861991,23.25712177,1311.286134
3.6250,48.91668957,23.08644328,1311.488595
3.6300,48.52541631,22.90689367,1311.6883
3.6350,48.13422977,22.71977969,1311.886172
3.6400,47.74353293,22.52618026,1312.082442
3.6450,47.35258331,22.32713228,1312.277978
3.6500,46.96341631,22.12300787,1312.471471
3.6550,46.57466682,21.91559942,1312.664458
3.6600,46.18636368,21.70603,1312.85738
3.6650,45.79977094,21.49507168,1313.049527
3.6700,45.4147121,21.28493326,1313.241785
3.6750,45.03159912,21.07562959,1313.433967
3.6800,44.65046836,20.86888218,1313.626653
3.6850,44.27236757,20.66507672,1313.819255
3.6900,43.89767919,20.46654673,1314.012244
3.6950,43.52616483,20.27257622,1314.205471
3.7000,43.15869063,20.0852037,1314.399049
3.7050,42.79523724,19.90560881,1314.593359
3.7100,42.43602613,19.73380566,1314.788311
3.7150,42.0815175,19.56979533,1314.983493
3.7200,41.73205313,19.41450249,1315.178874
3.7250,41.38732986,19.26939115,1315.375185
3.7300,41.04841707,19.13398647,1315.571495
3.7350,40.71578535,19.00871392,1315.767499
3.7400,40.3895618,18.89345743,1315.963075
3.7450,40.06970221,18.78901518,1316.158512
3.7500,39.75641859,18.69402216,1316.353344
3.7550,39.45009336,18.60883136,1316.547218
3.7600,39.15030767,18.53276314,1316.740226
3.7650,38.85854668,18.46594344,1316.931138
3.7700,38.57488831,18.4092514,1317.120043
3.7750,38.29903035,18.36134007,1317.306801
3.7800,38.03161467,18.32151426,1317.490764
3.7850,37.77152434,18.29034273,1317.673015
3.7900,37.51926044,18.26767169,1317.853023
3.7950,37.27457089,18.25368394,1318.030969
3.8000,37.03866654,18.24866776,1318.206025
3.8050,36.81248349,18.25095291,1318.376976
3.8100,36.59662094,18.2615009,1318.543547
3.8150,36.39091938,18.27901255,1318.705508
3.8200,36.19608231,18.30383455,1318.862402
3.8250,36.01300281,18.33586703,1319.013464
3.8300,35.84220562,18.37450523,1319.158095
3.8350,35.6839665,18.41968795,1319.295932
3.8400,35.53874133,18.47118033,1319.426623
3.8450,35.40597645,18.52803094,1319.550247
3.8500,35.28757817,18.59077287,1319.665453
3.8550,35.1836298,18.65840498,1319.771796
3.8600,35.09348976,18.73060888,1319.86983
3.8650,35.01736871,18.80698021,1319.95929
3.8700,34.95656671,18.88750742,1320.039002
3.8750,34.91008169,18.97222541,1320.109822
3.8800,34.87827829,19.05922753,1320.170923
3.8850,34.86184348,19.14919212,1320.221869
3.8900,34.86092719,19.2410329,1320.262145
3.8950,34.87482729,19.33499025,1320.292337
3.9000,34.90380758,19.43046116,1320.312003
3.9050,34.94825709,19.5270641,1320.320584
3.9100,35.00830471,19.62387475,1320.317783
3.9150,35.08346801,19.72108966,1320.303888
3.9200,35.1732145,19.81857307,1320.279333
3.9250,35.27711184,19.91561906,1320.244368
3.9300,35.39517187,20.0122051,1320.198898
3.9350,35.52687927,20.10794624,1320.14329
3.9400,35.67287957,20.20308932,1320.076991
3.9450,35.83291556,20.29740423,1320.000193
3.9500,36.00526158,20.39135187,1319.914328
3.9550,36.19042087,20.48316623,1319.818672
3.9600,36.38819591,20.57323657,1319.713381
3.9650,36.59715579,20.66166774,1319.599736
3.9700,36.81725686,20.74712435,1319.477411
3.9750,37.04777286,20.83098463,1319.347433
3.9800,37.28760457,20.91277396,1319.21059
3.9850,37.53618152,20.99311527,1319.067293
3.9900,37.79326869,21.07142291,1318.917608
3.9950,38.05836318,21.14932375,1318.762541
4.0000,38.33051234,21.22575912,1318.602449
4.0050,38.6082778,21.29947153,1318.438138
4.0100,38.89094068,21.37065259,1318.270188
4.0150,39.1768947,21.43894849,1318.099855
4.0200,39.46547532,21.50520647,1317.927903
4.0250,39.75629866,21.56796036,1317.754186
4.0300,40.04771153,21.62821399,1317.580232
4.0350,40.33953094,21.68552303,1317.406129
4.0400,40.63086895,21.73997745,1317.23247
4.0450,40.92186029,21.79156487,1317.059225
4.0500,41.21210772,21.8401763,1316.886478
4.0550,41.50138519,21.88632161,1316.714616
4.0600,41.7903478,21.92984684,1316.543174
4.0650,42.07818631,21.97023987,1316.372442
4.0700,42.36516346,22.00753795,1316.2023
4.0750,42.65145428,22.04197263,1316.032532
4.0800,42.93587127,22.07374779,1315.863997
4.0850,43.21870446,22.10213979,1315.69633
4.0900,43.50153109,22.12745983,1315.528366
4.0950,43.78412171,22.14980544,1315.360395
4.1000,44.06702863,22.16917661,1315.191847
4.1050,44.35006798,22.18631679,1315.023115
4.1100,44.6337465,22.20085489,1314.853691
4.1150,44.91917389,22.21353504,1314.682846
4.1200,45.20636093,22.22355768,1314.510387
4.1250,45.49459274,22.23135814,1314.336917
4.1300,45.78298803,22.23726133,1314.163134
4.1350,46.07255712,22.24029314,1313.988018
4.1400,46.36173462,22.24026727,1313.812536
4.1450,46.65167062,22.23748379,1313.63601
4.1500,46.9403317,22.23016051,1313.459287
4.1550,47.22731744,22.21844095,1313.282707
4.1600,47.51229017,22.20264865,1313.106413
4.1650,47.79505928,22.18110629,1312.93004
4.1700,48.07527068,22.15480311,1312.75412
4.1750,48.35278021,22.12239761,1312.57835
4.1800,48.62860985,22.08421093,1312.401943
4.1850,48.90186309,22.03886931,1312.225211
4.1900,49.17335555,21.98732363,1312.047777
4.1950,49.44359878,21.9284675,1311.868901
4.2000,49.71147731,21.86209528,1311.689396
4.2050,49.97763025,21.78914016,1311.509025
4.2100,50.24163865,21.70938301,1311.327991
4.2150,50.50238296,21.62187736,1311.146871
4.2200,50.76058772,21.52664969,1310.965081
4.2250,51.01639876,21.4242281,1310.782792
4.2300,51.26929222,21.3150712,1310.600572
4.2350,51.52000144,21.19840385,1310.417552
4.2400,51.7679183,21.07383465,1310.234011
4.2450,52.01257867,20.94154991,1310.05036
4.2500,52.25413492,20.80117305,1309.866443
4.2550,52.49233398,20.65444622,1309.682825
4.2600,52.72687224,20.50081562,1309.499505
4.2650,52.95732594,20.34078168,1309.316968
4.2700,53.1836754,20.17504572,1309.135346
4.2750,53.4060677,20.00313887,1308.954342
4.2800,53.62510267,19.82557896,1308.773881
4.2850,53.83889439,19.64200616,1308.595212
4.2900,54.04732767,19.45249136,1308.418432
4.2950,54.24999473,19.2567841,1308.243696
4.3000,54.44717486,19.05599318,1308.071218
4.3050,54.63939264,18.85048893,1307.900762
4.3100,54.82724916,18.63992249,1307.731746
4.3150,55.01104142,18.42612087,1307.564562
4.3200,55.19114959,18.2082929,1307.398726
4.3250,55.36889751,17.9885159,1307.233811
4.3300,55.54407163,17.76736768,1307.070169
4.3350,55.71762649,17.54470977,1306.907154
4.3400,55.88944323,17.32204767,1306.745313
4.3450,56.05968473,17.09890206,1306.584397
4.3500,56.22821037,16.87640615,1306.424806
4.3550,56.39461514,16.65429047,1306.266847
4.3600,56.55842177,16.43279692,1306.110874
4.3650,56.72020138,16.21202522,1305.956667
4.3700,56.88021508,15.99191026,1305.804047
4.3750,57.03810428,15.77369708,1305.653684
4.3800,57.1949679,15.55727404,1305.504827
4.3850,57.35095167,15.34312254,1305.357294
4.3900,57.50600438,15.13221782,1305.211468
4.3950,57.66155928,14.92480579,1305.066425
4.4000,57.81632014,14.72013042,1304.922879
4.4050,57.97052272,14.5178585,1304.780558
4.4100,58.12494756,14.31744839,1304.6389
4.4150,58.2785929,14.1191722,1304.498633
4.4200,58.43272306,13.92311157,1304.358878
4.4250,58.58707299,13.72813943,1304.219514
4.4300,58.74344624,13.53581615,1304.079684
4.4350,58.90149628,13.34676028,1303.939902
4.4400,59.06321777,13.16029797,1303.798622
4.4450,59.22797763,12.97664847,1303.656281
4.4500,59.39767366,12.79722645,1303.512016
4.4550,59.57257822,12.62230668,1303.365732
4.4600,59.75418823,12.45074146,1303.216216
4.4650,59.9428377,12.28354158,1303.063521
4.4700,60.13757924,12.11906545,1302.907813
4.4750,60.33836559,11.95647238,1302.748873
4.4800,60.54477639,11.79638813,1302.587246
4.4850,60.75708208,11.63861177,1302.422682
4.4900,60.97407652,11.48214087,1302.255671
4.4950,61.19689345,11.3271517,1302.085588
4.5000,61.42559311,11.1730279,1301.912181
4.5050,61.6591319,11.01926161,1301.736068
4.5100,61.89801946,10.86681745,1301.557025
4.5150,62.1434827,10.71569361,1301.374399
4.5200,62.3956821,10.56733904,1301.188529
4.5250,62.65515093,10.42050106,1300.99872
4.5300,62.9218331,10.27425694,1300.804812
4.5350,63.19514096,10.1292663,1300.60753
4.5400,63.47437231,9.984916812,1300.407168
4.5450,63.7608385,9.840923276,1300.203011
4.5500,64.0534166,9.696997921,1299.99573
4.5550,64.35239358,9.553986942,1299.785311
4.5600,64.65818519,9.411983863,1299.571639
4.5650,64.97061054,9.270816599,1299.354783
4.5700,65.28917773,9.130429399,1299.135111
4.5750,65.61339619,8.991103575,1298.913022
4.5800,65.94315782,8.853039113,1298.68856
4.5850,66.27858708,8.717039892,1298.461928
4.5900,66.61932042,8.583846023,1298.233511
4.5950,66.96537563,8.453561515,1298.003306
4.6000,67.31671708,8.32574838,1297.771123
4.6050,67.67345081,8.199696459,1297.536785
4.6100,68.03440978,8.075887254,1297.301115
4.6150,68.39971364,7.953857194,1297.063936
4.6200,68.76909001,7.833951165,1296.825473
4.6250,69.14137449,7.714482756,1296.586227
4.6300,69.51829959,7.595815537,1296.345305
4.6350,69.89858126,7.477680947,1296.103423
4.6400,70.2841244,7.360285631,1295.859655
4.6450,70.67394353,7.244356256,1295.614751
4.6500,71.06827932,7.129759752,1295.368759
4.6550,71.46723815,7.017336831,1295.12176
4.6600,71.87088475,6.906408185,1294.873682
4.6650,72.27912388,6.798187416,1294.624779
4.6700,72.69152298,6.692515626,1294.375199
4.6750,73.10868992,6.588408191,1294.124399
4.6800,73.52991788,6.485487212,1293.872632
4.6850,73.95545625,6.38248267,1293.619538
4.6900,74.38327287,6.278927815,1293.366082
4.6950,74.81393575,6.174924778,1293.111877
4.7000,75.24806762,6.070880523,1292.856645
4.7050,75.68611798,5.968153153,1292.600359
4.7100,76.12695655,5.866467404,1292.343552
4.7150,76.57126565,5.765445263,1292.085943
4.7200,77.01930358,5.666079108,1291.827487
4.7250,77.47055358,5.56789973,1291.568434
4.7300,77.92375203,5.470293642,1291.309287
4.7350,78.37942721,5.373006897,1291.049643
4.7400,78.83635983,5.276500766,1290.790236
4.7450,79.29573025,5.179784644,1290.530286
4.7500,79.75661147,5.082439728,1290.27009
4.7550,80.21814814,4.982482721,1290.009709
4.7600,80.6796307,4.882047142,1289.749935
4.7650,81.14095321,4.78089487,1289.490721
4.7700,81.60270112,4.679197003,1289.231735
4.7750,82.06565631,4.577393278,1288.972742
4.7800,82.52858798,4.475263131,1288.714436
4.7850,82.9911359,4.372426223,1288.456738
4.7900,83.45361129,4.268892721,1288.199486
4.7950,83.91505726,4.165371518,1287.943218
4.8000,84.3753879,4.062009326,1287.688104
4.8050,84.83497971,3.958850504,1287.433851
4.8100,85.29390884,3.853812656,1287.179918
4.8150,85.75199298,3.746819074,1286.926343
4.8200,86.2100711,3.636490854,1286.67236
4.8250,86.66667151,3.524391907,1286.419056
4.8300,87.12248606,3.411277478,1286.166249
4.8350,87.57868151,3.2977692,1285.913497
4.8400,88.03584678,3.184780049,1285.660844
4.8450,88.49354123,3.072572437,1285.408464
4.8500,88.95359591,2.961637915,1285.155616
4.8550,89.41403918,2.850541779,1284.902984
4.8600,89.87444549,2.739646496,1284.650758
4.8650,90.33433654,2.629651837,1284.399265
4.8700,90.79351701,2.518997368,1284.148165
4.8750,91.25148118,2.407682767,1283.897574
4.8800,91.70835066,2.294983538,1283.647187
4.8850,92.1643837,2.18069221,1283.396897
4.8900,92.62012152,2.063710583,1283.146199
4.8950,93.07585744,1.944276344,1282.89511
4.9000,93.53195193,1.822672633,1282.643762
4.9050,93.98951035,1.700298918,1282.392087
4.9100,94.44898797,1.57787659,1282.140253
4.9150,94.9112521,1.455919733,1281.888023
4.9200,95.37458046,1.334260435,1281.636304
4.9250,95.83977684,1.213233376,1281.3847
4.9300,96.3047124,1.091994384,1281.133782
4.9350,96.7692543,0.970755471,1280.883567
4.9400,97.23036378,0.8481740377,1280.634903
4.9450,97.6884171,0.7237468279,1280.387421
4.9500,98.14224651,0.5963022842,1280.141201
4.9550,98.59182055,0.4658967459,1279.89619
4.9600,99.03577016,0.3340075146,1279.653132
4.9650,99.47366341,0.1998375251,1279.412049
4.9700,99.90629254,0.06385469989,1279.172635
4.9750,100.3338888,-0.07291722875,1278.935091
4.9800,100.7567482,-0.2093367347,1278.699494
4.9850,101.174108,-0.3429047665,1278.466691
4.9900,101.5846458,-0.474174443,1278.237115
4.9950,101.9866079,-0.6033148672,1278.011555
5.0000,102.380052,-0.7299690536,1277.789972
5.0050,102.7643374,-0.854201681,1277.572644
5.0100,103.1404636,-0.9749132018,1277.359262
5.0150,103.5078895,-1.091070413,1277.150146
5.0200,103.8653777,-1.202745088,1276.945793
5.0250,104.2119821,-1.309808642,1276.746426
5.0300,104.5488632,-1.412277763,1276.551559
5.0350,104.8769581,-1.509880307,1276.360735
5.0400,105.1974127,-1.602813038,1276.17348
5.0450,105.509037,-1.69041671,1275.990512
5.0500,105.8124513,-1.772804044,1275.811467
5.0550,106.1081864,-1.848467736,1275.636417
5.0600,106.3968501,-1.919716158,1275.464565
5.0650,106.6788446,-1.986233008,1275.295774
5.0700,106.9530993,-2.048298036,1275.130385
5.0750,107.2190645,-2.105282534,1274.968551
5.0800,107.4761503,-2.157793429,1274.810027
5.0850,107.7242618,-2.205439197,1274.654822
5.0900,107.9647083,-2.247087709,1274.502592
5.0950,108.1970906,-2.283105938,1274.353401
5.1000,108.423323,-2.313585744,1274.206434
5.1050,108.645456,-2.339489669,1274.060906
5.1100,108.8633524,-2.359478538,1273.91725
5.1150,109.0785903,-2.37420904,1273.774919
5.1200,109.2899715,-2.384467625,1273.634265
5.1250,109.4980089,-2.391089785,1273.495221
5.1300,109.7037199,-2.394201598,1273.357516
5.1350,109.9067722,-2.392916188,1273.221465
5.1400,110.1084641,-2.386917256,1273.086803
5.1450,110.3096896,-2.37431066,1272.953648
5.1500,110.5089738,-2.353805795,1272.822971
5.1550,110.7098691,-2.325420567,1272.693601
5.1600,110.9135847,-2.28890485,1272.565186
5.1650,111.122825,-2.243467168,1272.437024
5.1700,111.339714,-2.188267767,1272.308593
5.1750,111.5647927,-2.123104361,1272.179708
5.1800,111.7977324,-2.047153931,1272.050596
5.1850,112.0400102,-1.960824665,1271.92053
5.1900,112.2919911,-1.862852134,1271.789553
5.1950,112.5534869,-1.753835621,1271.657569
5.2000,112.8235446,-1.635232305,1271.524391
5.2050,113.1003104,-1.507641742,1271.39043
5.2100,113.3837938,-1.372063887,1271.255322
5.2150,113.6737177,-1.230310729,1271.118814
5.2200,113.9706309,-1.082299165,1270.98079
5.2250,114.273542,-0.9284793715,1270.841557
5.2300,114.5832499,-0.7701329236,1270.70081
5.2350,114.8983656,-0.6062245042,1270.559309
5.2400,115.2206992,-0.4361365916,1270.41686
5.2450,115.549255,-0.2610038626,1270.273746
5.2500,115.8843843,-0.07979987602,1270.130278
5.2550,116.2251805,0.1065116149,1269.98673
5.2600,116.5714553,0.2961638728,1269.842932
5.2650,116.9222754,0.4889975048,1269.699225
5.2700,117.2754571,0.6837309429,1269.556214
5.2750,117.6299909,0.878729284,1269.413679
5.2800,117.9846749,1.072825878,1269.271815
5.2850,118.3383522,1.263949461,1269.13036
5.2900,118.6929705,1.450732391,1268.988383
5.2950,119.0488603,1.632875805,1268.84543
5.3000,119.4048875,1.810053536,1268.7018
5.3050,119.7605487,1.982632912,1268.557645
5.3100,120.1138813,2.149701209,1268.413348
5.3150,120.4651883,2.3113597,1268.26877
5.3200,120.8144146,2.466552097,1268.123555
5.3250,121.1634651,2.617625511,1267.97755
5.3300,121.5104668,2.764539688,1267.831063
5.3350,121.8541531,2.90817629,1267.684527
5.3400,122.1930931,3.046993179,1267.537926
5.3450,122.527121,3.182613181,1267.391465
5.3500,122.8543784,3.313061134,1267.245152
5.3550,123.1744779,3.437641415,1267.098914
5.3600,123.4848698,3.557770933,1266.953686
5.3650,123.7841845,3.672314896,1266.809533
5.3700,124.0715333,3.782250097,1266.666733
5.3750,124.3487269,3.887960045,1266.52493
5.3800,124.6163613,3.990677003,1266.384318
5.3850,124.8755897,4.090270378,1266.244653
5.3900,125.1254781,4.187533209,1266.106384
5.3950,125.3656611,4.283157915,1265.969739
5.4000,125.5959254,4.378273779,1265.834957
5.4050,125.8158859,4.474184647,1265.702529
5.4100,126.0270164,4.572824084,1265.572572
5.4150,126.2301844,4.67434676,1265.444969
5.4200,126.4271164,4.781422234,1265.320127
5.4250,126.620565,4.895021038,1265.197511
5.4300,126.8110048,5.017081929,1265.077503
5.4350,126.9995527,5.146141175,1264.959454
5.4400,127.1871026,5.282601128,1264.843146
5.4450,127.3738275,5.424479305,1264.728072
5.4500,127.5616042,5.571111752,1264.613448
5.4550,127.7485539,5.722114993,1264.499757
5.4600,127.9356064,5.876067631,1264.386366
5.4650,128.1214814,6.033099956,1264.273625
5.4700,128.3062563,6.191811308,1264.161277
5.4750,128.4908782,6.35192543,1264.049142
5.4800,128.6763994,6.512296072,1263.936723
5.4850,128.8634148,6.67271409,1263.82397
5.4900,129.0527819,6.832195404,1263.710451
5.4950,129.2453841,6.99079432,1263.595913
5.5000,129.4438816,7.149924247,1263.480029
5.5050,129.6499935,7.309345442,1263.362358
5.5100,129.8652178,7.469342356,1263.24257
5.5150,130.0886204,7.630985442,1263.121098
5.5200,130.322317,7.79379088,1262.997233
5.5250,130.567748,7.957196217,1262.870531
5.5300,130.8247117,8.121239111,1262.740957
5.5350,131.0952981,8.282877963,1262.607398
5.5400,131.3778489,8.442413531,1262.470381
5.5450,131.6736446,8.598697116,1262.329393
5.5500,131.9813414,8.750163303,1262.184391
5.5550,132.3024692,8.89555082,1262.035002
5.5600,132.635568,9.034259755,1261.881624
5.5650,132.9805522,9.166276885,1261.724357
5.5700,133.3363268,9.291459358,1261.56353
5.5750,133.7022263,9.4094904,1261.399355
5.5800,134.076543,9.520404202,1261.232274
5.5850,134.4591306,9.624509567,1261.062458
5.5900,134.8472057,9.723709302,1260.890941
5.5950,135.238854,9.81872033,1260.718339
5.6000,135.633532,9.909843247,1260.544781
5.6050,136.0294229,9.997685101,1260.370858
5.6100,136.4279177,10.08185812,1260.196087
5.6150,136.8276929,10.16259031,1260.020772
5.6200,137.2276654,10.24183052,1259.845589
5.6250,137.6260664,10.31807901,1259.670591
5.6300,138.0231248,10.39272909,1259.495998
5.6350,138.4184057,10.46547767,1259.32184
5.6400,138.8119459,10.53929892,1259.14874
5.6450,139.2032409,10.61428783,1258.976644
5.6500,139.5934248,10.69283612,1258.805823
5.6550,139.9809189,10.77567324,1258.636477
5.6600,140.3667418,10.86354955,1258.468515
5.6650,140.7500509,10.95805253,1258.302351
5.6700,141.1312889,11.05834424,1258.137617
5.6750,141.5068699,11.16477336,1257.974974
5.6800,141.8763903,11.27568803,1257.814111
5.6850,142.2384708,11.39203311,1257.655514
5.6900,142.5931894,11.51175984,1257.498744
5.6950,142.9400676,11.63420856,1257.343874
5.7000,143.2786209,11.75838399,1257.19089
5.7050,143.6082597,11.88514754,1257.040129
5.7100,143.9289631,12.01259061,1256.891152
5.7150,144.2395792,12.14160679,1256.744373
5.7200,144.5401378,12.27252655,1256.599793
5.7250,144.8299287,12.40542192,1256.457623
5.7300,145.1097842,12.53979886,1256.317601
5.7350,145.3798094,12.67660558,1256.179971
5.7400,145.6404122,12.81693896,1256.044974
5.7450,145.8933074,12.96086644,1255.912342
5.7500,146.1407671,13.10839979,1255.781727
5.7550,146.3855288,13.26129205,1255.652992
5.7600,146.6283783,13.42031486,1255.526198
5.7650,146.8718231,13.58467911,1255.400688
5.7700,147.1171132,13.7556963,1255.276539
5.7750,147.3658757,13.93278742,1255.153294
5.7800,147.6200553,14.11575712,1255.030539
5.7850,147.8797609,14.30501559,1254.908313
5.7900,148.1452962,14.49946389,1254.786311
5.7950,148.4167244,14.69861937,1254.664385
5.8000,148.6923526,14.9011264,1254.542472
5.8050,148.9716335,15.10698063,1254.420686
5.8100,149.2522881,15.31517171,1254.299276
5.8150,149.5367239,15.52472197,1254.177577
5.8200,149.822381,15.73517672,1254.056099
5.8250,150.1083567,15.94756478,1253.93524
5.8300,150.3950232,16.16147982,1253.814987
5.8350,150.6816383,16.3784423,1253.695939
5.8400,150.9682735,16.59715871,1253.577808
5.8450,151.2542357,16.81844842,1253.461052
5.8500,151.5398766,17.04271739,1253.345762
5.8550,151.8251367,17.2702544,1253.231932
5.8600,152.1113412,17.50126125,1253.119452
5.8650,152.397937,17.73513707,1253.00837
5.8700,152.6866867,17.97175116,1252.898322
5.8750,152.9768404,18.21190597,1252.789757
5.8800,153.2699813,18.45490143,1252.682222
5.8850,153.5661117,18.70010606,1252.575716
5.8900,153.8666416,18.94669251,1252.469681
5.8950,154.1715427,19.19512873,1252.364404
5.9000,154.4821712,19.44511302,1252.259526
5.9050,154.7993538,19.69513935,1252.154563
5.9100,155.1218055,19.94688207,1252.050088
5.9150,155.4492215,20.19933943,1251.945909
5.9200,155.7816676,20.45430402,1251.842471
5.9250,156.1200866,20.71257062,1251.739833
5.9300,156.4632995,20.97366739,1251.638094
5.9350,156.8095725,21.23858739,1251.537616
5.9400,157.1583375,21.50746255,1251.43857
5.9450,157.5093248,21.7797261,1251.340762
5.9500,157.8599485,22.05462272,1251.244286
5.9550,158.2101565,22.33213591,1251.149188
5.9600,158.55876,22.61104563,1251.055253
5.9650,158.9053791,22.89114442,1250.962426
5.9700,159.2502318,23.17422926,1250.871225
5.9750,159.5942264,23.45960811,1250.781288
5.9800,159.9365975,23.74838759,1250.692939
5.9850,160.2782884,24.04106101,1250.606126
5.9900,160.618487,24.33860894,1250.521269
5.9950,160.9589202,24.64229072,1250.438317
6.0000,161.2995758,24.9517748,1250.357345
6.0050,161.6400711,25.26577054,1250.278065
6.0100,161.9805208,25.58428767,1250.200539
6.0150,162.3221145,25.90771494,1250.1247
6.0200,162.6647335,26.23358245,1250.050101
6.0250,163.0078396,26.56164263,1249.976743
6.0300,163.350668,26.89066142,1249.904521
6.0350,163.6927286,27.22057771,1249.833474
6.0400,164.0341373,27.5490033,1249.763021
6.0450,164.373894,27.87726375,1249.693736
6.0500,164.7122721,28.20363951,1249.625233
6.0550,165.0500946,28.52735339,1249.55727
6.0600,165.3888143,28.84737138,1249.489493
6.0650,165.7297058,29.16326765,1249.421776
6.0700,166.0732818,29.47487308,1249.354083
6.0750,166.4213872,29.78319371,1249.286497
6.0800,166.7737233,30.08824381,1249.21915
6.0850,167.1311954,30.38866215,1249.151575
6.0900,167.4957171,30.68454251,1249.083662
6.0950,167.8684274,30.97573335,1249.015291
6.1000,168.2525109,31.26339428,1248.946555
6.1050,168.6489098,31.54704139,1248.877265
6.1100,169.0618875,31.82684167,1248.807042
6.1150,169.4911318,32.10432487,1248.736461
6.1200,169.9387633,32.38038167,1248.665573
6.1250,170.4056148,32.65505401,1248.594371
6.1300,170.8914161,32.92876917,1248.52315
6.1350,171.3951396,33.20268852,1248.452279
6.1400,171.9179135,33.47621402,1248.381658
6.1450,172.4593017,33.75034272,1248.311579
6.1500,173.0176372,34.02440016,1248.242052
6.1550,173.5909347,34.29861261,1248.173459
6.1600,174.1766527,34.57369483,1248.1062
6.1650,174.5200251,36.43185215,1248.654567
6.1700,175.330786,36.58135586,1248.555572
6.1750,176.1423758,36.73103471,1248.458815
6.1800,176.9536335,36.8806939,1248.364454
6.1850,177.7643257,37.03061041,1248.272534
6.1900,178.5718935,37.17990218,1248.183165
6.1950,179.3763859,37.32843386,1248.09628
6.2000,180.1756859,37.47594555,1248.012122
6.2050,180.9685158,37.62235702,1247.930734
6.2100,181.7540464,37.76751369,1247.852133
6.2150,182.5323408,37.91155975,1247.776318
6.2200,183.3029669,38.05352936,1247.703049
6.2250,182.185674,38.13563995,1247.39435
6.2300,182.7867094,38.40112671,1247.354063
6.2350,183.3830176,38.66329578,1247.315329
6.2400,183.9750019,38.92155143,1247.277926
6.2450,184.5632008,39.17518308,1247.241652
6.2500,185.1499944,39.42606463,1247.206999
6.2550,185.7352507,39.67368446,1247.173846
6.2600,186.3203579,39.91876265,1247.142348
6.2650,186.9069028,40.16118509,1247.112431
6.2700,187.4931702,40.39981633,1247.083787
6.2750,188.0804443,40.63416505,1247.056327
6.2800,188.6682726,40.86449351,1247.030183
6.2850,189.256335,41.08966581,1247.004976
6.2900,189.8446124,41.30902053,1246.980499
6.2950,190.4319622,41.52138777,1246.956549
6.3000,191.0185548,41.72747123,1246.933223
6.3050,191.6039923,41.92754252,1246.910689
6.3100,192.1872046,42.12097229,1246.88871
6.3150,192.766319,42.30744753,1246.867314
6.3200,193.3400187,42.48764568,1246.84672
6.3250,193.9072725,42.6605236,1246.826629
6.3300,194.4679914,42.8265406,1246.807195
6.3350,195.0206612,42.98545792,1246.788476
6.3400,195.5646448,43.13780031,1246.770563
6.3450,196.0987152,43.28189113,1246.752953
6.3500,196.6224323,43.41940011,1246.736091
6.3550,197.1337324,43.55020545,1246.719927
6.3600,197.6307978,43.67507849,1246.70468
6.3650,198.1122708,43.79325126,1246.690055
6.3700,198.5780357,43.90439242,1246.675891
6.3750,199.0270588,44.00770268,1246.661823
6.3800,199.4590224,44.10270009,1246.64764
6.3850,199.8747434,44.1885721,1246.633057
6.3900,200.2739962,44.26546637,1246.618024
6.3950,200.656041,44.33212844,1246.602188
6.4000,201.0200844,44.38845274,1246.585416
6.4050,201.3666684,44.43461212,1246.567649
6.4100,201.6946587,44.47060924,1246.548835
6.4150,202.0040903,44.49581322,1246.528727
6.4200,202.2937674,44.50953085,1246.50696
6.4250,202.5635497,44.51131959,1246.483397
6.4300,202.8146067,44.50319963,1246.458502
6.4350,203.0464657,44.48461371,1246.432075
6.4400,203.2588471,44.45790219,1246.404708
6.4450,203.4506627,44.42237254,1246.376112
6.4500,203.6228623,44.38050329,1246.347052
6.4550,203.7741912,44.33223715,1246.317376
6.4600,203.9057347,44.27688923,1246.286694
6.4650,204.0168794,44.21676151,1246.255772
6.4700,204.1080861,44.15193664,1246.22453
6.4750,204.1786927,44.08292578,1246.193037
6.4800,204.2287292,44.01111461,1246.161623
6.4850,204.258908,43.93685473,1246.130368
6.4900,204.2722531,43.861242,1246.099555
6.4950,204.2684502,43.7829636,1246.068712
6.5000,204.2494545,43.70352229,1246.03824
6.5050,204.2183344,43.62260305,1246.007938
6.5100,204.1754764,43.54020676,1245.977735
6.5150,204.1210158,43.45697196,1245.947805
6.5200,204.0567417,43.37184575,1245.917882
6.5250,203.9833993,43.28414979,1245.887779
6.5300,203.9006354,43.19437754,1245.857504
6.5350,203.8107526,43.10110656,1245.826792
6.5400,203.7137141,43.0033208,1245.795182
6.5450,203.6102904,42.90227674,1245.76315
6.5500,203.5001502,42.79563088,1245.729935
6.5550,203.3838062,42.68380395,1245.695537
6.5600,203.2600888,42.56656643,1245.659995
6.5650,203.1282425,42.44385786,1245.623237
6.5700,202.9895758,42.31617136,1245.585535
6.5750,202.8429055,42.18464204,1245.54722
6.5800,202.6903803,42.0482697,1245.507917
6.5850,202.531137,41.90772643,1245.467994
6.5900,202.3652477,41.76333941,1245.427472
6.5950,202.1934215,41.61506678,1245.386384
6.6000,202.0149104,41.4628935,1245.344728
6.6050,201.8296836,41.3063301,1245.302363
6.6100,201.6374775,41.14676524,1245.259759
6.6150,201.4400513,40.98362148,1245.216757
6.6200,201.2376267,40.81793498,1245.173529
6.6250,201.0320974,40.65010155,1245.130297
6.6300,200.8235274,40.47980259,1245.086921
6.6350,200.6143497,40.30754595,1245.04353
6.6400,200.4051871,40.13245671,1244.999909
6.6450,200.1964322,39.95572012,1244.956323
6.6500,199.9879873,39.77675982,1244.912648
6.6550,199.7805683,39.59520137,1244.868793
6.6600,199.5755505,39.41170979,1244.824897
6.6650,199.3726396,39.22585488,1244.780845
6.6700,199.1714998,39.03802711,1244.736687
6.6750,198.9718889,38.84723889,1244.692192
6.6800,198.7736013,38.65398884,1244.647576
6.6850,198.577322,38.45913256,1244.602988
6.6900,198.3823919,38.26233818,1244.558422
6.6950,198.1888975,38.06506957,1244.514172
6.7000,197.996015,37.8663817,1244.470075
6.7050,197.8042844,37.66676557,1244.426191
6.7100,197.6122062,37.46723978,1244.382908
6.7150,197.4203632,37.26776574,1244.340233
6.7200,197.2290022,37.06872055,1244.298313
6.7250,197.0386685,36.87049614,1244.257167
6.7300,196.8483631,36.67251432,1244.216694
6.7350,196.6586893,36.47481261,1244.176854
6.7400,196.4700362,36.27623126,1244.137386
6.7450,196.2823862,36.07670361,1244.098224
6.7500,196.0959268,35.87558379,1244.059176
6.7550,195.9111786,35.67390529,1244.020529
6.7600,195.7281294,35.47246318,1243.98254
6.7650,195.5467135,35.27035658,1243.944866
6.7700,195.3663376,35.06807568,1243.907688
6.7750,195.1868187,34.86662811,1243.871271
6.7800,195.0077035,34.66620718,1243.835678
6.7850,194.828122,34.4663165,1243.80079
6.7900,194.6470252,34.26686035,1243.766638
6.7950,194.4649995,34.06863474,1243.733454
6.8000,194.2807576,33.87206665,1243.701321
6.8050,194.0925964,33.67737024,1243.670432
6.8100,193.8993432,33.48418244,1243.640748
6.8150,193.7022089,33.29250424,1243.612296
6.8200,193.4978502,33.10283482,1243.585279
6.8250,193.2878371,32.9150093,1243.559674
6.8300,193.0709606,32.72830376,1243.535412
6.8350,192.8476383,32.5437263,1243.512796
6.8400,192.6165419,32.36149452,1243.491973
6.8450,192.3780009,32.18074042,1243.472696
6.8500,192.1312047,32.00197718,1243.455234
6.8550,191.8772054,31.82569126,1243.439906
6.8600,191.6169013,31.65081042,1243.4263
6.8650,191.3499152,31.47845602,1243.414875
6.8700,191.0778748,31.30713215,1243.405144
6.8750,190.8010249,31.13643353,1243.397029
6.8800,190.5191248,30.96710234,1243.390853
6.8850,190.2332162,30.79915265,1243.386566
6.8900,189.9429372,30.6327744,1243.384323
6.8950,189.6485936,30.46724974,1243.384032
6.9000,189.3498631,30.30278944,1243.38578
6.9050,189.0474686,30.13987933,1243.389731
6.9100,188.7424238,29.97697631,1243.395453
6.9150,188.4330712,29.81483312,1243.403197
6.9200,188.1203686,29.65215084,1243.412705
6.9250,187.8035029,29.48944945,1243.4241
6.9300,187.4817804,29.32662402,1243.437391
6.9350,187.1556685,29.16281604,1243.452311
6.9400,186.8233217,28.99883015,1243.469198
6.9450,186.4865514,28.83323812,1243.487634
6.9500,186.1454125,28.66650094,1243.507716
6.9550,185.8012082,28.49811146,1243.529298
6.9600,185.4535675,28.32694826,1243.552083
6.9650,185.1042434,28.15236678,1243.575714
6.9700,184.7545094,27.9739966,1243.600015
6.9750,184.4049385,27.79069914,1243.624707
6.9800,184.0587423,27.60148641,1243.649271
6.9850,183.7153508,27.40485334,1243.673383
6.9900,183.3764924,27.20030769,1243.696811
6.9950,183.0443937,26.9860028,1243.718986
7.0000,182.720998,26.76172079,1243.73964
7.0050,182.407018,26.52623335,1243.758509
7.0100,182.1042359,26.27894023,1243.775314
7.0150,181.8133123,26.01989725,1243.789976
7.0200,181.5361148,25.7488322,1243.802374
7.0250,181.2720526,25.46564168,1243.812539
7.0300,181.0217873,25.17004071,1243.820302
7.0350,180.7855812,24.86269468,1243.825804
7.0400,180.56125,24.5443817,1243.829327
7.0450,180.3491622,24.21547649,1243.831015
7.0500,180.1482094,23.8758019,1243.830826
7.0550,179.9570577,23.52562711,1243.828837
7.0600,179.774674,23.16502473,1243.825137
7.0650,179.6001201,22.79554841,1243.820267
7.0700,179.4319878,22.41739132,1243.81437
7.0750,179.2692624,22.03129125,1243.807571
7.0800,179.1107054,21.63737757,1243.8001
7.0850,178.9562978,21.23670896,1243.792202
7.0900,178.8042344,20.8295185,1243.784029
7.0950,178.6537733,20.41694265,1243.775885
7.1000,178.503254,19.99865766,1243.767845
7.1050,178.350819,19.5754029,1243.76022
7.1100,178.196758,19.14860919,1243.753414
7.1150,178.039449,18.71844263,1243.747456
7.1200,177.8810355,18.28617051,1243.74259
7.1250,177.7192973,17.85254787,1243.739093
7.1300,177.5552904,17.4179597,1243.737091
7.1350,177.38756,16.98315219,1243.736688
7.1400,177.2184348,16.5495113,1243.738229
7.1450,177.0457052,16.11728094,1243.741868
7.1500,176.8701387,15.68758106,1243.747758
7.1550,176.6912689,15.26010788,1243.755791
7.1600,176.5084222,14.83691187,1243.766555
7.1650,176.3222821,14.41754551,1243.77988
7.1700,176.1318543,14.00297005,1243.796052
7.1750,175.9368491,13.59298598,1243.815106
7.1800,175.7372372,13.18827789,1243.837119
7.1850,175.5329562,12.78825506,1243.862093
7.1900,175.3249651,12.39225817,1243.889783
7.1950,175.1124817,12.00083602,1243.920385
7.2000,174.8958322,11.61324761,1243.953749
7.2050,174.6758521,11.22893338,1243.989683
7.2100,174.4507401,10.84909169,1244.028645
7.2150,174.2221089,10.47238807,1244.070309
7.2200,173.9899517,10.09977235,1244.114875
7.2250,173.755126,9.729151673,1244.161872
7.2300,173.5187961,9.361237027,1244.211292
7.2350,173.2806353,8.995574337,1244.263103
7.2400,173.0420124,8.63118184,1244.316988
7.2450,172.8029027,8.267999847,1244.372891
7.2500,172.5646899,7.905434451,1244.430579
7.2550,172.326891,7.543128068,1244.489961
7.2600,172.0899091,7.180120323,1244.550752
7.2650,171.8543816,6.816238045,1244.612918
7.2700,171.6209976,6.450819535,1244.676149
7.2750,171.3896946,6.083804532,1244.740343
7.2800,171.1604728,5.715399543,1244.805431
7.2850,170.9334884,5.344939917,1244.871196
7.2900,170.7083832,4.971369344,1244.937291
7.2950,170.4840124,4.595628532,1245.00402
7.3000,170.2603452,4.216717224,1245.071149
7.3050,170.0361628,3.834829265,1245.138765
7.3100,169.8122007,3.45000283,1245.206706
7.3150,169.5885368,3.061589905,1245.274789
7.3200,169.363352,2.669241244,1245.343058
7.3250,169.1379498,2.27337917,1245.411468
7.3300,168.9116707,1.873307577,1245.479981
7.3350,168.6842204,1.469991518,1245.548757
7.3400,168.4564926,1.062423251,1245.617542
7.3450,168.2278732,0.6518649483,1245.686552
7.3500,167.997896,0.2387355239,1245.756002
7.3550,167.766799,-0.1761335638,1245.826058
7.3600,167.5345424,-0.5913071733,1245.896993
7.3650,167.30153,-1.006502807,1245.968716
7.3700,167.0681341,-1.421867647,1246.041167
7.3750,166.8356562,-1.835776567,1246.1146
7.3800,166.6038675,-2.247923679,1246.18895
7.3850,166.371643,-2.656537373,1246.264685
7.3900,166.1403207,-3.060624789,1246.341717
7.3950,165.9086208,-3.459092008,1246.420384
7.4000,165.678599,-3.851752889,1246.500398
7.4050,165.4506417,-4.23791934,1246.581803
7.4100,165.2243331,-4.617894328,1246.664404
7.4150,164.9988879,-4.991197474,1246.748326
7.4200,164.7733429,-5.359155349,1246.833316
7.4250,164.5468598,-5.72179198,1246.919437
7.4300,164.3202801,-6.078365893,1247.006634
7.4350,164.0928314,-6.429522884,1247.094926
7.4400,163.8627837,-6.776300358,1247.184208
7.4450,163.6317575,-7.118056505,1247.274455
7.4500,163.3998636,-7.455077559,1247.36564
7.4550,163.1676436,-7.786789616,1247.457803
7.4600,162.9353492,-8.113972942,1247.550799
7.4650,162.7035354,-8.436730007,1247.644471
7.4700,162.4723792,-8.754443865,1247.738921
7.4750,162.2427582,-9.067165325,1247.833955
7.4800,162.0148653,-9.37618356,1247.929397
7.4850,161.7895808,-9.680940061,1248.025163
7.4900,161.5654482,-9.982335885,1248.121183
7.4950,161.3452486,-10.2797069,1248.217116
7.5000,161.1280977,-10.57288953,1248.31309
7.5050,160.9157225,-10.86265378,1248.408744
7.5100,160.7085012,-11.15005891,1248.503751
7.5150,160.5080326,-11.43320284,1248.598294
7.5200,160.3141268,-11.71345684,1248.692124
7.5250,160.1276302,-11.98987569,1248.785172
7.5300,159.9484589,-12.26282812,1248.877531
7.5350,159.7772975,-12.5324251,1248.96904
7.5400,159.6160242,-12.79758648,1249.059557
7.5450,159.4633119,-13.05785222,1249.149366
7.5500,159.3198608,-13.31366151,1249.23817
7.5550,159.1856945,-13.56407838,1249.32606
7.5600,159.0624877,-13.8082378,1249.412892
7.5650,158.9505668,-14.04599957,1249.498561
7.5700,158.8498329,-14.27786274,1249.583058
7.5750,158.760611,-14.50271472,1249.666421
7.5800,158.6828331,-14.7208226,1249.748684
7.5850,158.616409,-14.93187803,1249.829859
7.5900,158.5614089,-15.13521077,1249.910072
7.5950,158.5187508,-15.33113565,1249.989112
7.6000,158.4874696,-15.5192064,1250.067169
7.6050,158.4695102,-15.7006081,1250.143738
7.6100,158.4646081,-15.87471091,1250.218895
7.6150,158.4713307,-16.04214662,1250.292855
7.6200,158.4909368,-16.20260827,1250.365347
7.6250,158.5223273,-16.35537714,1250.436662
7.6300,158.5656964,-16.49934003,1250.506872
7.6350,158.6210457,-16.63599582,1250.575802
7.6400,158.6879031,-16.76267847,1250.643935
7.6450,158.7655913,-16.87918547,1250.711462
7.6500,158.8544238,-16.98527456,1250.778346
7.6550,158.9547973,-17.07927087,1250.844785
7.6600,159.0662934,-17.16083278,1250.910908
7.6650,159.1889987,-17.22874001,1250.97683
7.6700,159.3225082,-17.28186527,1251.042817
7.6750,159.464496,-17.31998874,1251.109207
7.6800,159.6143704,-17.34209018,1251.17628
7.6850,159.7714752,-17.34938582,1251.243877
7.6900,159.9338949,-17.34062519,1251.312524
7.6950,160.101384,-17.31681193,1251.382093
7.7000,160.271369,-17.27864204,1251.452967
7.7050,160.4418951,-17.22595527,1251.525434
7.7100,160.6110874,-17.15930922,1251.599835
7.7150,160.7778958,-17.07946759,1251.676187
7.7200,160.940274,-16.98735817,1251.75476
7.7250,161.0964899,-16.88348912,1251.83576
7.7300,161.2446954,-16.76969656,1251.919318
7.7350,161.3841988,-16.64714786,1252.005371
7.7400,161.5135474,-16.51642252,1252.094117
7.7450,161.6329412,-16.37897089,1252.185365
7.7500,161.7401607,-16.23623368,1252.279181
7.7550,161.8353635,-16.08901689,1252.375465
7.7600,161.9171147,-15.93757892,1252.474351
7.7650,161.9852238,-15.78352159,1252.57566
7.7700,162.0397397,-15.62820204,1252.679104
7.7750,162.0805047,-15.47103754,1252.784797
7.7800,162.1072151,-15.31237499,1252.892672
7.7850,162.1199323,-15.152794,1253.002539
7.7900,162.1214919,-14.9913358,1253.114281
7.7950,162.1104028,-14.829001,1253.22793
7.8000,162.0896945,-14.66604845,1253.343036
7.8050,162.058101,-14.50115506,1253.459969
7.8100,162.0175636,-14.33411483,1253.578582
7.8150,161.9683263,-14.16538748,1253.698584
7.8200,161.9111646,-13.99489395,1253.819907
7.8250,161.8476421,-13.82151087,1253.942487
7.8300,161.7776709,-13.64554908,1254.066235
7.8350,161.7024255,-13.46774358,1254.190874
7.8400,161.6202307,-13.28903989,1254.316487
7.8450,161.5328142,-13.1085608,1254.442928
7.8500,161.4392702,-12.92661512,1254.570402
7.8550,161.3394913,-12.7448687,1254.698601
7.8600,161.2333099,-12.56349864,1254.8276
7.8650,161.1189743,-12.38194322,1254.95777
7.8700,160.9969494,-12.20000323,1255.088998
7.8750,160.8684408,-12.01842805,1255.221007
7.8800,160.7324764,-11.83809125,1255.353783
7.8850,160.590518,-11.65784786,1255.487264
7.8900,160.4420541,-11.47809919,1255.621482
7.8950,160.2881563,-11.29892491,1255.756165
7.9000,160.1290676,-11.11941908,1255.891349
7.9050,159.964016,-10.93847332,1256.02734
7.9100,159.7930955,-10.75629322,1256.164189
7.9150,159.6175624,-10.57218678,1256.3017
7.9200,159.4369551,-10.38545495,1256.440183
7.9250,159.2521168,-10.19634034,1256.579318
7.9300,159.0639462,-10.00421914,1256.719065
7.9350,158.872454,-9.808432271,1256.859527
7.9400,158.6791315,-9.609715031,1257.00025
7.9450,158.4839032,-9.407950012,1257.141186
7.9500,158.287231,-9.201962483,1257.282511
7.9550,158.0891331,-8.993487611,1257.423861
7.9600,157.8888387,-8.782073202,1257.565547
7.9650,157.6858348,-8.568578411,1257.707548
7.9700,157.4792984,-8.3526574,1257.850034
7.9750,157.2694989,-8.134421093,1257.992938
7.9800,157.0564631,-7.91406333,1258.136207
7.9850,156.8390374,-7.691196751,1258.280202
7.9900,156.6174704,-7.466514436,1258.424777
7.9950,156.3899151,-7.240708011,1258.570155
8.0000,156.1570405,-7.012929514,1258.716339
8.0050,155.9193187,-6.783690818,1258.863193
8.0100,155.6770464,-6.552974244,1259.01067
8.0150,155.4300586,-6.321750767,1259.158741
8.0200,155.1798283,-6.089026345,1259.307282
8.0250,154.9273694,-5.854665654,1259.456202
8.0300,154.6722855,-5.619701894,1259.605316
8.0350,154.414423,-5.382688865,1259.755062
8.0400,154.1542517,-5.144152712,1259.905186
8.0450,153.8895995,-4.904245122,1260.056028
8.0500,153.622884,-4.661920649,1260.20741
8.0550,153.3540687,-4.417787076,1260.359159
8.0600,153.0848856,-4.171385004,1260.511025
8.0650,152.8147889,-3.92325816,1260.663045
8.0700,152.5440931,-3.672551767,1260.815396
8.0750,152.2733506,-3.421237431,1260.967549
8.0800,152.0029431,-3.169442753,1261.119532
8.0850,151.7328718,-2.917344729,1261.2713
8.0900,151.4620505,-2.665074648,1261.423113
8.0950,151.1907479,-2.412754313,1261.574938
8.1000,150.9186689,-2.160463061,1261.726778
8.1050,150.6457866,-1.908600193,1261.878613
8.1100,150.3728362,-1.657692453,1262.030022
8.1150,150.0979361,-1.407257571,1262.181593
8.1200,149.8224223,-1.156773925,1262.333096
8.1250,149.5450517,-0.9080659943,1262.484469
8.1300,149.2660867,-0.6610375161,1262.635672
8.1350,148.9851287,-0.414188106,1262.787152
8.1400,148.7030104,-0.168095081,1262.938667
8.1450,148.419811,0.07742993643,1263.090326
8.1500,148.1356833,0.3229606463,1263.242164
8.1550,147.8523657,0.570221094,1263.394275
8.1600,147.5690529,0.8177862183,1263.546477
8.1650,147.2874532,1.065764351,1263.698453
8.1700,147.0077643,1.315647187,1263.850535
8.1750,146.7302531,1.56778741,1264.00265
8.1800,146.4551351,1.822102765,1264.154702
8.1850,146.1816255,2.077318185,1264.306554
8.1900,145.9110088,2.333385291,1264.457772
8.1950,145.6410498,2.589669844,1264.608735
8.2000,145.3716622,2.845326498,1264.759212
8.2050,145.1018459,3.099062953,1264.909196
8.2100,144.8314532,3.35047831,1265.058521
8.2150,144.5581902,3.599018294,1265.207699
8.2200,144.2815783,3.84435455,1265.3568
8.2250,144.0014585,4.085380051,1265.505714
8.2300,143.7171604,4.322440711,1265.654696
8.2350,143.4284986,4.556016093,1265.803903
8.2400,143.1337449,4.787249691,1265.954025
8.2450,142.8340875,5.016627487,1266.104804
8.2500,142.528921,5.245302341,1266.256727
8.2550,142.219129,5.473913526,1266.409775
8.2600,141.9052687,5.702242631,1266.563739
8.2650,141.5871738,5.930998167,1266.718844
8.2700,141.2653336,6.160045679,1266.875005
8.2750,140.9401924,6.389653507,1267.032186
8.2800,140.6106395,6.620482601,1267.190868
8.2850,140.2779835,6.853831434,1267.350958
8.2900,139.9424674,7.089858705,1267.512426
8.2950,139.6061158,7.329177215,1267.674969
8.3000,139.2685523,7.571530462,1267.838572
8.3050,138.930589,7.817139503,1268.00307
8.3100,138.5937056,8.065792505,1268.167897
8.3150,138.256135,8.316689938,1268.333431
8.3200,137.9170742,8.569939718,1268.500005
8.3250,137.5750631,8.824894569,1268.667834
8.3300,137.2302899,9.082646368,1268.837133
8.3350,136.882318,9.342732699,1269.008052
8.3400,136.5319803,9.605276193,1269.180568
8.3450,136.1789438,9.87117673,1269.355036
8.3500,135.8226978,10.14054763,1269.531731
8.3550,135.4624583,10.41397624,1269.71108
8.3600,135.0989022,10.69102346,1269.892881
8.3650,134.7318437,10.97367633,1270.077724
8.3700,134.3622952,11.2629836,1270.265456
8.3750,133.9913027,11.56048148,1270.456204
8.3800,133.6198556,11.8667329,1270.649747
8.3850,133.2476936,12.18212317,1270.846382
8.3900,132.8766197,12.50593003,1271.045283
8.3950,132.5067096,12.83872011,1271.246513
8.4000,132.1381798,13.18110326,1271.450132
8.4050,131.7708448,13.53183774,1271.655933
8.4100,131.4047051,13.88997746,1271.86375
8.4150,131.0413484,14.25363779,1272.07265
8.4200,130.6784875,14.62198943,1272.283196
8.4250,130.3156849,14.99459492,1272.495459
8.4300,129.9525674,15.37064074,1272.709375
8.4350,129.5890545,15.74842698,1272.924639
8.4400,129.2251123,16.1282942,1273.141282
8.4450,128.8599343,16.50962803,1273.359326
8.4500,128.4938537,16.8915368,1273.578385
8.4550,128.1262271,17.27230335,1273.798106
8.4600,127.7583129,17.65324284,1274.018355
8.4650,127.3898042,18.03390123,1274.239075
8.4700,127.0189317,18.41134034,1274.459939
8.4750,126.6446207,18.78441829,1274.681072
8.4800,126.2667665,19.15316697,1274.902503
8.4850,125.8839589,19.5171128,1275.124628
8.4900,125.495218,19.87502233,1275.347669
8.4950,125.1006157,20.22734713,1275.571767
8.5000,124.6995077,20.57480822,1275.797559
8.5050,124.2932219,20.91798821,1276.024678
8.5100,123.8809976,21.25749395,1276.253643
8.5150,123.4650633,21.59395237,1276.483811
8.5200,123.0466683,21.92783758,1276.714774
8.5250,122.6249986,22.25991992,1276.947028
8.5300,122.1994266,22.58917655,1277.180563
8.5350,121.7714089,22.91557288,1277.414825
8.5400,121.3407978,23.23791896,1277.649591
8.5450,120.9072835,23.55562589,1277.884979
8.5500,120.4703194,23.86804059,1278.120888
8.5550,120.0281754,24.17455157,1278.357722
8.5600,119.5816946,24.47565315,1278.595321
8.5650,119.1311407,24.77181196,1278.833682
8.5700,118.6759391,25.06385925,1279.0733
8.5750,118.2170451,25.35075715,1279.313593
8.5800,117.7550014,25.6331249,1279.554462
8.5850,117.2901414,25.90966116,1279.79555
8.5900,116.8225471,26.1805664,1280.036982
8.5950,116.3519863,26.44503311,1280.27854
8.6000,115.8776155,26.70333049,1280.52077
8.6050,115.3994383,26.95516719,1280.76356
8.6100,114.9154692,27.20064007,1281.008011
8.6150,114.4293927,27.44136246,1281.253071
8.6200,113.9410216,27.67680593,1281.498665
8.6250,113.4502408,27.90689065,1281.745071
8.6300,112.9569669,28.13231375,1281.992465
8.6350,112.4614543,28.35287202,1282.240695
8.6400,111.9627981,28.57040896,1282.490612
8.6450,111.462886,28.78478186,1282.741582
8.6500,110.9621164,28.99735771,1282.993792
8.6550,110.4606423,29.20833976,1283.24738
8.6600,109.9583154,29.41916448,1283.502785
8.6650,109.457887,29.62979031,1283.758905
8.6700,108.9586266,29.8403477,1284.016124
8.6750,108.4602445,30.05161851,1284.274699
8.6800,107.96283,30.26482597,1284.534909
8.6850,107.4686072,30.47915571,1284.795373
8.6900,106.9768047,30.69543587,1285.056544
8.6950,106.4889693,30.91315302,1285.317596
8.7000,106.0047349,31.13102696,1285.578098
8.7050,105.5252178,31.34953015,1285.837584
8.7100,105.0502882,31.56962352,1286.096326
8.7150,104.5792247,31.79030436,1286.354279
8.7200,104.1138356,32.01153536,1286.61058
8.7250,103.6540815,32.23326321,1286.865287
8.7300,103.2009563,32.45552626,1287.117909
8.7350,102.7538021,32.67816243,1287.368613
8.7400,102.3131136,32.90085252,1287.617023
8.7450,101.8801168,33.1219081,1287.862044
8.7500,101.4529024,33.33967691,1288.104148
8.7550,101.031393,33.55452443,1288.343558
8.7600,100.6135401,33.76466816,1288.580748
8.7650,100.1975404,33.96879914,1288.816103
8.7700,99.78519241,34.16755853,1289.049131
8.7750,99.37594141,34.36196443,1289.280355
8.7800,98.97060385,34.55210235,1289.509417
8.7850,98.56977971,34.73993066,1289.736609
8.7900,98.17382629,34.92608574,1289.961791
8.7950,97.78316399,35.10993901,1290.184381
8.8000,97.39938341,35.291036,1290.403291
8.8050,97.0215089,35.46976632,1290.619163
8.8100,96.64970942,35.64435136,1290.831197
8.8150,96.28460263,35.81560083,1291.039196
8.8200,95.92482512,35.98245873,1291.243475
8.8250,95.57120424,36.14524554,1291.443749
8.8300,95.22426642,36.30423106,1291.63964
8.8350,94.88373103,36.45971645,1291.831394
8.8400,94.54961093,36.61143568,1292.018879
8.8450,94.22155559,36.75932181,1292.202262
8.8500,93.89994771,36.90407388,1292.381657
8.8550,93.58487224,37.04605656,1292.557191
8.8600,93.27603605,37.18590626,1292.729213
8.8650,92.97261535,37.32327337,1292.8981
8.8700,92.67416657,37.45778633,1293.063999
8.8750,92.37963182,37.58969324,1293.227532
8.8800,92.08915391,37.71884057,1293.388617
8.8850,91.80169122,37.84566401,1293.547911
8.8900,91.51634497,37.97074082,1293.706054
8.8950,91.23251532,38.09379345,1293.863238
8.9000,90.95107549,38.2156089,1294.019286
8.9050,90.67234399,38.33615125,1294.173922
8.9100,90.39621641,38.45634498,1294.327448
8.9150,90.12064229,38.5758304,1294.480817
8.9200,89.84547834,38.69439046,1294.634031
8.9250,89.5715691,38.81214821,1294.786555
8.9300,89.29994022,38.9303789,1294.938424
8.9350,89.03033217,39.05005387,1295.090028
8.9400,88.76389161,39.17033116,1295.240432
8.9450,88.50040851,39.29299992,1295.390303
8.9500,88.24089451,39.41700585,1295.538767
8.9550,87.98660094,39.54350127,1295.685413
8.9600,87.73817979,39.67227391,1295.829801
8.9650,87.49467843,39.80352669,1295.972301
8.9700,87.25623252,39.93616315,1296.112599
8.9750,87.02318965,40.06931288,1296.250199
8.9800,86.7957909,40.20238139,1296.384741
8.9850,86.57325159,40.3361545,1296.516872
8.9900,86.35635648,40.47061546,1296.646207
8.9950,86.14510335,40.60516526,1296.77249
9.0000,85.93989945,40.73901998,1296.895149
9.0050,85.74075056,40.87183051,1297.013955
9.0100,85.54757907,41.00269034,1297.128556
9.0150,85.36058556,41.13097438,1297.23851
9.0200,85.1793454,41.25608163,1297.343691
9.0250,85.00566105,41.37767605,1297.44273
9.0300,84.83895046,41.49423972,1297.535389
9.0350,84.67925927,41.60466395,1297.621295
9.0400,84.52616071,41.70827404,1297.700499
9.0450,84.37795973,41.80391362,1297.773613
9.0500,84.23515964,41.89325366,1297.840806
9.0550,84.09637368,41.97419671,1297.902145
9.0600,83.96223042,42.04765168,1297.957836
9.0650,83.83316271,42.11501209,1298.008305
9.0700,83.70868414,42.17593951,1298.05383
9.0750,83.58867952,42.23044171,1298.094734
9.0800,83.4719911,42.27895486,1298.13207
9.0850,83.35766362,42.32028347,1298.166044
9.0900,83.24566988,42.35585132,1298.197388
9.0950,83.13428966,42.38691566,1298.227685
9.1000,83.02196532,42.41420421,1298.258199
9.1050,82.90732592,42.43769247,1298.289675
9.1100,82.78991009,42.45915804,1298.323178
9.1150,82.66864241,42.47892654,1298.359485
9.1200,82.54361355,42.49956295,1298.399559
9.1250,82.41314671,42.52143722,1298.444364
9.1300,82.27678684,42.54454689,1298.494231
9.1350,82.1339496,42.57094347,1298.550041
9.1400,81.98480715,42.60144772,1298.611852
9.1450,81.82913609,42.63674201,1298.679921
9.1500,81.66637065,42.67598053,1298.754086
9.1550,81.49639384,42.71973859,1298.834513
9.1600,81.31788658,42.76824104,1298.921902
9.1650,81.13148699,42.82096165,1299.015662
9.1700,80.93804925,42.87769783,1299.114988
9.1750,80.7375704,42.93852849,1299.219877
9.1800,80.53064756,43.00218945,1299.329495
9.1850,80.31739181,43.06848976,1299.443648
9.1900,80.09749319,43.13624425,1299.562185
9.1950,79.87281821,43.20620494,1299.684328
9.2000,79.64236217,43.27824417,1299.810625
9.2050,79.40633144,43.35199076,1299.940946
9.2100,79.16569135,43.42616746,1300.074416
9.2150,78.92142603,43.50077485,1300.210512
9.2200,78.67369054,43.5766821,1300.349486
9.2250,78.42309417,43.65421564,1300.491266
9.2300,78.16762942,43.73062057,1300.636106
9.2350,77.90766189,43.80544554,1300.783757
9.2400,77.64237097,43.87777978,1300.934505
9.2450,77.37162271,43.94598872,1301.087881
9.2500,77.09463702,44.01015789,1301.244307
9.2550,76.81158878,44.06957295,1301.403405
9.2600,76.52231414,44.12387984,1301.565099
9.2650,76.22749362,44.17202317,1301.728564
9.2700,75.92816083,44.21476138,1301.89329
9.2750,75.62413423,44.25156337,1302.059181
9.2800,75.3153022,44.28172543,1302.226061
9.2850,75.0020493,44.30487188,1302.39353
9.2900,74.68447009,44.3204758,1302.561346
9.2950,74.36225232,44.32934449,1302.729862
9.3000,74.03625746,44.33279866,1302.899267
9.3050,73.70720687,44.33080046,1303.068983
9.3100,73.37526118,44.32508083,1303.239612
9.3150,73.04181106,44.31695125,1303.410805
9.3200,72.70800666,44.30737893,1303.582482
9.3250,72.37262972,44.29796135,1303.756135
9.3300,72.03581377,44.2901022,1303.93228
9.3350,71.69784647,44.28538291,1304.11131
9.3400,71.35818677,44.28435481,1304.293824
9.3450,71.01816248,44.28977887,1304.480148
9.3500,70.67752873,44.30194057,1304.670725
9.3550,70.3371986,44.32383065,1304.866156
9.3600,69.99688971,44.35643523,1305.06689
9.3650,69.65742625,44.40040446,1305.272819
9.3700,69.31692421,44.45823015,1305.486105
9.3750,68.9756413,44.52937704,1305.706546
9.3800,68.63224244,44.6148085,1305.935377
9.3850,68.28769221,44.71461966,1306.172067
9.3900,67.93986987,44.82914209,1306.418171
9.3950,67.59049293,44.95711086,1306.672147
9.4000,67.23970012,45.09804305,1306.933724
9.4050,66.88909589,45.25278046,1307.202074
9.4100,66.53772336,45.41973841,1307.477154
9.4150,66.18530816,45.5984607,1307.75899
9.4200,65.83234251,45.78731964,1308.046538
9.4250,65.48020997,45.98520759,1308.338407
9.4300,65.12855497,46.19238717,1308.634838
9.4350,64.7777567,46.40623944,1308.934703
9.4400,64.42864266,46.62656714,1309.237347
9.4450,64.08176364,46.85273817,1309.542045
9.4500,63.73783219,47.08453285,1309.848298
9.4550,63.39738488,47.32027419,1310.155085
9.4600,63.06133509,47.55874144,1310.461295
9.4650,62.72908673,47.79886989,1310.766822
9.4700,62.40071998,48.03922307,1311.071092
9.4750,62.07722988,48.27839344,1311.372901
9.4800,61.75749933,48.51546625,1311.67259
9.4850,61.44278203,48.74941162,1311.968864
9.4900,61.13409527,48.97866228,1312.260121
9.4950,60.83036626,49.20249961,1312.546785
9.5000,60.53205914,49.4193606,1312.827939
9.5050,60.23919604,49.62836182,1313.103137
9.5100,59.95206314,49.82833104,1313.371656
9.5150,59.67007342,50.01898472,1313.633735
9.5200,59.39348066,50.19945162,1313.888895
9.5250,59.12268984,50.36824083,1314.136009
9.5300,58.85883995,50.52644958,1314.37474
9.5350,58.60302936,50.6731914,1314.603821
9.5400,58.35580106,50.80936309,1314.823244
9.5450,58.11728173,50.93485716,1315.032869
9.5500,57.88877546,51.04969982,1315.231893
9.5550,57.66949071,51.15457609,1315.421071
9.5600,57.46044521,51.24865833,1315.599354
9.5650,57.26081053,51.33355155,1315.76805
9.5700,57.07105179,51.40818983,1315.926334
9.5750,56.89212776,51.47415637,1316.074212
9.5800,56.72559137,51.53203322,1316.210783
9.5850,56.5714351,51.58228157,1316.336306
9.5900,56.42958227,51.6260224,1316.451337
9.5950,56.30161523,51.66323003,1316.554811
9.6000,56.18704832,51.69469272,1316.647372
9.6050,56.08619041,51.72079322,1316.72911
9.6100,55.99988485,51.74113098,1316.799232
9.6150,55.92737141,51.75586223,1316.858386
9.6200,55.86840818,51.76526083,1316.906824
9.6250,55.82295369,51.76903869,1316.944365
9.6300,55.79184225,51.76719971,1316.970395
9.6350,55.77492672,51.76091894,1316.985528
9.6400,55.77256676,51.75107477,1316.989894
9.6450,55.78425286,51.7369905,1316.983462
9.6500,55.81016026,51.71908554,1316.966418
9.6550,55.8491475,51.69726582,1316.939485
9.6600,55.90059905,51.67199135,1316.90328
9.6650,55.963894,51.64259622,1316.858024
9.6700,56.03887323,51.60895853,1316.803721
9.6750,56.1247975,51.57219468,1316.74137
9.6800,56.22210966,51.53160603,1316.670235
9.6850,56.32969791,51.48833036,1316.591704
9.6900,56.44780497,51.44176512,1316.505287
9.6950,56.57489428,51.39183947,1316.412069
9.7000,56.71066396,51.3397832,1316.312675
9.7050,56.85348434,51.28331143,1316.207456
9.7100,57.00365878,51.22437501,1316.096989
9.7150,57.16086513,51.16220367,1315.98107
9.7200,57.3236679,51.09630989,1315.860531
9.7250,57.49185998,51.02724777,1315.735796
9.7300,57.66437799,50.95427742,1315.607384
9.7350,57.84120934,50.87847521,1315.475551
9.7400,58.02163491,50.79929173,1315.340574
9.7450,58.20483568,50.71643017,1315.2029
9.7500,58.39051647,50.62979538,1315.06248
9.7550,58.57741922,50.54000438,1314.920462
9.7600,58.76556387,50.44625869,1314.776558
9.7650,58.95367201,50.34887166,1314.631765
9.7700,59.1419849,50.24886805,1314.486419
9.7750,59.32899374,50.14646912,1314.34151
9.7800,59.5141797,50.04183914,1314.197466
9.7850,59.69634978,49.9353182,1314.055184
9.7900,59.87518455,49.82718403,1313.915088
9.7950,60.05071022,49.71825871,1313.777411
9.8000,60.22343069,49.60808759,1313.64152
9.8050,60.3927885,49.49733662,1313.508071
9.8100,60.55830394,49.38586839,1313.377375
9.8150,60.71969777,49.27442604,1313.249961
9.8200,60.87724319,49.16227543,1313.125233
9.8250,61.02994904,49.04981657,1313.004103
9.8300,61.17853998,48.93608727,1312.885584
9.8350,61.32300916,48.82143193,1312.769934
9.8400,61.46311431,48.70539361,1312.656975
9.8450,61.59993095,48.58706464,1312.545538
9.8500,61.73269564,48.46699786,1312.436437
9.8550,61.86190682,48.34416214,1312.328887
9.8600,61.98823515,48.21989795,1312.222964
9.8650,62.11253312,48.09351363,1312.117851
9.8700,62.23466122,47.96609276,1312.014054
9.8750,62.35566801,47.83676933,1311.910491
9.8800,62.47403219,47.70536723,1311.808109
9.8850,62.59122802,47.57226283,1311.705953
9.8900,62.7073195,47.43595782,1311.603445
9.8950,62.82214068,47.29694589,1311.500901
9.9000,62.935702,47.15426535,1311.397832
9.9050,63.04785213,47.00754702,1311.294193
9.9100,63.15896932,46.85657065,1311.189614
9.9150,63.26975926,46.7019343,1311.083949
9.9200,63.37866013,46.54356934,1310.978035
9.9250,63.48746797,46.38138035,1310.870675
9.9300,63.59566561,46.21558621,1310.762282
9.9350,63.70424409,46.04602146,1310.652094
9.9400,63.81430762,45.8728073,1310.539484
9.9450,63.92531996,45.69590481,1310.424889
9.9500,64.03707832,45.51542183,1310.308344
9.9550,64.15026943,45.33147462,1310.189535
9.9600,64.2647294,45.1438197,1310.068605
9.9650,64.37997011,44.95333748,1309.946002
9.9700,64.4970194,44.75895711,1309.820758
9.9750,64.61599298,44.56036333,1309.692526
9.9800,64.73600515,44.35688544,1309.56187
9.9850,64.85737321,44.1482745,1309.428358
9.9900,64.98029484,43.93483121,1309.291941
9.9950,65.10543358,43.71742,1309.152462
10.0000,65.23253884,43.49516328,1309.009738
10.0050,65.36149961,43.26897416,1308.86424
10.0100,65.49263572,43.03720453,1308.715092
10.0150,65.62541287,42.80071822,1308.563039
10.0200,65.76092429,42.55941722,1308.407289
10.0250,65.89754431,42.31295508,1308.248851
10.0300,66.03581467,42.06162478,1308.087408
10.0350,66.17521572,41.80428512,1307.923104
10.0400,66.31452551,41.54174359,1307.757085
10.0450,66.45399009,41.27358291,1307.588998
10.0500,66.59347237,40.99933066,1307.41894
10.0550,66.73302438,40.71891719,1307.24685
10.0600,66.87261983,40.43285803,1307.072863
10.0650,67.01275379,40.14182325,1306.896935
10.0700,67.15241679,39.8457192,1306.719638
10.0750,67.2919402,39.54491077,1306.540965
10.0800,67.43282089,39.24029492,1306.360328
10.0850,67.57531095,38.93206988,1306.177692
10.0900,67.71997734,38.62122763,1305.9931
10.0950,67.86582587,38.30690264,1305.806932
10.1000,68.01275692,37.99035426,1305.619769
10.1050,68.1603009,37.67233139,1305.43217
10.1100,68.30933105,37.35297637,1305.243608
10.1150,68.46106009,37.0327061,1305.053532
10.1200,68.61549027,36.71104268,1304.861838
10.1250,68.77334092,36.38865694,1304.668503
10.1300,68.93482921,36.06643676,1304.473654
10.1350,69.09966414,35.74369039,1304.27711
10.1400,69.26882492,35.42075369,1304.078639
10.1450,69.44154448,35.09759079,1303.878774
10.1500,69.61809936,34.77383627,1303.677082
10.1550,69.79989339,34.44960887,1303.472879
10.1600,69.98642633,34.12472157,1303.266356
10.1650,70.17839265,33.79933763,1303.057186
10.1700,70.37498207,33.47370338,1302.846056
10.1750,70.5763123,33.14805647,1302.633022
10.1800,70.78248382,32.82286204,1302.418181
10.1850,70.99290621,32.49814593,1302.20203
10.1900,71.20821323,32.17455134,1301.984305
10.1950,71.42814194,31.85211936,1301.765262
10.2000,71.65257752,31.53040881,1301.544792
10.2050,71.8814912,31.21008835,1301.323246
10.2100,72.11447108,30.89097669,1301.100821
10.2150,72.35139044,30.5731699,1300.87758
10.2200,72.59314183,30.25671023,1300.653029
10.2250,72.83895827,29.94196571,1300.427815
10.2300,73.08878283,29.62997548,1300.202254
10.2350,73.34189531,29.31957931,1299.976441
10.2400,73.59660631,29.01162667,1299.751521
10.2450,73.85363594,28.70674192,1299.527284
10.2500,74.11430899,28.40537154,1299.303147
10.2550,74.37896807,28.10696378,1299.07861
10.2600,74.64916005,27.8116104,1298.852886
10.2650,74.92434373,27.51928752,1298.626209
10.2700,75.20381925,27.22979733,1298.399062
10.2750,75.48768173,26.94249436,1298.171231
10.2800,75.77628295,26.65880138,1297.94284
10.2850,76.0696006,26.3772612,1297.713456
10.2900,76.36682579,26.09731772,1297.483343
10.2950,76.66769235,25.81825163,1297.252488
10.3000,76.97152773,25.5395789,1297.021008
10.3050,77.27831694,25.26174881,1296.788858
10.3100,77.5863936,24.98531228,1296.557133
10.3150,77.89495655,24.7091006,1296.325804
10.3200,78.2034589,24.43416915,1296.09553
10.3250,78.51276845,24.16104663,1295.865819
10.3300,78.82303155,23.88855252,1295.636276
10.3350,79.13285177,23.61716625,1295.407737
10.3400,79.44344421,23.34557404,1295.179139
10.3450,79.75398235,23.07361333,1294.950996
10.3500,80.06340106,22.8027691,1294.724157
10.3550,80.37146458,22.53168087,1294.498348
10.3600,80.67788525,22.26115532,1294.27393
10.3650,80.98305766,21.99102451,1294.050609
10.3700,81.28607095,21.72080924,1293.828656
10.3750,81.58703724,21.45094186,1293.60803
10.3800,81.88504991,21.18191206,1293.38921
10.3850,82.18057484,20.91416943,1293.172013
10.3900,82.47230899,20.6473,1292.956838
10.3950,82.76151606,20.38217712,1292.743239
10.4000,83.04647641,20.11721371,1292.531568
10.4050,83.32768193,19.85270219,1292.32172
10.4100,83.6047251,19.59015938,1292.114255
10.4150,83.87735072,19.32834254,1291.908985
10.4200,84.14498466,19.06853753,1291.706477
10.4250,84.40830308,18.81066245,1291.506391
10.4300,84.66640819,18.55587622,1291.309616
10.4350,84.91917078,18.30424124,1291.116398
10.4400,85.16656328,18.0561274,1290.926674
10.4450,85.41007596,17.81392131,1290.740335
10.4500,85.65019618,17.57710266,1290.556933
10.4550,85.88565454,17.34655771,1290.377355
10.4600,86.11681265,17.12205679,1290.201428
10.4650,86.34430144,16.90318639,1290.028623
10.4700,86.56910779,16.69067368,1289.858711
10.4750,86.79105502,16.48375177,1289.691635
10.4800,87.01206154,16.28240809,1289.526462
10.4850,87.23225036,16.08693937,1289.363353
10.4900,87.45147831,15.89689973,1289.202422
10.4950,87.67108027,15.711841,1289.04284
10.5000,87.89258593,15.5330558,1288.884332
10.5050,88.11704697,15.36066757,1288.726317
10.5100,88.34426098,15.19489376,1288.568975
10.5150,88.57354581,15.03528084,1288.412471
10.5200,88.8065336,14.88006145,1288.255517
10.5250,89.04265103,14.72886648,1288.098223
10.5300,89.28292027,14.58201042,1287.940098
10.5350,89.52724572,14.43970508,1287.781148
10.5400,89.77688768,14.30051138,1287.620383
10.5450,90.03110394,14.16395423,1287.457964
10.5500,90.2890204,14.02908438,1287.294031
10.5550,90.54977951,13.8949844,1287.128852
10.5600,90.81237483,13.76134502,1286.962672
10.5650,91.07722831,13.62746958,1286.795249
10.5700,91.3452485,13.49395008,1286.6262
10.5750,91.61762897,13.36130948,1286.455093
10.5800,91.89443641,13.22883463,1286.281729
10.5850,92.17482582,13.09690488,1286.106581
10.5900,92.45961781,12.96581403,1285.929506
10.5950,92.74948837,12.83635368,1285.750262
10.6000,93.04577723,12.70806998,1285.568301
10.6050,93.34837213,12.58112758,1285.383718
10.6100,93.65803858,12.45434232,1285.195887
10.6150,93.97504329,12.32790764,1285.004859
10.6200,94.29895559,12.20075103,1284.810424
10.6250,94.62882939,12.07231967,1284.612877
10.6300,94.96476011,11.94256921,1284.412183
10.6350,95.30561553,11.81025592,1284.208351
10.6400,95.65130866,11.67490497,1284.001156
10.6450,96.00233464,11.535627,1283.790022
10.6500,96.35842222,11.39056283,1283.574712
10.6550,96.7199879,11.24131583,1283.355425
10.6600,97.0863925,11.08658911,1283.132208
10.6650,97.45702628,10.9259441,1282.905283
10.6700,97.83281431,10.75975744,1282.674419
10.6750,98.21291059,10.58859679,1282.440184
10.6800,98.59747928,10.41154072,1282.202384
10.6850,98.98606766,10.22766007,1281.961003
10.6900,99.37779547,10.03697797,1281.716721
10.6950,99.77284433,9.839865576,1281.469502
10.7000,100.1709058,9.637966776,1281.219993
10.7050,100.5728747,9.43057206,1280.967406
10.7100,100.9777705,9.217577021,1280.712121
10.7150,101.3857941,8.998889566,1280.453992
10.7200,101.7966663,8.775185953,1280.193312
10.7250,102.2096269,8.546688663,1279.930331
10.7300,102.6243733,8.312190628,1279.664856
10.7350,103.0418053,8.072785288,1279.396788
10.7400,103.4615771,7.828845322,1279.126503
10.7450,103.8829466,7.580383326,1278.854329
10.7500,104.3047659,7.328467803,1278.5813
10.7550,104.7274987,7.073320722,1278.307327
10.7600,105.1500357,6.815606039,1278.033128
10.7650,105.5712665,6.556569819,1277.759564
10.7700,105.9922609,6.296339184,1277.486231
10.7750,106.4123431,6.035492786,1277.213489
10.7800,106.8311018,5.775100437,1276.941658
10.7850,107.2497316,5.515238646,1276.670006
10.7900,107.6674894,5.25732141,1276.399062
10.7950,108.0833252,5.000919067,1276.129016
10.8000,108.495911,4.745946935,1275.860294
10.8050,108.90489,4.491239484,1275.592684
10.8100,109.3109822,4.237295019,1275.326132
10.8150,109.7146908,3.984595236,1275.060541
10.8200,110.1145758,3.73387331,1274.796788
10.8250,110.5097364,3.485934,1274.53539
10.8300,110.8987549,3.24030213,1274.276944
10.8350,111.280596,2.996382269,1274.021969
10.8400,111.6542688,2.756130914,1273.771443
10.8450,112.0207437,2.520166546,1273.525207
10.8500,112.3805456,2.290441541,1273.28365
10.8550,112.7344024,2.067624663,1273.046764
10.8600,113.0824109,1.85365183,1272.815078
10.8650,113.4251043,1.647856081,1272.588387
10.8700,113.762969,1.450015663,1272.366422
10.8750,114.0949361,1.259745206,1272.149538
10.8800,114.4222012,1.077034851,1271.93737
10.8850,114.745277,0.9020497376,1271.729767
10.8900,115.0641054,0.7348581138,1271.52649
10.8950,115.3777243,0.574980624,1271.327861
10.9000,115.6853595,0.4226918724,1271.133939
10.9050,115.9884681,0.2779965791,1270.944138
10.9100,116.2885562,0.1404122745,1270.757761
10.9150,116.5873671,0.01044147136,1270.574153
10.9200,116.8854054,-0.1122627796,1270.393031
10.9250,117.1846323,-0.2286127903,1270.21355
10.9300,117.484972,-0.3397840268,1270.03528
10.9350,117.7876884,-0.4452546555,1269.857905
10.9400,118.0922431,-0.5460243468,1269.681239
10.9450,118.397156,-0.6415083285,1269.505734
10.9500,118.7015254,-0.7328883546,1269.331133
10.9550,119.0036553,-0.8217875344,1269.15734
10.9600,119.3017819,-0.9082211612,1268.98472
10.9650,119.5943111,-0.9943524099,1268.813067
10.9700,119.8805497,-1.080926225,1268.642282
10.9750,120.1592442,-1.170782144,1268.472026
10.9800,120.4308677,-1.264494407,1268.301967
10.9850,120.6939691,-1.362199662,1268.13242
10.9900,120.9494481,-1.463402022,1267.963055
10.9950,121.1961913,-1.568458792,1267.794071
11.0000,121.4371572,-1.676642778,1267.624745
11.0050,121.6719824,-1.787736114,1267.455479
11.0100,121.901844,-1.901551426,1267.285998
11.0150,122.1257711,-2.016495364,1267.117166
11.0200,122.3452214,-2.132825905,1266.948608
11.0250,122.5609461,-2.250168875,1266.780293
11.0300,122.7732522,-2.366645392,1266.612586
11.0350,122.9829374,-2.483786876,1266.444911
11.0400,123.1897664,-2.600632154,1266.277526
11.0450,123.3949549,-2.718193818,1266.109854
11.0500,123.5989344,-2.836998445,1265.941509
11.0550,123.8028273,-2.955831189,1265.772282
11.0600,124.0058007,-3.076079591,1265.60218
11.0650,124.2090353,-3.197567197,1265.43095
11.0700,124.4112692,-3.321026862,1265.259139
11.0750,124.6122329,-3.445301691,1265.087241
11.0800,124.8126004,-3.570089033,1264.915474
11.0850,125.0106794,-3.694961522,1264.74465
11.0900,125.2077012,-3.81867495,1264.574836
11.0950,125.4032643,-3.941176401,1264.406324
11.1000,125.5979799,-4.061572566,1264.239092
11.1050,125.791174,-4.179056299,1264.073571
11.1100,125.9816399,-4.293835528,1263.909882
11.1150,126.1702091,-4.40518866,1263.747933
11.1200,126.3571984,-4.512182216,1263.587678
11.1250,126.5442307,-4.615363333,1263.428593
11.1300,126.7317264,-4.715255325,1263.270403
11.1350,126.9206237,-4.810593615,1263.113095
11.1400,127.1120672,-4.902584223,1262.956109
11.1450,127.3071328,-4.99093387,1262.799357
11.1500,127.5044258,-5.077402824,1262.642955
11.1550,127.7043263,-5.161411469,1262.487019
11.1600,127.9075075,-5.245498903,1262.330964
11.1650,128.1136171,-5.328837269,1262.175111
11.1700,128.322081,-5.41077506,1262.019829
11.1750,128.5327436,-5.491394333,1261.865141
11.1800,128.7456222,-5.569909452,1261.711118
11.1850,128.9626775,-5.646654472,1261.557188
11.1900,129.1842493,-5.721334178,1261.403275
11.1950,129.4100492,-5.793903312,1261.249416
11.2000,129.6408264,-5.864799834,1261.095276
11.2050,129.8755797,-5.933792955,1260.94096
11.2100,130.1126736,-6.000016883,1260.786732
11.2150,130.3515933,-6.063951012,1260.632471
11.2200,130.5919043,-6.125375542,1260.478071
11.2250,130.8331397,-6.184713325,1260.323282
11.2300,131.0759013,-6.240621741,1260.168007
11.2350,131.3204148,-6.293940314,1260.011772
11.2400,131.5663814,-6.343438202,1259.854757
11.2450,131.815019,-6.38857856,1259.696605
11.2500,132.0668325,-6.429160414,1259.537269
11.2550,132.3228604,-6.46505533,1259.37653
11.2600,132.5836571,-6.496425038,1259.214196
11.2650,132.8509049,-6.520935831,1259.050315
11.2700,133.1245703,-6.538491626,1258.884872
11.2750,133.4052063,-6.548532238,1258.717996
11.2800,133.6912546,-6.549010445,1258.550262
11.2850,133.9831829,-6.53999958,1258.381634
11.2900,134.2806641,-6.522444015,1258.212146
11.2950,134.5833427,-6.497340333,1258.041825
11.3000,134.8892592,-6.465022174,1257.871227
11.3050,135.1966068,-6.426237462,1257.700677
11.3100,135.5036265,-6.38219595,1257.530555
11.3150,135.8098972,-6.3338843,1257.360846
11.3200,136.1118904,-6.281766559,1257.192468
11.3250,136.4075134,-6.22648982,1257.025871
11.3300,136.6967333,-6.168870255,1256.86093
11.3350,136.9780556,-6.108352166,1256.698141
11.3400,137.2519668,-6.045938223,1256.537236
11.3450,137.5166524,-5.982132659,1256.378524
11.3500,137.7718506,-5.916560152,1256.222059
11.3550,138.0169518,-5.852696097,1256.067381
11.3600,138.2525593,-5.790445439,1255.914241
11.3650,138.4751825,-5.730019566,1255.763258
11.3700,138.6852834,-5.672670223,1255.613886
11.3750,138.8822598,-5.617490816,1255.466392
11.3800,139.067393,-5.565829754,1255.320147
11.3850,139.241681,-5.517261289,1255.175014
11.3900,139.4052216,-5.472715331,1255.030744
11.3950,139.5588694,-5.431342512,1254.887335
11.4000,139.7045472,-5.392665617,1254.744635
11.4050,139.8442282,-5.355843868,1254.602479
11.4100,139.9817402,-5.31958949,1254.460526
11.4150,140.1179019,-5.28440476,1254.31852
11.4200,140.2552617,-5.249959657,1254.176172
11.4250,140.3944652,-5.215913703,1254.033453
11.4300,140.5377216,-5.181620983,1253.890141
11.4350,140.688139,-5.147414187,1253.745586
11.4400,140.8474355,-5.113165507,1253.599452
11.4450,141.0162104,-5.078791513,1253.451712
11.4500,141.1963856,-5.043962948,1253.302141
11.4550,141.3900238,-5.009343597,1253.150119
11.4600,141.5969147,-4.973472866,1252.996021
11.4650,141.8184456,-4.937888372,1252.839363
11.4700,142.0555788,-4.903394934,1252.679805
11.4750,142.308258,-4.870148801,1252.517442
11.4800,142.5767869,-4.838667796,1252.352097
11.4850,142.8596298,-4.808737653,1252.184082
11.4900,143.1568768,-4.780263983,1252.013556
11.4950,143.4689165,-4.752576285,1251.840501
11.5000,143.7948625,-4.723647527,1251.665515
11.5050,144.1330886,-4.693750742,1251.488941
11.5100,144.4842911,-4.661178329,1251.31118
11.5150,144.8464758,-4.624394831,1251.132798
11.5200,145.2189053,-4.58182709,1250.954338
11.5250,145.6004705,-4.531523386,1250.77639
11.5300,145.9893998,-4.471559184,1250.599617
11.5350,146.3839115,-4.400498628,1250.424627
11.5400,146.7823295,-4.31663112,1250.252009
11.5450,147.1815349,-4.220686695,1250.082187
11.5500,147.5801584,-4.111191006,1249.915504
11.5550,147.9754547,-3.988138847,1249.752424
11.5600,148.3654678,-3.851038271,1249.593274
11.5650,148.7460538,-3.700510298,1249.438666
11.5700,149.1139666,-3.536047529,1249.289199
11.5750,149.4662201,-3.357244718,1249.145296
11.5800,149.7994499,-3.165344791,1249.007252
11.5850,150.1108373,-2.960480422,1248.875484
11.5900,150.3986046,-2.741675474,1248.750317
11.5950,150.6611505,-2.507825059,1248.632151
11.6000,150.8969744,-2.260572725,1248.520746
11.6050,151.1071614,-1.99936413,1248.416048
11.6100,151.2917441,-1.723220523,1248.318022
11.6150,151.4502882,-1.431972646,1248.226758
11.6200,151.585185,-1.12681705,1248.141551
11.6250,151.6977185,-0.8074105085,1248.062162
11.6300,151.7893669,-0.4753294261,1247.988226
11.6350,151.8608529,-0.1291957981,1247.919842
11.6400,151.9129234,0.2294081922,1247.85668
11.6450,151.9482008,0.6005827365,1247.798381
11.6500,151.9686422,0.9824965849,1247.744542
11.6550,151.9756139,1.376687544,1247.695335
11.6600,151.9717794,1.78259309,1247.650401
11.6650,151.9627043,2.198288401,1247.608733
11.6700,151.952259,2.62364393,1247.569845
11.6750,151.9439171,3.055570232,1247.532748
11.6800,151.9387077,3.493811714,1247.497349
11.6850,151.9384831,3.934675416,1247.462765
11.6900,151.945667,4.377947663,1247.428706
11.6950,151.9622558,4.821382564,1247.394521
11.7000,151.9890067,5.26330487,1247.359888
11.7050,152.0274494,5.702360917,1247.324321
11.7100,152.0773478,6.136271829,1247.287542
11.7150,152.1397362,6.563604517,1247.249219
11.7200,152.2157769,6.984162897,1247.209182
11.7250,152.3071728,7.396815454,1247.167051
11.7300,152.4146565,7.799638917,1247.122343
11.7350,152.5388415,8.191791261,1247.074914
11.7400,152.6789332,8.572910094,1247.024905
11.7450,152.8366746,8.941169546,1246.971723
11.7500,153.0131909,9.296666421,1246.915265
11.7550,153.2077399,9.638689826,1246.855621
11.7600,153.4226261,9.966285233,1246.792236
11.7650,153.6572967,10.27951426,1246.72519
11.7700,153.9114058,10.57801185,1246.654559
11.7750,154.1858688,10.86193832,1246.580164
11.7800,154.4808882,11.130455,1246.501895
11.7850,154.7964195,11.38329188,1246.419762
11.7900,155.1312549,11.62030464,1246.333896
11.7950,155.4860383,11.84075522,1246.24414
11.8000,155.8593577,12.04370243,1246.150489
11.8050,156.2519751,12.22919881,1246.052897
11.8100,156.6621755,12.39744301,1245.951709
11.8150,157.0889548,12.54822057,1245.847158
11.8200,157.532914,12.68108194,1245.739176
11.8250,157.9928668,12.79688383,1245.628196
11.8300,158.4677684,12.89486143,1245.514235
11.8350,158.9574231,12.97567485,1245.397598
11.8400,159.4591653,13.03828671,1245.278412
11.8450,159.9726427,13.08437342,1245.157256
11.8500,160.4955093,13.11368691,1245.0344
11.8550,161.0268962,13.12740354,1244.910206
11.8600,161.5653073,13.12531682,1244.784925
11.8650,162.1105525,13.10803392,1244.658708
11.8700,162.6618026,13.07635465,1244.531809
11.8750,163.219057,13.03064817,1244.404337
11.8800,163.781333,12.97155468,1244.276595
11.8850,164.3483725,12.90079314,1244.14886
11.8900,164.9182496,12.81851472,1244.021432
11.8950,165.4875832,12.72601201,1243.894906
11.9000,166.0554095,12.62517818,1243.769722
11.9050,166.6170566,12.51704159,1243.646432
11.9100,167.1704447,12.40272904,1243.525496
11.9150,167.7136135,12.28288648,1243.406992
11.9200,168.2448357,12.15954498,1243.291425
11.9250,168.7612811,12.03302306,1243.179048
11.9300,169.2599043,11.90493213,1243.070243
11.9350,169.7400257,11.77566692,1242.964914
11.9400,170.199074,11.646522,1242.863512
11.9450,170.6355573,11.51833714,1242.766205
11.9500,171.0488493,11.39282122,1242.673196
11.9550,171.4383469,11.27046426,1242.584476
11.9600,171.8039839,11.15213748,1242.500076
11.9650,172.1456483,11.03909353,1242.420127
11.9700,172.4620315,10.93069299,1242.344496
11.9750,172.7540548,10.82794162,1242.273225
11.9800,173.021179,10.73094816,1242.206246
11.9850,173.2645256,10.64041603,1242.143516
11.9900,173.4840118,10.5537246,1242.084288
11.9950,173.6804877,10.47209533,1242.02882
12.0000,173.8559398,10.39505777,1241.976656
12.0050,174.0098935,10.32240344,1241.927813
12.0100,174.1439373,10.25399732,1241.881999
12.0150,174.2617998,10.1896797,1241.838838
12.0200,174.3632845,10.12862792,1241.798109
12.0250,174.4486852,10.07130698,1241.759857
12.0300,174.5200601,10.01705563,1241.723846
12.0350,174.5767092,9.966425644,1241.690119
12.0400,174.6213794,9.918238366,1241.658185
12.0450,174.654225,9.872398205,1241.627953
12.0500,174.6761241,9.827846839,1241.599138
12.0550,174.6877835,9.784493755,1241.571572
12.0600,174.6896236,9.741482193,1241.545088
12.0650,174.6827544,9.69881109,1241.519547
12.0700,174.6680778,9.656591221,1241.494833
12.0750,174.6471146,9.613432183,1241.470552
12.0800,174.6192441,9.569770248,1241.446792
12.0850,174.5854211,9.524871993,1241.42333
12.0900,174.5465574,9.478500385,1241.400038
12.0950,174.502915,9.43062494,1241.376877
12.1000,174.4548154,9.381084775,1241.353913
12.1050,174.4033671,9.330126125,1241.331016
12.1100,174.3500256,9.277089033,1241.30794
12.1150,174.2965967,9.221989412,1241.284521
12.1200,174.2433597,9.164802454,1241.260737
12.1250,174.1900359,9.104863607,1241.236461
12.1300,174.1384782,9.042408523,1241.21159
12.1350,174.0876765,8.977376246,1241.186224
12.1400,174.0404784,8.909875293,1241.160173
12.1450,173.997375,8.839216473,1241.133071
12.1500,173.9596446,8.765309843,1241.104917
12.1550,173.9277852,8.687489503,1241.07554
12.1600,173.9016459,8.606724627,1241.045068
12.1650,173.8831946,8.522770048,1241.013307
12.1700,173.8715214,8.435592954,1240.980359
12.1750,173.8651,8.345336309,1240.946282
12.1800,173.8657668,8.252387543,1240.91103
12.1850,173.8720563,8.155903469,1240.874542
12.1900,173.8841054,8.056709259,1240.836934
12.1950,173.9026542,7.954816169,1240.798194
12.2000,173.9276299,7.850083106,1240.758257
12.2050,173.9600493,7.742793683,1240.717116
12.2100,173.9990184,7.633411835,1240.674905
12.2150,174.0446986,7.522425606,1240.631787
12.2200,174.0964774,7.410445103,1240.587899
12.2250,174.1539353,7.298884551,1240.54355
12.2300,174.2166744,7.187893304,1240.498863
12.2350,174.282438,7.078199514,1240.454217
12.2400,174.3512661,6.970525678,1240.409674
12.2450,174.4210917,6.865636237,1240.365598
12.2500,174.4902061,6.76363569,1240.322102
12.2550,174.5575672,6.664742286,1240.279376
12.2600,174.6214028,6.569490096,1240.237635
12.2650,174.6802902,6.477904882,1240.197025
12.2700,174.7342077,6.391835952,1240.157789
12.2750,174.7811097,6.311118157,1240.120069
12.2800,174.8217236,6.234933006,1240.083642
12.2850,174.8548944,6.163867834,1240.048707
12.2900,174.8818375,6.099345307,1240.015488
12.2950,174.902817,6.040201863,1239.983645
12.3000,174.9171337,5.98634032,1239.953227
12.3050,174.9258044,5.936684711,1239.923956
12.3100,174.9305881,5.89129169,1239.895756
12.3150,174.9292294,5.849814288,1239.868758
12.3200,174.923353,5.811080626,1239.842644
12.3250,174.9145876,5.774239728,1239.817182
12.3300,174.9022208,5.739176517,1239.792339
12.3350,174.888207,5.705073315,1239.767924
12.3400,174.8722533,5.671232743,1239.743907
12.3450,174.8556736,5.638858376,1239.720533
12.3500,174.8378564,5.605396411,1239.69735
12.3550,174.8185715,5.572326655,1239.674728
12.3600,174.7977346,5.537449595,1239.652332
12.3650,174.7752355,5.501977566,1239.630556
12.3700,174.7502492,5.464553395,1239.609272
12.3750,174.7213961,5.426614433,1239.588964
12.3800,174.688752,5.386501512,1239.569376
12.3850,174.6516293,5.345053684,1239.550735
12.3900,174.6095868,5.301531972,1239.533052
12.3950,174.5609455,5.256140189,1239.516528
12.4000,174.505923,5.209084037,1239.501136
12.4050,174.442789,5.160243585,1239.487163
12.4100,174.3714966,5.109916492,1239.474634
12.4150,174.2915097,5.058114896,1239.463656
12.4200,174.2024666,5.006169891,1239.454461
12.4250,174.1046696,4.953466891,1239.446964
12.4300,173.9974277,4.90036996,1239.441269
12.4350,173.8825262,4.847067437,1239.437177
12.4400,173.7595954,4.794046123,1239.434896
12.4450,173.6283331,4.741678113,1239.434522
12.4500,173.4891553,4.689743364,1239.435932
12.4550,173.3425431,4.63956958,1239.439306
12.4600,173.190101,4.590233925,1239.444353
12.4650,173.0313318,4.542122145,1239.451179
12.4700,172.8676021,4.494898796,1239.459605
12.4750,172.7007258,4.449107671,1239.46955
12.4800,172.5296014,4.404491416,1239.481016
12.4850,172.3552554,4.361546134,1239.494088
12.4900,172.1778121,4.319752546,1239.50872
12.4950,171.9984226,4.278708251,1239.524616
12.5000,171.8157949,4.237964726,1239.541883
12.5050,171.6296315,4.198409879,1239.560653
12.5100,171.4410068,4.158950395,1239.580702
12.5150,171.2487697,4.119633676,1239.602038
12.5200,171.0531102,4.0807457,1239.62478
12.5250,170.8543064,4.040782711,1239.648545
12.5300,170.6527842,4.000505726,1239.673384
12.5350,170.4485627,3.95946551,1239.699291
12.5400,170.2425077,3.918061871,1239.726242
12.5450,170.0353063,3.876321471,1239.75413
12.5500,169.8277614,3.834272652,1239.782996
12.5550,169.6201779,3.791565404,1239.812677
12.5600,169.41396,3.74765515,1239.842957
12.5650,169.2088264,3.703804197,1239.87404
12.5700,169.0050786,3.658029399,1239.905597
12.5750,168.803177,3.60989654,1239.937463
12.5800,168.6023264,3.559816882,1239.969767
12.5850,168.4032477,3.507265901,1240.002397
12.5900,168.2070499,3.451451801,1240.035087
12.5950,168.0128,3.392837036,1240.068047
12.6000,167.8224237,3.329825687,1240.100808
12.6050,167.6367704,3.263655452,1240.133489
12.6100,167.4552388,3.192394799,1240.165811
12.6150,167.2796464,3.115892467,1240.197642
12.6200,167.110862,3.033888385,1240.228853
12.6250,166.9488874,2.944857001,1240.259146
12.6300,166.7952453,2.848935828,1240.288531
12.6350,166.6492314,2.74402701,1240.316656
12.6400,166.5124162,2.630883389,1240.343524
12.6450,166.3845362,2.507296886,1240.368748
12.6500,166.2660695,2.374222263,1240.392589
12.6550,166.1589035,2.229981661,1240.414551
12.6600,166.0626812,2.074627819,1240.434736
12.6650,165.9778303,1.906097124,1240.452707
12.6700,165.9043878,1.725050651,1240.468637
12.6750,165.8427152,1.529628299,1240.482163
12.6800,165.7910815,1.321036764,1240.493865
12.6850,165.7505521,1.098625304,1240.503538
12.6900,165.7200646,0.8620741694,1240.511176
12.6950,165.69977,0.6117633832,1240.516902
12.7000,165.6881146,0.3471399696,1240.520863
12.7050,165.6843339,0.0687606466,1240.523142
12.7100,165.6861584,-0.222702263,1240.524218
12.7150,165.6921084,-0.5274765603,1240.524197
12.7200,165.6997015,-0.8461780076,1240.523187
12.7250,165.708393,-1.177411205,1240.521484
12.7300,165.7155067,-1.519547594,1240.519716
12.7350,165.7200502,-1.873362266,1240.517883
12.7400,165.7196298,-2.237703992,1240.516381
12.7450,165.7140698,-2.611406611,1240.515398
12.7500,165.7021793,-2.993829,1240.515254
12.7550,165.6824886,-3.383312552,1240.516311
12.7600,165.6535266,-3.779095897,1240.518869
12.7650,165.6141454,-4.180740619,1240.523124
12.7700,165.5644816,-4.587811516,1240.52913
12.7750,165.5043656,-4.999488493,1240.537046
12.7800,165.4336834,-5.415380167,1240.546977
12.7850,165.3520365,-5.836065989,1240.558902
12.7900,165.2597485,-6.260352113,1240.57287
12.7950,165.1562174,-6.687943478,1240.5891
12.8000,165.0426331,-7.117212059,1240.607771
12.8050,164.9184253,-7.549063547,1240.628826
12.8100,164.7837028,-7.982821227,1240.652386
12.8150,164.6387873,-8.41850665,1240.678505
12.8200,164.4833158,-8.856327166,1240.707126
12.8250,164.3182816,-9.294891201,1240.738515
12.8300,164.1431212,-9.73448459,1240.772693
12.8350,163.9587009,-10.17464057,1240.809546
12.8400,163.764435,-10.61521693,1240.849187
12.8450,163.5607459,-11.05613958,1240.891623
12.8500,163.3469278,-11.4971691,1240.936833
12.8550,163.1237205,-11.93728792,1240.9849
12.8600,162.8917477,-12.37625163,1241.035817
12.8650,162.6529168,-12.81489369,1241.089188
12.8700,162.407966,-13.25094123,1241.145392
12.8750,162.1590461,-13.6833079,1241.204303
12.8800,161.9088631,-14.11138669,1241.265674
12.8850,161.6583214,-14.53509756,1241.329428
12.8900,161.4079135,-14.95374878,1241.395639
12.8950,161.1605006,-15.36827977,1241.463831
12.9000,160.916133,-15.77810011,1241.534072
12.9050,160.6771127,-16.1848423,1241.60592
12.9100,160.4444934,-16.5873391,1241.679335
12.9150,160.2194066,-16.98669187,1241.753907
12.9200,160.0025082,-17.38343705,1241.829517
12.9250,159.7959752,-17.77687112,1241.905963
12.9300,159.6001685,-18.16794787,1241.983005
12.9350,159.4178179,-18.55590634,1242.060281
12.9400,159.2485258,-18.94221857,1242.137653
12.9450,159.0923933,-19.32668902,1242.215054
12.9500,158.9503998,-19.71018764,1242.292123
12.9550,158.8232765,-20.09311406,1242.36874
12.9600,158.710015,-20.47504362,1242.445066
12.9650,158.6111635,-20.85611568,1242.520899
12.9700,158.5266129,-21.23698706,1242.596081
12.9750,158.4558583,-21.61720882,1242.67071
12.9800,158.4011546,-21.99664634,1242.744373
12.9850,158.3598013,-22.37468405,1242.817482
12.9900,158.3310155,-22.75049795,1242.890295
12.9950,158.3142297,-23.12432555,1242.962708
13.0000,158.3093878,-23.49528296,1243.034796
13.0050,158.3154284,-23.86295523,1243.106717
13.0100,158.3321408,-24.22692455,1243.178492
13.0150,158.3581246,-24.58567374,1243.250361
13.0200,158.3939612,-24.9386233,1243.322397
13.0250,158.4376453,-25.28485474,1243.394849
13.0300,158.4888495,-25.62478562,1243.467623
13.0350,158.545841,-25.95708985,1243.540977
13.0400,158.6083024,-26.28139606,1243.614921
13.0450,158.674922,-26.59735424,1243.689625
13.0500,158.7449711,-26.90502819,1243.764974
13.0550,158.8156762,-27.20558101,1243.841265
13.0600,158.8868711,-27.4982463,1243.918446
13.0650,158.9566884,-27.78310709,1243.996778
13.0700,159.0241471,-28.06002179,1244.07631
13.0750,159.0866136,-28.32963035,1244.157359
13.0800,159.1428345,-28.59086034,1244.240118
13.0850,159.1918464,-28.84366054,1244.32475
13.0900,159.2335358,-29.08861076,1244.411233
13.0950,159.2671071,-29.32574131,1244.499652
13.1000,159.2921911,-29.55467573,1244.590013
13.1050,159.3080492,-29.77596264,1244.682386
13.1100,159.3150609,-29.989302,1244.776723
13.1150,159.314164,-30.19429834,1244.872873
13.1200,159.3049767,-30.39163917,1244.970918
13.1250,159.2874325,-30.58040617,1245.070817
13.1300,159.2612826,-30.76120513,1245.172516
13.1350,159.2262484,-30.9341931,1245.276121
13.1400,159.1826318,-31.09987861,1245.381426
13.1450,159.1303406,-31.25751028,1245.488498
13.1500,159.0698594,-31.40771707,1245.597304
13.1550,159.0023755,-31.55111557,1245.707496
13.1600,158.9274382,-31.68652577,1245.81918
13.1650,158.8458631,-31.81536453,1245.932208
13.1700,158.7569046,-31.93899064,1246.04636
13.1750,158.6615047,-32.05786757,1246.161494
13.1800,158.558102,-32.17338975,1246.277732
13.1850,158.4479157,-32.28499831,1246.394953
13.1900,158.3309476,-32.39270988,1246.513079
13.1950,158.2080039,-32.49646206,1246.63202
13.2000,158.0789645,-32.59713071,1246.751773
13.2050,157.9452547,-32.69497945,1246.872052
13.2100,157.8069599,-32.79031348,1246.992876
13.2150,157.6652714,-32.88368633,1247.114212
13.2200,157.5218201,-32.97527474,1247.235711
13.2250,157.3768004,-33.0659644,1247.357293
13.2300,157.2319227,-33.15532253,1247.478847
13.2350,157.0874067,-33.243751,1247.600371
13.2400,156.9440758,-33.33112163,1247.721715
13.2450,156.8029857,-33.41788003,1247.842741
13.2500,156.6642099,-33.50314152,1247.963525
13.2550,156.5282251,-33.5877575,1248.083888
13.2600,156.3960483,-33.67087037,1248.203675
13.2650,156.2680673,-33.75248554,1248.322859
13.2700,156.1443231,-33.83262225,1248.441401
13.2750,156.0257327,-33.91092509,1248.559184
13.2800,155.9114532,-33.98815693,1248.676126
13.2850,155.8008858,-34.06386936,1248.79231
13.2900,155.6960813,-34.13774165,1248.907378
13.2950,155.5959817,-34.21030204,1249.02143
13.3000,155.500311,-34.28061977,1249.134586
13.3050,155.4091902,-34.34863578,1249.246841
13.3100,155.3226025,-34.41421396,1249.358076
13.3150,155.2405105,-34.4780821,1249.468384
13.3200,155.1617117,-34.53919637,1249.577829
13.3250,155.0859759,-34.5982789,1249.68649
13.3300,155.0143418,-34.65462858,1249.794159
13.3350,154.9455773,-34.70774382,1249.901231
13.3400,154.8800281,-34.75879899,1250.007485
13.3450,154.8178944,-34.80692602,1250.112997
13.3500,154.7578974,-34.85089738,1250.218108
13.3550,154.7016729,-34.89034535,1250.322547
13.3600,154.64889,-34.92593559,1250.426254
13.3650,154.5995439,-34.95619029,1250.529205
13.3700,154.5520821,-34.98127434,1250.631763
13.3750,154.5076424,-35.00030582,1250.733723
13.3800,154.4665398,-35.01362285,1250.835058
13.3850,154.4284097,-35.01987294,1250.935821
13.3900,154.3922643,-35.01898486,1251.036244
13.3950,154.3588794,-35.01009582,1251.136221
13.4000,154.3282776,-34.99334359,1251.235702
13.4050,154.3015709,-34.96764974,1251.33463
13.4100,154.2780314,-34.93252293,1251.433163
13.4150,154.257007,-34.88813791,1251.53148
13.4200,154.2388984,-34.83399685,1251.629577
13.4250,154.2246537,-34.76988563,1251.727363
13.4300,154.2141755,-34.6961059,1251.824857
13.4350,154.2079538,-34.61253329,1251.922021
13.4400,154.2054032,-34.51839927,1252.019037
13.4450,154.208093,-34.41571106,1252.115458
13.4500,154.2163898,-34.30375662,1252.211204
13.4550,154.2299278,-34.18245333,1252.306482
13.4600,154.2492642,-34.05419164,1252.400973
13.4650,154.2727173,-33.91812227,1252.494925
13.4700,154.3021643,-33.77478866,1252.588024
13.4750,154.336554,-33.62486401,1252.680348
13.4800,154.3755646,-33.46854714,1252.771873
13.4850,154.4199548,-33.3074046,1252.86223
13.4900,154.4698388,-33.14320923,1252.951175
13.4950,154.5254391,-32.97626134,1253.038787
13.5000,154.5867686,-32.80574476,1253.125028
13.5050,154.6521565,-32.63251792,1253.210272
13.5100,154.7228879,-32.45745208,1253.294145
13.5150,154.7974179,-32.28039146,1253.376913
13.5200,154.8756467,-32.10108245,1253.458677
13.5250,154.9572541,-31.91970271,1253.539471
13.5300,155.04149,-31.7374037,1253.619253
13.5350,155.1275859,-31.55383355,1253.698217
13.5400,155.2155056,-31.36866672,1253.776405
13.5450,155.3041158,-31.18238392,1253.853895
13.5500,155.3943643,-30.99545918,1253.930481
13.5550,155.4849644,-30.80794147,1254.006401
13.5600,155.574475,-30.62026142,1254.081948
13.5650,155.6615257,-30.4329021,1254.157384
13.5700,155.7462785,-30.24628521,1254.232681
13.5750,155.8256206,-30.06092663,1254.3083
13.5800,155.8984298,-29.87681631,1254.38454
13.5850,155.9645205,-29.69447271,1254.461358
13.5900,156.0225607,-29.51380313,1254.538991
13.5950,156.0726444,-29.33426663,1254.617552
13.6000,156.1132364,-29.15625854,1254.697154
13.6050,156.1442768,-28.97973244,1254.777904
13.6100,156.1642865,-28.80492547,1254.86013
13.6150,156.173848,-28.63219693,1254.943487
13.6200,156.1719841,-28.46136712,1255.028345
13.6250,156.158564,-28.29228899,1255.11463
13.6300,156.1328787,-28.12426636,1255.202584
13.6350,156.0948244,-27.95836844,1255.292037
13.6400,156.0435614,-27.79267639,1255.383245
13.6450,155.9788659,-27.62867623,1255.476023
13.6500,155.9012794,-27.46549803,1255.570324
13.6550,155.8121131,-27.30359758,1255.665821
13.6600,155.7100824,-27.14174384,1255.762968
13.6650,155.5964548,-26.98054917,1255.861404
13.6700,155.4716134,-26.82004272,1255.961046
13.6750,155.3353385,-26.6600221,1256.061954
13.6800,155.1895817,-26.50074756,1256.163624
13.6850,155.035488,-26.342703,1256.265888
13.6900,154.873526,-26.18582192,1256.368712
13.6950,154.7038425,-26.03066954,1256.472043
13.7000,154.5276047,-25.87687634,1256.575848
13.7050,154.3441944,-25.72500206,1256.680181
13.7100,154.1552901,-25.5743293,1256.7848
13.7150,153.9611852,-25.42446665,1256.889642
13.7200,153.7629504,-25.27544173,1256.994552
13.7250,153.5603015,-25.12681599,1257.099664
13.7300,153.3554258,-24.97794545,1257.204713
13.7350,153.149146,-24.82832672,1257.309579
13.7400,152.9438708,-24.67823807,1257.41381
13.7450,152.7390517,-24.52525529,1257.517904
13.7500,152.5366454,-24.36930912,1257.621489
13.7550,152.3372843,-24.21038063,1257.724527
13.7600,152.1412907,-24.04698299,1257.827223
13.7650,151.9515172,-23.87907283,1257.929062
13.7700,151.7672538,-23.70588794,1258.030336
13.7750,151.5899968,-23.52813447,1258.130628
13.7800,151.4211958,-23.34415345,1258.229885
13.7850,151.2596511,-23.15402845,1258.32835
13.7900,151.1064664,-22.95760223,1258.425967
13.7950,150.9608612,-22.755304,1258.522655
13.8000,150.824544,-22.5486588,1258.617928
13.8050,150.6975352,-22.33620037,1258.711886
13.8100,150.5783314,-22.119878,1258.804605
