type,name,time_units,begin_time,frequency,count,units
signal_3d,"Noraxon MyoMotion-Trajectories-Ulnar styloid process RT","s",0.0000,200,4984,"mm"

time,x,y,z
0.0000,105.0486136,28.38425733,994.0660986
0.0050,105.120519,28.31091323,994.037147
0.0100,105.1924379,28.23755948,994.0082254
0.0150,105.2643703,28.16419607,993.9793339
0.0200,105.3431316,28.08395673,993.9478533
0.0250,105.4285442,27.9971295,993.9139006
0.0300,105.5203772,27.90410169,993.8776213
0.0350,105.618358,27.80534204,993.8391836
0.0400,105.7221786,27.70137819,993.7987732
0.0450,105.8314992,27.59277078,993.7565871
0.0500,105.945954,27.48009404,993.7128284
0.0550,106.0651532,27.36392417,993.6677033
0.0600,106.1886813,27.2448283,993.6214189
0.0650,106.3160957,27.12335377,993.5741813
0.0700,106.4469346,27.00002319,993.5261922
0.0750,106.5807292,26.87533326,993.477645
0.0800,106.7170179,26.74975309,993.4287216
0.0850,106.8553557,26.62372302,993.3795903
0.0900,106.9953121,26.49765319,993.3304063
0.0950,107.1364632,26.37192129,993.2813128
0.1000,107.2783807,26.24687373,993.2324435
0.1050,107.4206204,26.12283177,993.183926
0.1100,107.5627093,26.00010233,993.1358872
0.1150,107.7041246,25.87899152,993.0884601
0.1200,107.8442683,25.75981547,993.0417919
0.1250,107.9824497,25.64290416,992.9960486
0.1300,108.1178791,25.52860053,992.9514165
0.1350,108.2496677,25.41725679,992.9081013
0.1400,108.376836,25.30922607,992.866325
0.1450,108.4983335,25.20485036,992.8263206
0.1500,108.6130672,25.10444685,992.7883242
0.1550,108.7429451,24.91506322,992.7336605
0.1600,108.8582446,24.7315259,992.6830102
0.1650,108.9572957,24.55532409,992.6369451
0.1700,109.0414895,24.38685072,992.5951802
0.1750,109.1085788,24.22602121,992.5581906
0.1800,109.1580079,24.07342259,992.525952
0.1850,109.1888877,23.92895026,992.4986807
0.1900,109.201296,23.79425415,992.4766142
0.1950,109.1950466,23.66833003,992.4595928
0.2000,109.1697371,23.55254636,992.4479303
0.2050,109.1269105,23.44681663,992.4413457
0.2100,109.0655767,23.35107285,992.4399649
0.2150,108.9862077,23.26611535,992.4438736
0.2200,108.889579,23.19047114,992.4527097
0.2250,108.776497,23.12553939,992.4665584
0.2300,108.6481639,23.06943481,992.4849154
0.2350,108.5059476,23.02289152,992.5077519
0.2400,108.3528016,22.98676876,992.5345289
0.2450,108.1892914,22.95857556,992.5648579
0.2500,108.0182175,22.93896731,992.5982842
0.2550,107.8404139,22.9264738,992.6344476
0.2600,107.658396,22.92207051,992.6729407
0.2650,107.4738148,22.92376915,992.7131867
0.2700,107.2877173,22.93319645,992.7552218
0.2750,107.100792,22.94864818,992.7986506
0.2800,106.9140612,22.96954304,992.8432125
0.2850,106.7289846,22.99706649,992.8887451
0.2900,106.5463497,23.0295071,992.9349066
0.2950,106.3665544,23.06596217,992.9813417
0.3000,106.1902983,23.10662336,993.0279429
0.3050,106.019884,23.15157112,993.0741277
0.3100,105.8558481,23.19952649,993.1195752
0.3150,105.699557,23.25131481,993.1640551
0.3200,105.5504325,23.30443247,993.2072113
0.3250,105.409505,23.35806593,993.2486893
0.3300,105.2780245,23.41356826,993.2883728
0.3350,105.1568117,23.46905428,993.3257264
0.3400,105.0460681,23.52369294,993.3605364
0.3450,104.9463684,23.57662497,993.3925794
0.3500,104.8580427,23.62818349,993.4217155
0.3550,104.7821011,23.67718049,993.4476376
0.3600,104.7202234,23.72241835,993.4697206
0.3650,104.6705058,23.76151779,993.488073
0.3700,104.6335628,23.79518465,993.5025687
0.3750,104.6090023,23.8218838,993.5130846
0.3800,104.5974991,23.84032995,993.5192846
0.3850,104.5986,23.8500034,993.5212266
0.3900,104.6108759,23.85135534,993.5191885
0.3950,104.6348912,23.84370102,993.5130651
0.4000,104.6682941,23.82599642,993.503054
0.4050,104.7114253,23.79936422,993.4895089
0.4100,104.7625425,23.76235108,993.4725252
0.4150,104.8208892,23.71692012,993.4525393
0.4200,104.8860796,23.66341147,993.4297795
0.4250,104.9560864,23.60140387,993.4045843
0.4300,105.0289655,23.53199617,993.3775892
0.4350,105.1058178,23.4567417,993.3487549
0.4400,105.1850911,23.37567298,993.318489
0.4450,105.2667811,23.28915173,993.2868678
0.4500,105.3505317,23.19896281,993.2542241
0.4550,105.4359686,23.10509732,993.2206811
0.4600,105.5242083,23.00797837,993.1861351
0.4650,105.6149928,22.90897968,993.1508494
0.4700,105.7076171,22.80793909,993.1150257
0.4750,105.8028734,22.7065808,993.0787083
0.4800,105.9005587,22.60408782,993.0419462
0.4850,106.0006943,22.50202702,993.0049867
0.4900,106.1032592,22.40032275,992.967857
0.4950,106.2087391,22.2993795,992.9304746
0.5000,106.3169977,22.19803966,992.8927173
0.5050,106.4275583,22.09800491,992.8549119
0.5100,106.5416948,21.99861567,992.8168172
0.5150,106.6585139,21.89919749,992.7784593
0.5200,106.7780125,21.8011012,992.7401048
0.5250,106.9003743,21.70439288,992.7016286
0.5300,107.0254973,21.61072915,992.6632104
0.5350,107.15413,21.51867267,992.6244477
0.5400,107.2854631,21.42784345,992.5855477
0.5450,107.4191203,21.33945388,992.5466407
0.5500,107.5551676,21.25459696,992.5077852
0.5550,107.6933162,21.17268077,992.4690283
0.5600,107.8326813,21.09255362,992.4302869
0.5650,107.9736847,21.01554988,992.3916936
0.5700,108.1147469,20.93943569,992.3532239
0.5750,108.2555892,20.86550704,992.3151005
0.5800,108.3963917,20.79375033,992.2772388
0.5850,108.5355485,20.72178022,992.2396806
0.5900,108.6724073,20.65182283,992.2027529
0.5950,108.806003,20.58417719,992.1667417
0.6000,108.936441,20.51700463,992.1313392
0.6050,109.0610623,20.44891969,992.0970119
0.6100,109.1796155,20.38111039,992.0638961
0.6150,109.2918751,20.31195627,992.0318895
0.6200,109.3978264,20.24162722,992.0010761
0.6250,109.4957749,20.1707896,991.9718749
0.6300,109.5852578,20.0968724,991.944016
0.6350,109.6647852,20.02136742,991.9181083
0.6400,109.7341547,19.94392804,991.8941433
0.6450,109.7936557,19.8640186,991.872028
0.6500,109.8423902,19.78179259,991.8520219
0.6550,109.8789305,19.69804769,991.8344568
0.6600,109.9041975,19.61239079,991.8192008
0.6650,109.9185365,19.52679568,991.8063755
0.6700,109.9218145,19.44085106,991.7960329
0.6750,109.9146853,19.35616752,991.7882951
0.6800,109.8965286,19.27305066,991.7832695
0.6850,109.8677711,19.19356616,991.7811845
0.6900,109.8297705,19.11611981,991.7815866
0.6950,109.7817987,19.042113,991.7846827
0.7000,109.7265358,18.97182599,991.7901762
0.7050,109.6633514,18.90680687,991.7982828
0.7100,109.5918942,18.84633726,991.8090411
0.7150,109.5139821,18.78964331,991.8219503
0.7200,109.4295769,18.73733571,991.8371287
0.7250,109.3396981,18.68947483,991.8543652
0.7300,109.2467425,18.64482571,991.8729567
0.7350,109.1493018,18.60474966,991.8934074
0.7400,109.0497088,18.56886741,991.9151755
0.7450,108.9484363,18.53664702,991.9381124
0.7500,108.8444086,18.5082945,991.9625059
0.7550,108.7385914,18.48333264,991.9879138
0.7600,108.6308642,18.46195458,992.0144293
0.7650,108.5207141,18.44275597,992.0419849
0.7700,108.4082036,18.4253319,992.070565
0.7750,108.2931389,18.40978645,992.1000888
0.7800,108.1758029,18.39606425,992.1304828
0.7850,108.0563911,18.38366138,992.1615978
0.7900,107.9343096,18.37246012,992.1934589
0.7950,107.8092195,18.36096312,992.2260052
0.8000,107.6812406,18.3504128,992.2593164
0.8050,107.5491607,18.33982477,992.2934447
0.8100,107.4135866,18.32907302,992.3281794
0.8150,107.2741462,18.318819,992.363774
0.8200,107.130252,18.30844168,992.4002473
0.8250,106.9811302,18.29722138,992.4376678
0.8300,106.8270382,18.28457194,992.4760284
0.8350,106.6671883,18.27132623,992.5155824
0.8400,106.5009675,18.25765776,992.5564847
0.8450,106.3289895,18.24353619,992.5985826
0.8500,106.1516471,18.22708618,992.6416873
0.8550,105.9697537,18.20986001,992.6857541
0.8600,105.7845087,18.1926237,992.7307931
0.8650,105.5962005,18.17561846,992.7767052
0.8700,105.4061813,18.16004287,992.8234833
0.8750,105.2154321,18.14663292,992.8709704
0.8800,105.0221158,18.13499984,992.9196112
0.8850,104.8287093,18.12598512,992.9689553
0.8900,104.6354097,18.11990077,993.0189817
0.8950,104.4429904,18.116596,993.0696743
0.9000,104.2500409,18.11727395,993.1214568
0.9050,104.0584479,18.12224111,993.1738714
0.9100,103.8683519,18.13241057,993.2270446
0.9150,103.6788948,18.14725804,993.2809944
0.9200,103.4904978,18.16786354,993.3357909
0.9250,103.3036653,18.19270313,993.391022
0.9300,103.119286,18.22349153,993.4466618
0.9350,102.9385662,18.25987731,993.5023529
0.9400,102.7592697,18.30143819,993.5584509
0.9450,102.5816321,18.34817587,993.6148524
0.9500,102.405969,18.39974886,993.6713865
0.9550,102.2331409,18.45498889,993.7276859
0.9600,102.061783,18.51549696,993.7841013
0.9650,101.8916754,18.58031243,993.8405675
0.9700,101.7232272,18.64825197,993.8967409
0.9750,101.5563507,18.71912582,993.95249
0.9800,101.3917025,18.79355432,994.0077527
0.9850,101.2300936,18.87067743,994.0620602
0.9900,101.0728477,18.95037305,994.1150153
0.9950,100.920485,19.03180618,994.1664163
1.0000,100.7732794,19.11481259,994.2160181
1.0050,100.6306044,19.19875274,994.2639029
1.0100,100.4941799,19.28520494,994.309804
1.0150,100.3632953,19.37391013,994.3540281
1.0200,100.2373432,19.46391754,994.3964466
1.0250,100.1169581,19.55566553,994.4371221
1.0300,100.0002046,19.64910839,994.4765732
1.0350,99.88702185,19.74296526,994.5147459
1.0400,99.77512523,19.83571229,994.5519751
1.0450,99.66376187,19.92731249,994.5883731
1.0500,99.55301828,20.01671602,994.6240124
1.0550,99.44137004,20.10244972,994.6591172
1.0600,99.32828486,20.18480118,994.693951
1.0650,99.21346242,20.26298006,994.7285845
1.0700,99.09521313,20.33652873,994.7633863
1.0750,98.97371778,20.4049549,994.7983778
1.0800,98.84804392,20.46714903,994.8337918
1.0850,98.71751661,20.52230135,994.8698252
1.0900,98.58153189,20.57013966,994.9067198
1.0950,98.43955869,20.6123942,994.9449974
1.1000,98.29074494,20.64646365,994.9846296
1.1050,98.1358426,20.6727885,995.0256395
1.1100,97.97412115,20.69266844,995.0685369
1.1150,97.80535791,20.70544895,995.1133519
1.1200,97.62992589,20.71104993,995.1601173
1.1250,97.44879748,20.71089848,995.2089659
1.1300,97.26119397,20.70559825,995.2602088
1.1350,97.06799728,20.6960126,995.3139835
1.1400,96.86893874,20.68157223,995.3703303
1.1450,96.66522373,20.66436247,995.4295378
1.1500,96.4550721,20.64637288,995.4923601
1.1550,96.23781323,20.62692809,995.5590243
1.1600,96.01128508,20.609133,995.6305421
1.1650,95.77562351,20.59209457,995.7070177
1.1700,95.52865854,20.57884895,995.7893739
1.1750,95.26907176,20.56805836,995.8780289
1.1800,94.9976039,20.5625932,995.9731721
1.1850,94.71191518,20.56355796,996.0756707
1.1900,94.41132477,20.57223911,996.1860128
1.1950,94.09554891,20.58968512,996.304402
1.2000,93.7640275,20.61678407,996.4312083
1.2050,93.41579823,20.65508164,996.5670758
1.2100,93.05010261,20.70552928,996.7124438
1.2150,92.66637158,20.76904645,996.8675989
1.2200,92.26452226,20.84676391,997.0329015
1.2250,91.84361385,20.93957033,997.2089201
1.2300,91.40356694,21.04823801,997.3960038
1.2350,90.94306565,21.17233161,997.5946893
1.2400,90.46440778,21.31516891,997.8049508
1.2450,89.96637494,21.47610586,998.0272459
1.2500,89.44871954,21.65622143,998.2619807
1.2550,88.91195083,21.85632637,998.5094866
1.2600,88.3545367,22.0755543,998.7701989
1.2650,87.77862358,22.31414698,999.0438939
1.2700,87.18389291,22.57522389,999.3315099
1.2750,86.56915087,22.85728948,999.6333247
1.2800,85.93550525,23.1606381,999.9494899
1.2850,85.28302842,23.48423321,1000.280303
1.2900,84.6099407,23.82966259,1000.626686
1.2950,83.91682251,24.19648578,1000.988777
1.3000,83.20346955,24.5858072,1001.367195
1.3050,82.47018982,24.99562751,1001.76169
1.3100,81.71597477,25.42605676,1002.172937
1.3150,80.94118215,25.87672636,1002.600944
1.3200,80.14644027,26.34791081,1003.04595
1.3250,79.32979541,26.83825141,1003.508341
1.3300,78.49271873,27.34683614,1003.987803
1.3350,77.63318617,27.87333424,1004.485039
1.3400,76.75389063,28.41838282,1004.999658
1.3450,75.85350831,28.98064168,1005.532223
1.3500,74.93249733,29.55958713,1006.082492
1.3550,73.9908809,30.15462871,1006.650714
1.3600,73.02798801,30.76466493,1007.237017
1.3650,72.04501685,31.38822449,1007.8412
1.3700,71.04247227,32.0257528,1008.463224
1.3750,70.02000184,32.67478041,1009.103258
1.3800,68.97624315,33.33460676,1009.761497
1.3850,67.91258092,34.00513267,1010.437858
1.3900,66.82958384,34.68423677,1011.132061
1.3950,65.72666831,35.37224084,1011.844593
1.4000,64.60581993,36.06833646,1012.575083
1.4050,63.46641132,36.77077676,1013.323862
1.4100,62.30805919,37.47807203,1014.090985
1.4150,61.13258866,38.18904576,1014.876221
1.4200,59.94001481,38.9035375,1015.680018
1.4250,58.73069964,39.62089235,1016.50223
1.4300,57.50514483,40.33987728,1017.342931
1.4350,56.26458165,41.05820617,1018.201549
1.4400,55.00913253,41.77698136,1019.078661
1.4450,53.73770227,42.49618675,1019.974834
1.4500,52.45136762,43.21362739,1020.889787
1.4550,51.15003929,43.9306727,1021.823964
1.4600,49.83575548,44.64412486,1022.776497
1.4650,48.50755777,45.35554356,1023.747939
1.4700,47.16582703,46.06306945,1024.738039
1.4750,45.81161198,46.7680881,1025.746583
1.4800,44.44467233,47.46941502,1026.773598
1.4850,43.06557311,48.16742507,1027.81927
1.4900,41.67394635,48.8609983,1028.883338
1.4950,40.2697407,49.55006041,1029.965867
1.5000,38.85353832,50.23517153,1031.067124
1.5050,37.42516258,50.91552385,1032.186424
1.5100,35.98435324,51.58975615,1033.323747
1.5150,34.5307296,52.25988616,1034.47972
1.5200,33.0657786,52.92384961,1035.653144
1.5250,31.5892142,53.58197983,1036.84431
1.5300,30.10163616,54.23497057,1038.052968
1.5350,28.60259056,54.88227003,1039.278937
1.5400,27.09227918,55.52330449,1040.522395
1.5450,25.57279569,56.15934765,1041.782751
1.5500,24.04498864,56.7893154,1043.059785
1.5550,22.50886201,57.4145672,1044.353463
1.5600,20.96601406,58.03496003,1045.663372
1.5650,19.4153643,58.65163305,1046.989949
1.5700,17.85934787,59.26423055,1048.332337
1.5750,16.29815276,59.87450055,1049.691079
1.5800,14.73208962,60.48222541,1051.065862
1.5850,13.16147253,61.0887195,1052.457041
1.5900,11.58837652,61.69358283,1053.864065
1.5950,10.01237665,62.29640426,1055.287146
1.6000,8.432838517,62.89641753,1056.726233
1.6050,6.851198256,63.49514143,1058.18177
1.6100,5.267655978,64.09090928,1059.653882
1.6150,3.682358864,64.68363702,1061.142476
1.6200,2.094024787,65.27122999,1062.64743
1.6250,0.5052568068,65.85506768,1064.168828
1.6300,-1.084910566,66.43367364,1065.706373
1.6350,-2.672554779,67.0063594,1067.258682
1.6400,-4.259433035,67.57395932,1068.827174
1.6450,-5.844339228,68.13515821,1070.410538
1.6500,-7.42630762,68.6905361,1072.009032
1.6550,-9.004511309,69.24015992,1073.622597
1.6600,-10.57761086,69.78288646,1075.250226
1.6650,-12.14402911,70.32095949,1076.892262
1.6700,-13.70330946,70.85332705,1078.548059
1.6750,-15.25449473,71.38052403,1080.217231
1.6800,-16.79480766,71.90477097,1081.899237
1.6850,-18.32429097,72.42428096,1083.593747
1.6900,-19.84223768,72.94085005,1085.301033
1.6950,-21.34722973,73.45318215,1087.01952
1.7000,-22.84004887,73.96181274,1088.749505
1.7050,-24.31949722,74.46705684,1090.490557
1.7100,-25.783623,74.9707823,1092.241532
1.7150,-27.23280809,75.47217588,1094.002343
1.7200,-28.66530973,75.97077045,1095.771855
1.7250,-30.08156002,76.46664986,1097.550926
1.7300,-31.48121867,76.95936634,1099.339304
1.7350,-32.86491822,77.44909106,1101.136998
1.7400,-34.23285766,77.93556145,1102.944286
1.7450,-35.58473617,78.415423,1104.759792
1.7500,-36.92128497,78.88890804,1106.583694
1.7550,-38.2423256,79.35513208,1108.415545
1.7600,-39.54864159,79.81323872,1110.254964
1.7650,-40.83993828,80.2620221,1112.101877
1.7700,-42.11677804,80.70147004,1113.95605
1.7750,-43.37801502,81.13140805,1115.817212
1.7800,-44.62501681,81.5519555,1117.685953
1.7850,-45.85673501,81.96266729,1119.561374
1.7900,-47.07354023,82.36304517,1121.443334
1.7950,-48.27511813,82.75353053,1123.331634
1.8000,-49.46095461,83.13414168,1125.225612
1.8050,-50.63014442,83.50630541,1127.125765
1.8100,-51.78295403,83.87016021,1129.03117
1.8150,-52.9182381,84.22478652,1130.941391
1.8200,-54.03646256,84.57181753,1132.856784
1.8250,-55.1388738,84.91100297,1134.777443
1.8300,-56.22577806,85.24091976,1136.703465
1.8350,-57.29599061,85.56398111,1138.63413
1.8400,-58.34998896,85.87848432,1140.568944
1.8450,-59.3880721,86.18467678,1142.508213
1.8500,-60.41101342,86.48450238,1144.452173
1.8550,-61.41879392,86.77595956,1146.399819
1.8600,-62.41194207,87.05957902,1148.351545
1.8650,-63.38879428,87.33512276,1150.307136
1.8700,-64.35171572,87.6005753,1152.266394
1.8750,-65.3008134,87.85541343,1154.229347
1.8800,-66.23784465,88.09894489,1156.196042
1.8850,-67.16192231,88.33150374,1158.166186
1.8900,-68.07523751,88.5508971,1160.139849
1.8950,-68.97738007,88.75870191,1162.117048
1.9000,-69.86823755,88.95534131,1164.097785
1.9050,-70.74855626,89.13955453,1166.08171
1.9100,-71.61878328,89.31056224,1168.067559
1.9150,-72.47951896,89.46871574,1170.056148
1.9200,-73.32981839,89.61427521,1172.047823
1.9250,-74.1701661,89.74712926,1174.042241
1.9300,-75.00082782,89.86835367,1176.039888
1.9350,-75.82248022,89.97642696,1178.040859
1.9400,-76.63600207,90.07132798,1180.0445
1.9450,-77.44086886,90.15361494,1182.05183
1.9500,-78.23782975,90.22248655,1184.062258
1.9550,-79.02727344,90.27797877,1186.074904
1.9600,-79.80958733,90.32017468,1188.090583
1.9650,-80.5853393,90.3489792,1190.108222
1.9700,-81.35364253,90.36500187,1192.128443
1.9750,-82.11424536,90.36792542,1194.151016
1.9800,-82.86750761,90.35674009,1196.175896
1.9850,-83.61235109,90.33341301,1198.202538
1.9900,-84.34913684,90.29744004,1200.230624
1.9950,-85.07706451,90.24768426,1202.259883
2.0000,-85.7953543,90.18552993,1204.291163
2.0050,-86.50511126,90.10992946,1206.322908
2.0100,-87.20718155,90.02033543,1208.356727
2.0150,-87.90195008,89.91763495,1210.392252
2.0200,-88.58900685,89.80221415,1212.428722
2.0250,-89.26801096,89.67465143,1214.465095
2.0300,-89.93893063,89.5353543,1216.501198
2.0350,-90.60101185,89.38568907,1218.537169
2.0400,-91.25392578,89.22497587,1220.571072
2.0450,-91.89842313,89.05559595,1222.604075
2.0500,-92.53418936,88.87645199,1224.635232
2.0550,-93.16165671,88.68745815,1226.66416
2.0600,-93.78138093,88.49000714,1228.691603
2.0650,-94.39301658,88.28473795,1230.716355
2.0700,-94.99719856,88.07229798,1232.739441
2.0750,-95.59292777,87.85373155,1234.760797
2.0800,-96.18018716,87.62847442,1236.779588
2.0850,-96.75994817,87.39808328,1238.795585
2.0900,-97.3323861,87.1630964,1240.808819
2.0950,-97.89651379,86.92493057,1242.818693
2.1000,-98.45285773,86.68295769,1244.825223
2.1050,-99.00261237,86.43739245,1246.828442
2.1100,-99.54389055,86.18790783,1248.827875
2.1150,-100.0778915,85.93549428,1250.823464
2.1200,-100.6046744,85.67971119,1252.814928
2.1250,-101.1227308,85.42102067,1254.800252
2.1300,-101.6315766,85.15996269,1256.779574
2.1350,-102.1300367,84.89745718,1258.752965
2.1400,-102.6184349,84.63449919,1260.72127
2.1450,-103.0973146,84.37150513,1262.684215
2.1500,-103.5653877,84.10809509,1264.640777
2.1550,-104.0218747,83.84530359,1266.592271
2.1600,-104.466683,83.58280503,1268.538068
2.1650,-104.902088,83.32119894,1270.477493
2.1700,-105.3273233,83.05999766,1272.411184
2.1750,-105.7408629,82.79983969,1274.33774
2.1800,-106.1436399,82.54058236,1276.258206
2.1850,-106.5367416,82.28175447,1278.172433
2.1900,-106.920116,82.02393187,1280.080946
2.1950,-107.2940258,81.76819194,1281.983451
2.2000,-107.6585215,81.51285315,1283.880573
2.2050,-108.0142957,81.25984588,1285.771588
2.2100,-108.3612608,81.01032929,1287.65719
2.2150,-108.6994302,80.76319892,1289.537302
2.2200,-109.0297053,80.52090226,1291.411819
2.2250,-109.3527924,80.28196474,1293.281025
2.2300,-109.6675531,80.04670749,1295.144762
2.2350,-109.9747628,79.81572965,1297.003497
2.2400,-110.2749681,79.58750646,1298.856896
2.2450,-110.568866,79.36316165,1300.705521
2.2500,-110.8564286,79.14285023,1302.548734
2.2550,-111.1367386,78.92673397,1304.386578
2.2600,-111.4089459,78.71569028,1306.21828
2.2650,-111.6735355,78.50925555,1308.043954
2.2700,-111.930389,78.30787466,1309.863306
2.2750,-112.1801774,78.11150942,1311.676817
2.2800,-112.4217013,77.92110258,1313.484232
2.2850,-112.6550318,77.73694224,1315.285167
2.2900,-112.8799217,77.55832564,1317.078938
2.2950,-113.0966323,77.38510855,1318.866591
2.3000,-113.3053217,77.21712324,1320.647634
2.3050,-113.5045421,77.05489905,1322.421832
2.3100,-113.694046,76.89728537,1324.188434
2.3150,-113.8728118,76.74443032,1325.946386
2.3200,-114.0415845,76.59528734,1327.696696
2.3250,-114.200746,76.44885023,1329.439809
2.3300,-114.3500296,76.30471714,1331.175061
2.3350,-114.4907703,76.16214775,1332.902931
2.3400,-114.6231222,76.02062932,1334.624348
2.3450,-114.7477338,75.87771009,1336.338173
2.3500,-114.8645119,75.73524753,1338.045104
2.3550,-114.9735412,75.59082789,1339.745885
2.3600,-115.0751658,75.44543666,1341.439706
2.3650,-115.1695673,75.29827153,1343.127856
2.3700,-115.25674,75.14841673,1344.808864
2.3750,-115.3378131,74.99492966,1346.482595
2.3800,-115.4124789,74.83933439,1348.149922
2.3850,-115.4809957,74.68035455,1349.81082
2.3900,-115.5421104,74.51892091,1351.464969
2.3950,-115.5982589,74.35294373,1353.112745
2.4000,-115.6491346,74.18410843,1354.75405
2.4050,-115.6941953,74.01139762,1356.387695
2.4100,-115.7349405,73.83471759,1358.014381
2.4150,-115.7711277,73.65289612,1359.633269
2.4200,-115.8030838,73.4657107,1361.245077
2.4250,-115.8311642,73.27331531,1362.850696
2.4300,-115.8572467,73.07376782,1364.449397
2.4350,-115.8829186,72.86568621,1366.041201
2.4400,-115.9079597,72.64957032,1367.625958
2.4450,-115.9322989,72.42508654,1369.204498
2.4500,-115.9570312,72.19151758,1370.777156
2.4550,-115.9825991,71.9497733,1372.343489
2.4600,-116.0081615,71.70010451,1373.902346
2.4650,-116.0331972,71.44190001,1375.454746
2.4700,-116.0589262,71.175715,1377.000464
2.4750,-116.0860174,70.90266261,1378.540118
2.4800,-116.1120879,70.62485834,1380.073867
2.4850,-116.1373585,70.34165114,1381.601056
2.4900,-116.1610002,70.05454886,1383.121638
2.4950,-116.1831948,69.76271483,1384.634939
2.5000,-116.2033024,69.46806588,1386.140743
2.5050,-116.2215954,69.17130059,1387.640814
2.5100,-116.2357135,68.87312079,1389.135317
2.5150,-116.2439833,68.57535825,1390.623083
2.5200,-116.2465736,68.2775486,1392.10369
2.5250,-116.2431678,67.98016177,1393.576772
2.5300,-116.2330713,67.68301774,1395.041881
2.5350,-116.2161087,67.38718936,1396.499711
2.5400,-116.1908892,67.0940194,1397.949277
2.5450,-116.1571364,66.80251773,1399.389494
2.5500,-116.1140195,66.51255359,1400.821306
2.5550,-116.061198,66.22507626,1402.244124
2.5600,-115.9980569,65.93850946,1403.657961
2.5650,-115.9237612,65.65354589,1405.062725
2.5700,-115.8402605,65.36892548,1406.45779
2.5750,-115.7455831,65.08601493,1407.843043
2.5800,-115.640657,64.80423069,1409.2189
2.5850,-115.5239366,64.5213916,1410.584927
2.5900,-115.3950599,64.23942404,1411.941551
2.5950,-115.2543672,63.95823029,1413.288033
2.6000,-115.1005407,63.67852955,1414.622826
2.6050,-114.935146,63.39935423,1415.947238
2.6100,-114.7580289,63.12162456,1417.260583
2.6150,-114.5706063,62.84524576,1418.564051
2.6200,-114.3727789,62.56994573,1419.857122
2.6250,-114.1652313,62.29682638,1421.140316
2.6300,-113.9483809,62.02419974,1422.413855
2.6350,-113.7216385,61.75352695,1423.678302
2.6400,-113.483984,61.4849973,1424.933308
2.6450,-113.2346651,61.21931643,1426.179221
2.6500,-112.9736092,60.95430386,1427.415519
2.6550,-112.7023331,60.69227481,1428.642364
2.6600,-112.4205793,60.43125918,1429.859398
2.6650,-112.1295912,60.17115836,1431.066699
2.6700,-111.8293615,59.91161971,1432.264612
2.6750,-111.5222613,59.65220454,1433.453808
2.6800,-111.2082193,59.39240026,1434.634607
2.6850,-110.887944,59.13283792,1435.806179
2.6900,-110.5623959,58.8718134,1436.969541
2.6950,-110.2314297,58.60983019,1438.124263
2.7000,-109.895154,58.34743924,1439.270764
2.7050,-109.5536864,58.08558102,1440.409146
2.7100,-109.2072101,57.82432952,1441.539306
2.7150,-108.8563512,57.56394918,1442.66167
2.7200,-108.5022759,57.30322351,1443.775889
2.7250,-108.1441112,57.04293435,1444.882552
2.7300,-107.7817902,56.78487172,1445.982031
2.7350,-107.415522,56.52805442,1447.074387
2.7400,-107.0457477,56.27251669,1448.15928
2.7450,-106.6729829,56.01841489,1449.235886
2.7500,-106.2982531,55.76634882,1450.304501
2.7550,-105.9228834,55.51602238,1451.365666
2.7600,-105.547217,55.26768069,1452.420407
2.7650,-105.1702147,55.02097226,1453.468748
2.7700,-104.7912216,54.77736476,1454.510714
2.7750,-104.410294,54.53674352,1455.54666
2.7800,-104.0275782,54.29834819,1456.574382
2.7850,-103.6427648,54.06316206,1457.595113
2.7900,-103.2563066,53.83117146,1458.608316
2.7950,-102.8672855,53.60183443,1459.615177
2.8000,-102.4757016,53.37685669,1460.615394
2.8050,-102.0802601,53.15407373,1461.607406
2.8100,-101.6825895,52.93357916,1462.590493
2.8150,-101.2839477,52.71462834,1463.566503
2.8200,-100.8827803,52.49716242,1464.53544
2.8250,-100.4787931,52.28263026,1465.496993
2.8300,-100.072579,52.06858386,1466.452103
2.8350,-99.66360958,51.85676539,1467.399639
2.8400,-99.25141436,51.64551728,1468.339842
2.8450,-98.83567081,51.43494077,1469.2724
2.8500,-98.41673708,51.22374784,1470.19791
2.8550,-97.99505119,51.01190209,1471.11703
2.8600,-97.5701559,50.79998627,1472.029789
2.8650,-97.14316342,50.58719441,1472.936623
2.8700,-96.71263646,50.37291201,1473.838958
2.8750,-96.28010903,50.15626057,1474.735998
2.8800,-95.84475744,49.93727888,1475.627598
2.8850,-95.40821517,49.71716877,1476.514852
2.8900,-94.96946477,49.49539208,1477.397733
2.8950,-94.52737189,49.27271997,1478.275821
2.9000,-94.08343809,49.04871935,1479.150262
2.9050,-93.63509499,48.82333499,1480.020487
2.9100,-93.18136137,48.59807137,1480.886688
2.9150,-92.72146559,48.37340989,1481.748241
2.9200,-92.25475072,48.14881507,1482.604851
2.9250,-91.77925726,47.92330207,1483.45562
2.9300,-91.29494773,47.69671383,1484.300216
2.9350,-90.8018041,47.4676699,1485.137691
2.9400,-90.30157778,47.23491243,1485.968463
2.9450,-89.79334409,46.99835682,1486.792666
2.9500,-89.27816906,46.75852966,1487.610921
2.9550,-88.75447964,46.51464074,1488.422513
2.9600,-88.22248297,46.26811265,1489.229583
2.9650,-87.68239154,46.01765868,1490.030926
2.9700,-87.13331009,45.76403398,1490.825724
2.9750,-86.57499601,45.50663566,1491.614805
2.9800,-86.00721603,45.24492922,1492.396768
2.9850,-85.43011138,44.97963336,1493.172826
2.9900,-84.84402997,44.7112344,1493.942314
2.9950,-84.24838949,44.43963145,1494.70601
3.0000,-83.64467519,44.16439897,1495.463259
3.0050,-83.03278614,43.88506577,1496.214072
3.0100,-82.41292678,43.60257703,1496.959307
3.0150,-81.78462021,43.31713989,1497.698074
3.0200,-81.14770241,43.03026359,1498.430041
3.0250,-80.50146191,42.74283882,1499.155002
3.0300,-79.84477732,42.45417625,1499.871946
3.0350,-79.17687709,42.16494368,1500.57999
3.0400,-78.49956915,41.87379425,1501.27957
3.0450,-77.81398651,41.58099806,1501.970508
3.0500,-77.12075245,41.28511719,1502.652762
3.0550,-76.42064306,40.98620777,1503.326183
3.0600,-75.71364855,40.68285733,1503.990948
3.0650,-75.00141053,40.37538085,1504.646665
3.0700,-74.28726634,40.06285093,1505.293251
3.0750,-73.57222007,39.74535158,1505.930829
3.0800,-72.85849571,39.4212535,1506.561227
3.0850,-72.14707035,39.09140605,1507.184186
3.0900,-71.43866948,38.75527434,1507.800024
3.0950,-70.73554267,38.414551,1508.409167
3.1000,-70.04016665,38.06798116,1509.011946
3.1050,-69.35420784,37.7167939,1509.609308
3.1100,-68.6784091,37.36279791,1510.202913
3.1150,-68.01234786,37.00785914,1510.79169
3.1200,-67.3571541,36.65259335,1511.375713
3.1250,-66.71299267,36.29846965,1511.954955
3.1300,-66.08113749,35.94807948,1512.530055
3.1350,-65.46192004,35.60220262,1513.101435
3.1400,-64.85559102,35.26293745,1513.669176
3.1450,-64.26145972,34.931692,1514.233962
3.1500,-63.67921008,34.6094674,1514.793858
3.1550,-63.10696351,34.2964609,1515.34936
3.1600,-62.54433203,33.99409739,1515.900093
3.1650,-61.98947894,33.70326047,1516.445366
3.1700,-61.44121511,33.42439552,1516.983283
3.1750,-60.89729543,33.1578468,1517.513492
3.1800,-60.35788708,32.90411371,1518.035914
3.1850,-59.82238211,32.66213129,1518.550195
3.1900,-59.29020937,32.43111811,1519.055893
3.1950,-58.76093576,32.21120588,1519.553666
3.2000,-58.23314523,32.00058751,1520.042883
3.2050,-57.7058529,31.80092506,1520.523297
3.2100,-57.1794868,31.60927217,1520.995204
3.2150,-56.65085937,31.42356721,1521.457965
3.2200,-56.12105302,31.24495262,1521.912652
3.2250,-55.59099977,31.07100432,1522.359032
3.2300,-55.06046649,30.90325174,1522.797826
3.2350,-54.52750729,30.74141084,1523.228663
3.2400,-53.99026156,30.585448,1523.652179
3.2450,-53.44877539,30.43375938,1524.067844
3.2500,-52.90305336,30.28507661,1524.476477
3.2550,-52.35232165,30.13959172,1524.878545
3.2600,-51.79670532,29.99494689,1525.272758
3.2650,-51.23538521,29.85229156,1525.66034
3.2700,-50.66888956,29.70944604,1526.042402
3.2750,-50.09662665,29.56710023,1526.418474
3.2800,-49.51991054,29.42451604,1526.789457
3.2850,-48.93757409,29.28031659,1527.154698
3.2900,-48.3509519,29.13410383,1527.515072
3.2950,-47.76006256,28.98667079,1527.870437
3.3000,-47.16576849,28.83630678,1528.221449
3.3050,-46.56758946,28.68322048,1528.568769
3.3100,-45.96625167,28.52757078,1528.912165
3.3150,-45.36357449,28.36970912,1529.25265
3.3200,-44.75993411,28.20911355,1529.591034
3.3250,-44.1581363,28.04558357,1529.928184
3.3300,-43.56139272,27.87956554,1530.265485
3.3350,-42.97087433,27.71168822,1530.603972
3.3400,-42.38744619,27.54285644,1530.944485
3.3450,-41.81156244,27.37414165,1531.287415
3.3500,-41.24530092,27.20702545,1531.633955
3.3550,-40.6887821,27.04105349,1531.983794
3.3600,-40.14595287,26.87797093,1532.338023
3.3650,-39.61875787,26.71815566,1532.697633
3.3700,-39.10680758,26.56236192,1533.063747
3.3750,-38.61215499,26.41107068,1533.436991
3.3800,-38.13452132,26.26561512,1533.817493
3.3850,-37.67658617,26.12678018,1534.206173
3.3900,-37.23989147,25.99466093,1534.604235
3.3950,-36.8252728,25.87018522,1535.011186
3.4000,-36.43209111,25.75386281,1535.427855
3.4050,-36.06011767,25.64779041,1535.854135
3.4100,-35.70931414,25.55265869,1536.289319
3.4150,-35.38058412,25.4684824,1536.73396
3.4200,-35.07296154,25.39544872,1537.18742
3.4250,-34.78680046,25.33357459,1537.649735
3.4300,-34.52090709,25.28387879,1538.119879
3.4350,-34.27420069,25.24605746,1538.59716
3.4400,-34.04490107,25.21856672,1539.080376
3.4450,-33.83191639,25.20185458,1539.568732
3.4500,-33.63319271,25.19657538,1540.061749
3.4550,-33.44866009,25.20164709,1540.558183
3.4600,-33.27656091,25.21724462,1541.057318
3.4650,-33.11739626,25.24078527,1541.558577
3.4700,-32.97020315,25.27203024,1542.061772
3.4750,-32.83295252,25.31026896,1542.566351
3.4800,-32.70393882,25.35445854,1543.070936
3.4850,-32.58004962,25.40305078,1543.573851
3.4900,-32.46014442,25.45468709,1544.074561
3.4950,-32.34376048,25.50798005,1544.57179
3.5000,-32.23029905,25.56137969,1545.065438
3.5050,-32.11967408,25.61336683,1545.55508
3.5100,-32.01008956,25.66256321,1546.040421
3.5150,-31.90192934,25.70920714,1546.521825
3.5200,-31.79333786,25.75033843,1546.998616
3.5250,-31.68228485,25.78585918,1547.470387
3.5300,-31.56734847,25.81347318,1547.936504
3.5350,-31.44957693,25.83022518,1548.398182
3.5400,-31.32854439,25.83692354,1548.854537
3.5450,-31.20418117,25.8330596,1549.306166
3.5500,-31.07581645,25.81900962,1549.753367
3.5550,-30.94340518,25.79415082,1550.19587
3.5600,-30.80630312,25.7584825,1550.633458
3.5650,-30.66404583,25.71151725,1551.066171
3.5700,-30.51734231,25.65321685,1551.494236
3.5750,-30.3656269,25.5843116,1551.917622
3.5800,-30.20887746,25.50555055,1552.33648
3.5850,-30.04833036,25.41632123,1552.751945
3.5900,-29.88353145,25.31699306,1553.16367
3.5950,-29.71564193,25.20802029,1553.571866
3.6000,-29.54330137,25.09057658,1553.976075
3.6050,-29.36866157,24.96492188,1554.377098
3.6100,-29.19233827,24.83251775,1554.775141
3.6150,-29.01352756,24.69397368,1555.169912
3.6200,-28.83268561,24.55042238,1555.561196
3.6250,-28.64932044,24.40324476,1555.948824
3.6300,-28.46354324,24.25352268,1556.332709
3.6350,-28.27633912,24.10230484,1556.713629
3.6400,-28.0893074,23.95029657,1557.091184
3.6450,-27.90306221,23.79844698,1557.466277
3.6500,-27.71630817,23.64644879,1557.837399
3.6550,-27.5297728,23.49661601,1558.20627
3.6600,-27.34445917,23.34910113,1558.573033
3.6650,-27.15995053,23.20457265,1558.936731
3.6700,-26.9769643,23.06433011,1559.298116
3.6750,-26.79595456,22.92741049,1559.656786
3.6800,-26.61789522,22.79563969,1560.013052
3.6850,-26.44251753,22.66783049,1560.366164
3.6900,-26.27040843,22.54670096,1560.716344
3.6950,-26.1009259,22.43130396,1561.063747
3.7000,-25.93528565,22.3229377,1561.407945
3.7050,-25.77402727,22.22228635,1561.749232
3.7100,-25.61740393,22.12842641,1562.087471
3.7150,-25.46544392,22.04148709,1562.422168
3.7200,-25.31783191,21.96209178,1562.753351
3.7250,-25.17580151,21.89124192,1563.081563
3.7300,-25.03883862,21.82718653,1563.405822
3.7350,-24.90619465,21.77028641,1563.725972
3.7400,-24.77889223,21.72096324,1564.041638
3.7450,-24.65699894,21.67941927,1564.353191
3.7500,-24.54179847,21.64459342,1564.659846
3.7550,-24.43259709,21.6169041,1564.961397
3.7600,-24.3296378,21.59571907,1565.258056
3.7650,-24.23159743,21.58104335,1565.548621
3.7700,-24.13805194,21.5740555,1565.833322
3.7750,-24.05087922,21.57410732,1566.111668
3.7800,-23.96949147,21.5802406,1566.38309
3.7850,-23.89488072,21.5927313,1566.648772
3.7900,-23.8276007,21.61247667,1566.907948
3.7950,-23.76715316,21.63847831,1567.161069
3.8000,-23.71335382,21.67235715,1567.407095
3.8050,-23.66577974,21.71110638,1567.644783
3.8100,-23.62443258,21.75644729,1567.873742
3.8150,-23.58982388,21.8063251,1568.093737
3.8200,-23.56227125,21.86218915,1568.304092
3.8250,-23.54085766,21.92349905,1568.504116
3.8300,-23.52588452,21.98998703,1568.693055
3.8350,-23.51749688,22.06348947,1568.870442
3.8400,-23.51540527,22.14240365,1569.035968
3.8450,-23.52039267,22.22739996,1569.189656
3.8500,-23.53147023,22.31895195,1569.329976
3.8550,-23.54809119,22.41642581,1569.456619
3.8600,-23.57181896,22.51867354,1569.569965
3.8650,-23.60290384,22.62672201,1569.669634
3.8700,-23.64059543,22.7411387,1569.754313
3.8750,-23.68563423,22.86175286,1569.824931
3.8800,-23.73827732,22.98718857,1569.880516
3.8850,-23.79803098,23.11920029,1569.920548
3.8900,-23.86446176,23.2576453,1569.944549
3.8950,-23.93798626,23.40271394,1569.95314
3.9000,-24.01853003,23.5543712,1569.945796
3.9050,-24.10518735,23.71267752,1569.922031
3.9100,-24.19822098,23.87613634,1569.881437
3.9150,-24.29717813,24.04591634,1569.824445
3.9200,-24.40251199,24.2214446,1569.751464
3.9250,-24.51523096,24.40235672,1569.662549
3.9300,-24.63390444,24.58796391,1569.557901
3.9350,-24.75962437,24.77857006,1569.437663
3.9400,-24.89090419,24.97454524,1569.301403
3.9450,-25.02741754,25.17480205,1569.14941
3.9500,-25.16969727,25.38096257,1568.983283
3.9550,-25.31872526,25.59079059,1568.801881
3.9600,-25.47318556,25.80464465,1568.605638
3.9650,-25.63374557,26.02218701,1568.395954
3.9700,-25.80035694,26.24197407,1568.172447
3.9750,-25.97344194,26.46591677,1567.936101
3.9800,-26.15338527,26.69261791,1567.687821
3.9850,-26.33891208,26.92413666,1567.428336
3.9900,-26.52997572,27.15830252,1567.157746
3.9950,-26.72743885,27.39657428,1566.876868
4.0000,-26.93136833,27.63854101,1566.586174
4.0050,-27.14223894,27.88302994,1566.286639
4.0100,-27.36038533,28.13006771,1565.978849
4.0150,-27.58712285,28.37889135,1565.664064
4.0200,-27.82292532,28.63072376,1565.342985
4.0250,-28.06695641,28.88391354,1565.015733
4.0300,-28.32042039,29.14030145,1564.683823
4.0350,-28.58409083,29.39865098,1564.347122
4.0400,-28.85712019,29.65996159,1564.006585
4.0450,-29.14032614,29.92322139,1563.661866
4.0500,-29.43224994,30.18899997,1563.31346
4.0550,-29.73404779,30.45750467,1562.961411
4.0600,-30.0455094,30.72791022,1562.605073
4.0650,-30.36714487,31.00087021,1562.244665
4.0700,-30.69882292,31.27536057,1561.879988
4.0750,-31.03945769,31.55223875,1561.510972
4.0800,-31.38981767,31.83176558,1561.138491
4.0850,-31.75116144,32.1138278,1560.76159
4.0900,-32.12131383,32.39759851,1560.379243
4.0950,-32.50128851,32.68380131,1559.991367
4.1000,-32.88984954,32.97226343,1559.5975
4.1050,-33.28710281,33.263937,1559.19794
4.1100,-33.69308285,33.55825888,1558.791906
4.1150,-34.10627407,33.85673491,1558.378639
4.1200,-34.52669689,34.15711487,1557.957909
4.1250,-34.95478182,34.46085847,1557.53023
4.1300,-35.39033323,34.76803843,1557.096557
4.1350,-35.83304093,35.07769208,1556.655536
4.1400,-36.28360295,35.3898182,1556.208284
4.1450,-36.74075524,35.70398248,1555.754116
4.1500,-37.20618849,36.01934843,1555.293821
4.1550,-37.68029113,36.33645372,1554.827606
4.1600,-38.16187593,36.65590628,1554.356011
4.1650,-38.65135237,36.97595507,1553.878511
4.1700,-39.14804598,37.29682145,1553.395958
4.1750,-39.65311767,37.61785982,1552.907535
4.1800,-40.16422051,37.93958572,1552.412829
4.1850,-40.68244876,38.26015016,1551.91203
4.1900,-41.20644912,38.58114004,1551.404817
4.1950,-41.73502203,38.90096812,1550.890669
4.2000,-42.26929391,39.21974066,1550.370288
4.2050,-42.80809558,39.5389959,1549.843505
4.2100,-43.35141617,39.85737696,1549.310696
4.2150,-43.90045952,40.17478879,1548.772262
4.2200,-44.45330796,40.49053887,1548.228086
4.2250,-45.01039593,40.8044844,1547.678098
4.2300,-45.57262622,41.11756388,1547.122596
4.2350,-46.13842443,41.42863898,1546.561013
4.2400,-46.70763256,41.73807833,1545.993813
4.2450,-47.2810663,42.04622946,1545.42117
4.2500,-47.8587571,42.3516037,1544.842897
4.2550,-48.43983015,42.65647604,1544.259905
4.2600,-49.02415024,42.96045262,1543.672309
4.2650,-49.61227556,43.26414075,1543.080467
4.2700,-50.20313311,43.56836753,1542.48492
4.2750,-50.7955993,43.87165941,1541.885877
4.2800,-51.39018839,44.17453844,1541.282743
4.2850,-51.98837321,44.47649032,1540.67693
4.2900,-52.59019078,44.77888455,1540.068381
4.2950,-53.19542422,45.08097321,1539.457555
4.3000,-53.80345918,45.38288727,1538.844911
4.3050,-54.41501946,45.68486656,1538.229603
4.3100,-55.02854855,45.98731378,1537.611375
4.3150,-55.64421379,46.29141651,1536.990437
4.3200,-56.26110999,46.59627416,1536.366548
4.3250,-56.87756912,46.90355298,1535.739458
4.3300,-57.49432249,47.21347455,1535.109278
4.3350,-58.11061161,47.52605246,1534.475225
4.3400,-58.72712869,47.84206593,1533.837612
4.3450,-59.34395524,48.16134596,1533.195983
4.3500,-59.96090468,48.48440481,1532.550948
4.3550,-60.57915368,48.81081108,1531.902406
4.3600,-61.19920294,49.14127906,1531.250573
4.3650,-61.82097805,49.47519233,1530.595044
4.3700,-62.44450352,49.81277328,1529.935388
4.3750,-63.07041459,50.15468443,1529.272162
4.3800,-63.69809241,50.50113427,1528.604247
4.3850,-64.32601298,50.85237604,1527.932166
4.3900,-64.95496097,51.21003201,1527.255737
4.3950,-65.58327084,51.5741348,1526.574142
4.4000,-66.21245824,51.94380733,1525.887927
4.4050,-66.84196284,52.31941481,1525.196821
4.4100,-67.47141069,52.7002565,1524.500005
4.4150,-68.10231246,53.08722089,1523.797706
4.4200,-68.732879,53.48045224,1523.089257
4.4250,-69.36356785,53.87804922,1522.374486
4.4300,-69.99308594,54.28308641,1521.651842
4.4350,-70.62159839,54.69506347,1520.922075
4.4400,-71.2476633,55.11404574,1520.183061
4.4450,-71.87230324,55.54075644,1519.43477
4.4500,-72.49274827,55.97604703,1518.676875
4.4550,-73.10907606,56.41956273,1517.909082
4.4600,-73.72061143,56.870243,1517.129544
4.4650,-74.32663445,57.32902449,1516.338444
4.4700,-74.92866408,57.79554345,1515.535169
4.4750,-75.5259161,58.26829805,1514.720033
4.4800,-76.12019718,58.74774048,1513.892583
4.4850,-76.71111835,59.23398083,1513.052409
4.4900,-77.30002504,59.7254558,1512.19987
4.4950,-77.8863554,60.2226302,1511.333728
4.5000,-78.47013447,60.72532602,1510.453378
4.5050,-79.05305431,61.23205159,1509.559042
4.5100,-79.63358815,61.74571785,1508.650492
4.5150,-80.21117835,62.26479458,1507.726808
4.5200,-80.78645271,62.79079593,1506.787546
4.5250,-81.35801719,63.32310911,1505.832225
4.5300,-81.92616088,63.86114898,1504.860206
4.5350,-82.49163953,64.40470859,1503.8721
4.5400,-83.05473861,64.9528685,1502.868345
4.5450,-83.61423471,65.5046449,1501.848155
4.5500,-84.17174088,66.05960531,1500.811633
4.5550,-84.72604817,66.6187461,1499.759159
4.5600,-85.27756182,67.18163488,1498.689922
4.5650,-85.82612215,67.74768483,1497.604116
4.5700,-86.37291678,68.31617884,1496.501522
4.5750,-86.91872741,68.88783942,1495.381902
4.5800,-87.462863,69.46221824,1494.245842
4.5850,-88.00564065,70.03994636,1493.092982
4.5900,-88.54699578,70.62100568,1491.92401
4.5950,-89.08664418,71.20588784,1490.738737
4.6000,-89.62421714,71.79399929,1489.537066
4.6050,-90.15865043,72.38414096,1488.319529
4.6100,-90.69102605,72.97627059,1487.086944
4.6150,-91.22094801,73.5693878,1485.839315
4.6200,-91.74883978,74.16426144,1484.576338
4.6250,-92.27647358,74.75857279,1483.297987
4.6300,-92.80068892,75.3527719,1482.004346
4.6350,-93.32255587,75.94619034,1480.696226
4.6400,-93.83974236,76.53786569,1479.37333
4.6450,-94.35247122,77.12894137,1478.036725
4.6500,-94.8614086,77.717965,1476.685971
4.6550,-95.36508037,78.30589875,1475.322159
4.6600,-95.86359679,78.89070321,1473.945445
4.6650,-96.35605767,79.47373109,1472.556797
4.6700,-96.84259422,80.05485471,1471.156483
4.6750,-97.32291204,80.63326273,1469.743453
4.6800,-97.79737776,81.20877158,1468.318038
4.6850,-98.26583712,81.77968085,1466.879833
4.6900,-98.72968436,82.34567125,1465.430203
4.6950,-99.18797627,82.90609063,1463.969331
4.7000,-99.63963565,83.46155573,1462.497189
4.7050,-100.0842049,84.01385467,1461.013422
4.7100,-100.5221047,84.56266134,1459.519201
4.7150,-100.9531068,85.10666073,1458.014132
4.7200,-101.3760474,85.64878509,1456.498075
4.7250,-101.7917922,86.18845706,1454.970828
4.7300,-102.201018,86.72463098,1453.433618
4.7350,-102.6032323,87.25704807,1451.885878
4.7400,-102.9990456,87.7877911,1450.328061
4.7450,-103.3873232,88.31464696,1448.759864
4.7500,-103.7685739,88.83819866,1447.181392
4.7550,-104.1439486,89.35673555,1445.592081
4.7600,-104.5136113,89.87262046,1443.99307
4.7650,-104.8776076,90.38578135,1442.384133
4.7700,-105.2349176,90.89695819,1440.764982
4.7750,-105.5851595,91.4065644,1439.134748
4.7800,-105.9293378,91.9142857,1437.494288
4.7850,-106.2675344,92.42038512,1435.843274
4.7900,-106.5987709,92.92518604,1434.182028
4.7950,-106.9240399,93.42984651,1432.510542
4.8000,-107.2436297,93.93350555,1430.829159
4.8050,-107.5571714,94.43729589,1429.136646
4.8100,-107.8642486,94.93951334,1427.432433
4.8150,-108.1651018,95.44045826,1425.715956
4.8200,-108.4587373,95.93861701,1423.986467
4.8250,-108.7467747,96.43458688,1422.245196
4.8300,-109.0277529,96.92988259,1420.492276
4.8350,-109.3002738,97.42447464,1418.727796
4.8400,-109.5641829,97.91932115,1416.950875
4.8450,-109.8193055,98.41497734,1415.162083
4.8500,-110.063579,98.91231084,1413.360479
4.8550,-110.2996047,99.40934851,1411.545841
4.8600,-110.5267759,99.90706461,1409.719161
4.8650,-110.745711,100.406487,1407.879925
4.8700,-110.9562687,100.9071892,1406.027028
4.8750,-111.1581461,101.4091175,1404.161536
4.8800,-111.3506028,101.911885,1402.283511
4.8850,-111.5339479,102.4146274,1400.392044
4.8900,-111.7073433,102.9159372,1398.487002
4.8950,-111.8703527,103.4156314,1396.568641
4.9000,-112.022956,103.9130192,1394.637005
4.9050,-112.1637255,104.4090913,1392.69263
4.9100,-112.292864,104.9037526,1390.734862
4.9150,-112.4087993,105.3987231,1388.763231
4.9200,-112.5139465,105.8921864,1386.778458
4.9250,-112.6069448,106.3852028,1384.780018
4.9300,-112.6894339,106.8777007,1382.768092
4.9350,-112.7614123,107.3698382,1380.742452
4.9400,-112.8255884,107.8609097,1378.70328
4.9450,-112.88166,108.3502295,1376.649573
4.9500,-112.9302614,108.8372193,1374.581152
4.9550,-112.9714852,109.3218226,1372.497177
4.9600,-113.0060683,109.8063232,1370.39801
4.9650,-113.0347552,110.2883755,1368.283965
4.9700,-113.0567515,110.7680191,1366.1544
4.9750,-113.0716776,111.2447555,1364.011001
4.9800,-113.0791082,111.7197893,1361.853268
4.9850,-113.0796438,112.1953673,1359.681927
4.9900,-113.0742166,112.6712387,1357.4971
4.9950,-113.06482,113.1469864,1355.298303
5.0000,-113.0509451,113.6231973,1353.085283
5.0050,-113.0335409,114.0983288,1350.858545
5.0100,-113.0110989,114.5735568,1348.617967
5.0150,-112.9838927,115.0493453,1346.364382
5.0200,-112.9534316,115.5252443,1344.096835
5.0250,-112.9197666,116.0019412,1341.816033
5.0300,-112.8817824,116.4781946,1339.522198
5.0350,-112.8379403,116.9539817,1337.216142
5.0400,-112.7872945,117.4274203,1334.898751
5.0450,-112.7313661,117.8980507,1332.570664
5.0500,-112.6692537,118.3654823,1330.231941
5.0550,-112.6001667,118.830629,1327.883828
5.0600,-112.5233503,119.2905573,1325.526428
5.0650,-112.4384628,119.7451081,1323.159369
5.0700,-112.3466901,120.1928784,1320.784166
5.0750,-112.2483809,120.6346194,1318.400393
5.0800,-112.1431148,121.0705839,1316.009061
5.0850,-112.0306424,121.5012504,1313.610532
5.0900,-111.9096798,121.9272826,1311.204598
5.0950,-111.7801438,122.3483956,1308.79271
5.1000,-111.6395758,122.7647057,1306.375705
5.1050,-111.4859528,123.174722,1303.953991
5.1100,-111.3194629,123.5793308,1301.528948
5.1150,-111.1386682,123.9772283,1299.101542
5.1200,-110.9442488,124.3684764,1296.672101
5.1250,-110.7358819,124.751977,1294.24005
5.1300,-110.5129079,125.1269345,1291.80489
5.1350,-110.2746322,125.4959272,1289.366539
5.1400,-110.0201789,125.8583145,1286.925534
5.1450,-109.7487816,126.2157106,1284.481413
5.1500,-109.4619464,126.569123,1282.036323
5.1550,-109.1564654,126.9178538,1279.58919
5.1600,-108.830932,127.2623322,1277.140694
5.1650,-108.4828493,127.6029139,1274.691629
5.1700,-108.1105481,127.939679,1272.24169
5.1750,-107.7129218,128.2737674,1269.790837
5.1800,-107.2902134,128.6061158,1267.339256
5.1850,-106.8405986,128.9368749,1264.886936
5.1900,-106.3634117,129.2678974,1262.435595
5.1950,-105.8588709,129.5985805,1259.985123
5.2000,-105.3271599,129.9287541,1257.535507
5.2050,-104.7701197,130.257792,1255.086677
5.2100,-104.1868114,130.5863366,1252.63933
5.2150,-103.5782612,130.911553,1250.194406
5.2200,-102.943697,131.2342147,1247.753076
5.2250,-102.2837529,131.5546907,1245.316098
5.2300,-101.598415,131.8706591,1242.88339
5.2350,-100.8885553,132.1845531,1240.457429
5.2400,-100.1528092,132.4962297,1238.03659
5.2450,-99.3925169,132.8047314,1235.62334
5.2500,-98.60778641,133.1106914,1233.218136
5.2550,-97.79959022,133.4133211,1230.821231
5.2600,-96.96845694,133.7106734,1228.432783
5.2650,-96.11476379,134.0034568,1226.052219
5.2700,-95.24119862,134.2900808,1223.680967
5.2750,-94.34802894,134.5699317,1221.317833
5.2800,-93.4370795,134.8415857,1218.964531
5.2850,-92.50869807,135.1041232,1216.619978
5.2900,-91.56189341,135.3554105,1214.284664
5.2950,-90.59566384,135.5968539,1211.959247
5.3000,-89.61188099,135.8276604,1209.64496
5.3050,-88.61115723,136.048384,1207.342038
5.3100,-87.59587831,136.2577943,1205.050923
5.3150,-86.56601414,136.4558056,1202.771297
5.3200,-85.52247751,136.6413192,1200.504844
5.3250,-84.4636016,136.8167541,1198.251449
5.3300,-83.39059446,136.9829847,1196.010558
5.3350,-82.30428678,137.141892,1193.782626
5.3400,-81.20624766,137.2914989,1191.566695
5.3450,-80.09660051,137.4343048,1189.363955
5.3500,-78.97712159,137.5679067,1187.172994
5.3550,-77.84877132,137.6910948,1184.993937
5.3600,-76.71352585,137.8054227,1182.826154
5.3650,-75.57328235,137.9093336,1180.670065
5.3700,-74.42835827,138.0044268,1178.525367
5.3750,-73.27811086,138.0899626,1176.392369
5.3800,-72.12266433,138.1663303,1174.271272
5.3850,-70.96153958,138.2327836,1172.162071
5.3900,-69.79578732,138.2897382,1170.064626
5.3950,-68.62553451,138.337553,1167.97798
5.4000,-67.45054506,138.3772171,1165.901155
5.4050,-66.27202184,138.4090857,1163.834851
5.4100,-65.08892648,138.4348572,1161.779571
5.4150,-63.90066518,138.4543456,1159.735143
5.4200,-62.70681942,138.4690016,1157.702583
5.4250,-61.5049753,138.4803071,1155.682436
5.4300,-60.29508975,138.4900202,1153.675371
5.4350,-59.07669093,138.4970616,1151.682109
5.4400,-57.84885016,138.5026754,1149.703105
5.4450,-56.61162289,138.5047507,1147.737807
5.4500,-55.36293892,138.5037566,1145.786176
5.4550,-54.10545899,138.4988862,1143.849111
5.4600,-52.83802334,138.4891955,1141.925864
5.4650,-51.56208281,138.4752825,1140.017243
5.4700,-50.27825804,138.4559038,1138.123855
5.4750,-48.98686338,138.4300976,1136.246194
5.4800,-47.68687621,138.3973285,1134.384046
5.4850,-46.37903974,138.3576589,1132.539032
5.4900,-45.06253583,138.3093524,1130.70953
5.4950,-43.73715514,138.2525497,1128.895834
5.5000,-42.40092178,138.1895068,1127.098852
5.5050,-41.05333333,138.1193452,1125.318552
5.5100,-39.69312766,138.042461,1123.554471
5.5150,-38.32130989,137.9610501,1121.807675
5.5200,-36.93558803,137.8748411,1120.076929
5.5250,-35.53536507,137.783565,1118.362553
5.5300,-34.12020805,137.6882071,1116.664133
5.5350,-32.68851255,137.5852547,1114.980212
5.5400,-31.24217732,137.4771321,1113.312979
5.5450,-29.77968046,137.3623665,1111.660849
5.5500,-28.30168137,137.2406609,1110.023681
5.5550,-26.80809499,137.1103707,1108.401818
5.5600,-25.30083542,136.9710906,1106.795781
5.5650,-23.77987425,136.8229386,1105.205154
5.5700,-22.24638874,136.6655213,1103.629661
5.5750,-20.70110798,136.4987793,1102.069331
5.5800,-19.14563544,136.3217943,1100.523298
5.5850,-17.58033942,136.1355105,1098.992066
5.5900,-16.00721385,135.9417078,1097.475423
5.5950,-14.42799774,135.7406597,1095.973135
5.6000,-12.84290762,135.5326518,1094.484728
5.6050,-11.25454461,135.318337,1093.011251
5.6100,-9.661619383,135.0963986,1091.551328
5.6150,-8.065893967,134.8684804,1090.106453
5.6200,-6.468800001,134.6357672,1088.67671
5.6250,-4.872989593,134.3957541,1087.261887
5.6300,-3.278651117,134.1506503,1085.862853
5.6350,-1.687430097,133.899107,1084.479566
5.6400,-0.0997258605,133.6446792,1083.113074
5.6450,1.484364527,133.3880852,1081.763132
5.6500,3.065308522,133.1319068,1080.430327
5.6550,4.642686017,132.8781756,1079.114577
5.6600,6.217079419,132.6279805,1077.816047
5.6650,7.78836363,132.3842095,1076.53519
5.6700,9.357425257,132.1456719,1075.270788
5.6750,10.92212737,131.9140107,1074.023067
5.6800,12.48242817,131.6875273,1072.791203
5.6850,14.03749138,131.4676269,1071.575375
5.6900,15.58760299,131.2518945,1070.374571
5.6950,17.13197566,131.0397792,1069.188951
5.7000,18.66985386,130.8305289,1068.018647
5.7050,20.20128442,130.6248552,1066.863274
5.7100,21.72660104,130.4207963,1065.72198
5.7150,23.2451141,130.2192249,1064.594715
5.7200,24.75761018,130.0207198,1063.481031
5.7250,26.26321993,129.8247582,1062.380754
5.7300,27.76276307,129.6312045,1061.293758
5.7350,29.2561406,129.4401632,1060.219781
5.7400,30.74361598,129.2521349,1059.158679
5.7450,32.2266529,129.0679393,1058.110702
5.7500,33.70690571,128.8860691,1057.074849
5.7550,35.18724698,128.7093894,1056.051468
5.7600,36.66765743,128.5379055,1055.04052
5.7650,38.15021754,128.3704879,1054.041297
5.7700,39.63569971,128.2089082,1053.05429
5.7750,41.12551147,128.0535005,1052.079583
5.7800,42.62123319,127.9043161,1051.116973
5.7850,44.12284015,127.7619095,1050.166519
5.7900,45.63037698,127.6260121,1049.228392
5.7950,47.14408889,127.4974364,1048.302944
5.8000,48.66267761,127.3738076,1047.389215
5.8050,50.18573876,127.2562476,1046.487743
5.8100,51.71030328,127.1437385,1045.598972
5.8150,53.23925943,127.0343605,1044.721362
5.8200,54.7690823,126.9276915,1043.855751
5.8250,56.29936669,126.8250538,1043.002323
5.8300,57.82989601,126.7259495,1042.161139
5.8350,59.35946746,126.6318577,1041.332819
5.8400,60.88832297,126.5411059,1040.516666
5.8450,62.4146332,126.45402,1039.713212
5.8500,63.93850366,126.3707279,1038.922348
5.8550,65.46041427,126.2922653,1038.144096
5.8600,66.98103355,126.2186731,1037.378387
5.8650,68.49875896,126.1495092,1036.625617
5.8700,70.01588236,126.0852588,1035.885375
5.8750,71.53025042,126.0266988,1035.158458
5.8800,73.04375428,125.9740077,1034.444577
5.8850,74.55485455,125.9255963,1033.743633
5.8900,76.06597088,125.8822066,1033.055316
5.8950,77.5754541,125.844062,1032.380168
5.9000,79.08511272,125.8116501,1031.717866
5.9050,80.59561982,125.7830967,1031.067611
5.9100,82.10607595,125.7610545,1030.430119
5.9150,83.61599445,125.7433407,1029.804497
5.9200,85.12554677,125.7322319,1029.191192
5.9250,86.63594399,125.7293598,1028.590394
5.9300,88.14592449,125.7334767,1028.001681
5.9350,89.65529911,125.7455433,1027.424759
5.9400,91.16326976,125.7655771,1026.85967
5.9450,92.67049464,125.7926262,1026.305636
5.9500,94.17544772,125.8260664,1025.762409
5.9550,95.67789629,125.8648159,1025.229479
5.9600,97.17766425,125.907836,1024.706361
5.9650,98.67479113,125.9540063,1024.192391
5.9700,100.1690514,126.005155,1023.688131
5.9750,101.661981,126.0608405,1023.193118
5.9800,103.1537405,126.1226776,1022.707613
5.9850,104.6457165,126.1902576,1022.230991
5.9900,106.1368885,126.2653348,1021.764039
5.9950,107.6305203,126.3494365,1021.306421
6.0000,109.1253399,126.4418083,1020.858297
6.0050,110.6210594,126.5414159,1020.419462
6.0100,112.1173164,126.6479454,1019.989905
6.0150,113.6157289,126.7620265,1019.569541
6.0200,115.1146415,126.8818956,1019.158558
6.0250,116.6134391,127.0072341,1018.75689
6.0300,118.1101694,127.1373848,1018.364887
6.0350,119.6044423,127.2722558,1017.982481
6.0400,121.0954308,127.4099424,1017.609441
6.0450,122.5810605,127.5512149,1017.246188
6.0500,124.060518,127.6962185,1016.893273
6.0550,125.5338587,127.8433805,1016.550117
6.0600,127.0015677,127.9915209,1016.216346
6.0650,128.4636664,128.1404121,1015.891984
6.0700,129.9199784,128.2912532,1015.577546
6.0750,131.3720508,128.4437865,1015.272431
6.0800,132.8187243,128.5982116,1014.976809
6.0850,134.2607815,128.7538213,1014.690355
6.0900,135.6994321,128.9099383,1014.412541
6.0950,137.1355092,129.0659671,1014.142915
6.1000,138.571328,129.2233296,1013.881597
6.1050,140.0078832,129.3813691,1013.628132
6.1100,141.4497002,129.5399808,1013.381804
6.1150,142.8959983,129.7009859,1013.143173
6.1200,144.3493328,129.8650422,1012.911953
6.1250,145.8107896,130.0319115,1012.687819
6.1300,147.2794213,130.2015358,1012.470758
6.1350,148.7554899,130.3750592,1012.260834
6.1400,150.239183,130.551068,1012.057539
6.1450,151.7312939,130.7309816,1011.861074
6.1500,153.2304336,130.9132406,1011.670921
6.1550,154.7341465,131.0977398,1011.487228
6.1600,156.2407712,131.2849302,1011.310078
6.1650,157.749336,131.4736854,1011.139094
6.1700,159.2580212,131.6636522,1010.974121
6.1750,160.7658312,131.8540732,1010.814873
6.1800,162.2708153,132.044813,1010.661483
6.1850,163.7727917,132.2362239,1010.513829
6.1900,165.2674773,132.4267389,1010.371736
6.1950,166.7550409,132.6162265,1010.235001
6.2000,168.2319421,132.8043096,1010.10379
6.2050,169.6961703,132.9906237,1009.9779
6.2100,171.1461181,133.17499,1009.857374
6.2150,172.5820219,133.3575477,1009.742151
6.2200,174.0031125,133.5368187,1009.631725
6.2250,175.4092358,133.7124551,1009.525731
6.2300,176.7999969,133.8841654,1009.424089
6.2350,178.1759166,134.05157,1009.326509
6.2400,179.5372369,134.2141541,1009.232708
6.2450,180.8840266,134.3711342,1009.142367
6.2500,182.2179851,134.5251144,1009.05616
6.2550,183.5387185,134.6748248,1008.973552
6.2600,184.8474865,134.8212224,1008.894677
6.2650,186.145704,134.9642899,1008.819393
6.2700,187.4321729,135.1025598,1008.747166
6.2750,188.7071867,135.2360814,1008.678025
6.2800,189.9699313,135.3653247,1008.612072
6.2850,191.2206063,135.4887583,1008.548676
6.2900,192.4591647,135.6061786,1008.487719
6.2950,193.6832978,135.7165222,1008.428933
6.3000,194.8940925,135.8204892,1008.372314
6.3050,196.0902632,135.9184008,1008.317929
6.3100,197.2713843,136.0096759,1008.26548
6.3150,198.4345181,136.094152,1008.214935
6.3200,199.5782568,136.172228,1008.166291
6.3250,200.7013911,136.2438078,1008.119536
6.3300,201.8032406,136.3092338,1008.074652
6.3350,202.8810176,136.3685715,1008.031678
6.3400,203.9343445,136.4219667,1007.990448
6.3450,204.96182,136.4685883,1007.950712
6.3500,205.9628703,136.5087705,1007.912251
6.3550,206.9354709,136.5435611,1007.875397
6.3600,207.8775048,136.5733939,1007.840117
6.3650,208.78773,136.5979397,1007.806217
6.3700,209.6657427,136.616626,1007.773337
6.3750,210.5110343,136.6283311,1007.740933
6.3800,211.3231563,136.6328747,1007.708829
6.3850,212.1026851,136.6294875,1007.676677
6.3900,212.8496996,136.6181876,1007.644314
6.3950,213.5627843,136.5983493,1007.611544
6.4000,214.2415204,136.5697131,1007.578126
6.4050,214.8869432,136.5330673,1007.544205
6.4100,215.497788,136.4876131,1007.509344
6.4150,216.0740055,136.4327519,1007.473249
6.4200,216.6152652,136.3681418,1007.435702
6.4250,217.1208142,136.2934025,1007.396503
6.4300,217.5926799,136.2097655,1007.355786
6.4350,218.0303109,136.1175197,1007.313643
6.4400,218.4339676,136.0178906,1007.270195
6.4450,218.802953,135.9103692,1007.225225
6.4500,219.1379402,135.797797,1007.179565
6.4550,219.4384984,135.6792351,1007.132744
6.4600,219.7071753,135.5534907,1007.08425
6.4650,219.9424561,135.422033,1007.034417
6.4700,220.1457543,135.2850839,1006.983267
6.4750,220.3171082,135.1427556,1006.930745
6.4800,220.4573489,134.9959241,1006.877012
6.4850,220.5673849,134.8441964,1006.821854
6.4900,220.6508722,134.6884342,1006.765486
6.4950,220.7080628,134.5259067,1006.706928
6.5000,220.7415157,134.357494,1006.64636
6.5050,220.7556405,134.183489,1006.583915
6.5100,220.7515257,134.0027983,1006.519147
6.5150,220.7296058,133.8163614,1006.452369
6.5200,220.6912449,133.6224847,1006.383043
6.5250,220.6372135,133.4211848,1006.311267
6.5300,220.5685645,133.2126502,1006.237037
6.5350,220.4863635,132.9958802,1006.160179
6.5400,220.3919923,132.7694959,1006.080212
6.5450,220.2855471,132.5359381,1005.998015
6.5500,220.1671421,132.2923197,1005.912679
6.5550,220.038644,132.0397831,1005.824585
6.5600,219.8979368,131.7786098,1005.733911
6.5650,219.7449306,131.509448,1005.640914
6.5700,219.5798489,131.2330042,1005.545865
6.5750,219.4016657,130.950679,1005.449206
6.5800,219.2133878,130.6615241,1005.350653
6.5850,219.0128473,130.3673739,1005.250924
6.5900,218.8009965,130.068429,1005.150057
6.5950,218.5783625,129.7652773,1005.048315
6.6000,218.3443378,129.4582925,1004.945858
6.6050,218.0991158,129.1473346,1004.842705
6.6100,217.8421914,128.8347692,1004.739665
6.6150,217.575314,128.519307,1004.636313
6.6200,217.3001081,128.2023674,1004.533057
6.6250,217.0175714,127.8843931,1004.430065
6.6300,216.728353,127.5648574,1004.327167
6.6350,216.4352083,127.2449417,1004.224759
6.6400,216.1384643,126.923492,1004.122509
6.6450,215.8391766,126.6013545,1004.02059
6.6500,215.537062,126.2786444,1003.919131
6.6550,215.2326088,125.9548678,1003.817985
6.6600,214.9277759,125.6313257,1003.717556
6.6650,214.6222448,125.3079897,1003.617881
6.6700,214.3161623,124.9843008,1003.518686
6.6750,214.009003,124.6608614,1003.42032
6.6800,213.6999824,124.3383208,1003.323008
6.6850,213.3904138,124.0171865,1003.226796
6.6900,213.0789484,123.6976609,1003.131835
6.6950,212.7667823,123.3809883,1003.038392
6.7000,212.4522359,123.0667305,1002.946444
6.7050,212.1364233,122.7546413,1002.855811
6.7100,211.8171831,122.446497,1002.767106
6.7150,211.4949483,122.142531,1002.680426
6.7200,211.1696824,121.8435521,1002.596055
6.7250,210.8425192,121.549002,1002.513696
6.7300,210.5122671,121.259711,1002.433757
6.7350,210.179669,120.9739067,1002.355548
6.7400,209.8446744,120.6915926,1002.279216
6.7450,209.5075604,120.4117821,1002.204383
6.7500,209.1687259,120.134861,1002.131249
6.7550,208.8284697,119.8609536,1002.059748
6.7600,208.4864886,119.5916137,1001.990392
6.7650,208.1435166,119.3258007,1001.92284
6.7700,207.7985132,119.0633359,1001.857006
6.7750,207.451441,118.8053596,1001.793205
6.7800,207.1016761,118.5513237,1001.731227
6.7850,206.7484534,118.3011725,1001.671127
6.7900,206.3903419,118.0542117,1001.612711
6.7950,206.0278099,117.8122158,1001.556553
6.8000,205.6600801,117.5743968,1001.502331
6.8050,205.2845758,117.3413218,1001.450328
6.8100,204.8999438,117.1132188,1001.400721
6.8150,204.506825,116.8890079,1001.35313
6.8200,204.1021967,116.6695998,1001.307932
6.8250,203.6870696,116.4546907,1001.26504
6.8300,203.259642,116.2441627,1001.224594
6.8350,202.8198852,116.0382386,1001.1866
6.8400,202.3663107,115.8379997,1001.151525
6.8450,201.8993867,115.6421714,1001.119006
6.8500,201.4174462,115.4515457,1001.089391
6.8550,200.9197846,115.2678471,1001.06338
6.8600,200.4082534,115.0896434,1001.040505
6.8650,199.8811305,114.9179495,1001.021146
6.8700,199.3407291,114.7529898,1001.005499
6.8750,198.7870875,114.5938836,1000.99334
6.8800,198.2188256,114.4410659,1000.984865
6.8850,197.6375339,114.2958354,1000.980538
6.8900,197.0419896,114.1581923,1000.98045
6.8950,196.4317452,114.027478,1000.984556
6.9000,195.8064676,113.9042145,1000.993099
6.9050,195.166472,113.7892742,1001.006412
6.9100,194.5126673,113.6802325,1001.023807
6.9150,193.8438894,113.5791977,1001.046086
6.9200,193.1598841,113.4839945,1001.07271
6.9250,192.4605308,113.3952449,1001.103913
6.9300,191.7452023,113.3130894,1001.139856
6.9350,191.0145642,113.2357478,1001.180011
6.9400,190.2664153,113.1645342,1001.224951
6.9450,189.5025224,113.0983512,1001.274453
6.9500,188.7232216,113.0380087,1001.328808
6.9550,187.9293633,112.9820537,1001.387594
6.9600,187.1209636,112.9302842,1001.450934
6.9650,186.3006314,112.8814885,1001.518351
6.9700,185.4698538,112.8353602,1001.589761
6.9750,184.6287437,112.79086,1001.665004
6.9800,183.7814221,112.7474257,1001.743796
6.9850,182.9270575,112.7037762,1001.825986
6.9900,182.0673516,112.6599301,1001.911608
6.9950,181.2041098,112.6136931,1002.000061
7.0000,180.3402421,112.5655675,1002.091422
7.0050,179.4753776,112.5141448,1002.185464
7.0100,178.6115165,112.459215,1002.282147
7.0150,177.7497241,112.4008787,1002.381496
7.0200,176.8910523,112.3386454,1002.483418
7.0250,176.0347631,112.2723909,1002.588045
7.0300,175.1818863,112.201809,1002.695302
7.0350,174.3327721,112.1282306,1002.805676
7.0400,173.4856547,112.0524653,1002.919559
7.0450,172.6400456,111.9751805,1003.037337
7.0500,171.7953459,111.8947208,1003.158515
7.0550,170.9508475,111.8123965,1003.283662
7.0600,170.1054965,111.7274901,1003.41268
7.0650,169.2575863,111.6420935,1003.546454
7.0700,168.4057228,111.5563795,1003.685248
7.0750,167.5499321,111.4702722,1003.828947
7.0800,166.6880036,111.3838935,1003.977953
7.0850,165.8199697,111.2982735,1004.132615
7.0900,164.9443304,111.2135078,1004.293153
7.0950,164.0605342,111.1304859,1004.459886
7.1000,163.1667645,111.0491683,1004.633152
7.1050,162.2612659,110.9694451,1004.813057
7.1100,161.3435778,110.8920054,1004.999884
7.1150,160.4133062,110.8168407,1005.193646
7.1200,159.471829,110.7451437,1005.394735
7.1250,158.5175382,110.6775243,1005.603459
7.1300,157.5503218,110.6132025,1005.819698
7.1350,156.5704082,110.5529339,1006.043558
7.1400,155.5781283,110.4976155,1006.275474
7.1450,154.5718029,110.4474236,1006.515676
7.1500,153.5523746,110.4031759,1006.76431
7.1550,152.5199961,110.3638351,1007.021052
7.1600,151.473048,110.3311566,1007.286584
7.1650,150.412469,110.3050734,1007.561018
7.1700,149.3370994,110.2856179,1007.844412
7.1750,148.245937,110.2724645,1008.13698
7.1800,147.1396946,110.2674508,1008.439357
7.1850,146.016714,110.2683319,1008.751199
7.1900,144.8782876,110.2757172,1009.072943
7.1950,143.7231656,110.2897422,1009.404844
7.2000,142.5512437,110.3099911,1009.747147
7.2050,141.3634351,110.3359123,1010.099855
7.2100,140.1573102,110.3684606,1010.463603
7.2150,138.9334894,110.406439,1010.838497
7.2200,137.6921364,110.4511138,1011.225074
7.2250,136.4336541,110.5004356,1011.623211
7.2300,135.1595287,110.5547954,1012.032942
7.2350,133.8691859,110.6136622,1012.454493
7.2400,132.5639532,110.6764458,1012.887996
7.2450,131.2439482,110.7422393,1013.33325
7.2500,129.9101705,110.8095752,1013.789952
7.2550,128.5627186,110.8784265,1014.258329
7.2600,127.2025171,110.947725,1014.738218
7.2650,125.8292664,111.0169785,1015.229886
7.2700,124.4445759,111.0856672,1015.733193
7.2750,123.0490983,111.1535864,1016.248089
7.2800,121.6435634,111.2213466,1016.774811
7.2850,120.2284804,111.2875383,1017.312974
7.2900,118.8050444,111.3516329,1017.862405
7.2950,117.3719415,111.414346,1018.423571
7.3000,115.9293123,111.4739885,1018.996118
7.3050,114.4767503,111.5312144,1019.580403
7.3100,113.0157733,111.5854838,1020.176017
7.3150,111.5469597,111.6362587,1020.782933
7.3200,110.069286,111.6830968,1021.401165
7.3250,108.5840318,111.7265669,1022.030947
7.3300,107.0905083,111.7661989,1022.672587
7.3350,105.588955,111.8019514,1023.325791
7.3400,104.0803205,111.8337226,1023.990967
7.3450,102.5650144,111.862026,1024.667848
7.3500,101.0422706,111.888131,1025.357368
7.3550,99.51242166,111.9118717,1026.059344
7.3600,97.97563947,111.9348102,1026.774237
7.3650,96.43321868,111.9566796,1027.501583
7.3700,94.88556219,111.9770195,1028.24133
7.3750,93.33321845,111.9976212,1028.994242
7.3800,91.77727757,112.0187382,1029.759981
7.3850,90.21679547,112.0407386,1030.53835
7.3900,88.65407808,112.0652868,1031.32944
7.3950,87.08814692,112.0924958,1032.133084
7.4000,85.52131953,112.1222641,1032.948881
7.4050,83.95408082,112.155964,1033.777355
7.4100,82.38736388,112.1929707,1034.617764
7.4150,80.82043841,112.2344311,1035.470707
7.4200,79.25349421,112.2786236,1036.335384
7.4250,77.68592945,112.3257782,1037.212012
7.4300,76.11921134,112.3764134,1038.100235
7.4350,74.55225564,112.4297055,1039.000197
7.4400,72.98494339,112.484992,1039.911419
7.4450,71.4185918,112.5420454,1040.833543
7.4500,69.85338196,112.6007795,1041.766693
7.4550,68.28984667,112.6618542,1042.711023
7.4600,66.72861273,112.7244627,1043.666269
7.4650,65.17063732,112.7880239,1044.631854
7.4700,63.61600586,112.8528907,1045.607802
7.4750,62.06626206,112.9193338,1046.593838
7.4800,60.52119231,112.9857914,1047.589872
7.4850,58.98209135,113.053298,1048.595952
7.4900,57.44796113,113.1204272,1049.611498
7.4950,55.92206746,113.1886061,1050.636422
7.5000,54.40342633,113.2574294,1051.67057
7.5050,52.89316529,113.3260909,1052.713932
7.5100,51.39248212,113.394491,1053.766404
7.5150,49.90192501,113.4631113,1054.827852
7.5200,48.42177007,113.530959,1055.898072
7.5250,46.95344087,113.5990869,1056.976766
7.5300,45.49563739,113.666948,1058.064672
7.5350,44.04886794,113.7346355,1059.16195
7.5400,42.6155127,113.802997,1060.268052
7.5450,41.19354125,113.8726838,1061.383906
7.5500,39.78466515,113.9433107,1062.508704
7.5550,38.38871834,114.0163305,1063.64309
7.5600,37.00704757,114.0914732,1064.786411
7.5650,35.64066248,114.1694293,1065.938578
7.5700,34.28858758,114.2497676,1067.10031
7.5750,32.95167104,114.3327141,1068.270733
7.5800,31.62919268,114.4175845,1069.450117
7.5850,30.32158653,114.5047071,1070.638202
7.5900,29.02845042,114.5952614,1071.835913
7.5950,27.75051782,114.6887246,1073.043141
7.6000,26.48736112,114.7855535,1074.259793
7.6050,25.24103643,114.8852672,1075.485937
7.6100,24.0109564,114.988878,1076.722322
7.6150,22.7949047,115.094539,1077.968992
7.6200,21.59482065,115.2034018,1079.225958
7.6250,20.40894072,115.3158421,1080.493938
7.6300,19.23815574,115.4320952,1081.771902
7.6350,18.08200372,115.551749,1083.061102
7.6400,16.93990963,115.6764097,1084.361416
7.6450,15.81098583,115.8060311,1085.673194
7.6500,14.69556713,115.9404428,1086.996238
7.6550,13.59381913,116.0817859,1088.331524
7.6600,12.50514726,116.2297914,1089.679052
7.6650,11.43006138,116.3856328,1091.038729
7.6700,10.36791395,116.5496916,1092.410617
7.6750,9.317027156,116.7228209,1093.795211
7.6800,8.276971627,116.9054886,1095.192357
7.6850,7.247347175,117.0977029,1096.602968
7.6900,6.226619637,117.3003587,1098.027092
7.6950,5.214812266,117.5131026,1099.465155
7.7000,4.209321026,117.7350608,1100.917657
7.7050,3.209270469,117.9667327,1102.384306
7.7100,2.212460299,118.2081346,1103.866543
7.7150,1.218754329,118.4587227,1105.36387
7.7200,0.2258981121,118.7178963,1106.87734
7.7250,-0.7668039545,118.9856042,1108.406698
7.7300,-1.760932014,119.260228,1109.952223
7.7350,-2.756860655,119.5423171,1111.515445
7.7400,-3.755725748,119.830407,1113.095598
7.7450,-4.757268834,120.1233806,1114.693044
7.7500,-5.762968015,120.4206907,1116.308173
7.7550,-6.772739341,120.7211326,1117.940878
7.7600,-7.78782472,121.0242748,1119.591199
7.7650,-8.808471173,121.328549,1121.259403
7.7700,-9.834247439,121.6328291,1122.945322
7.7750,-10.86555741,121.9370459,1124.649051
7.7800,-11.90246071,122.2406724,1126.370374
7.7850,-12.94437759,122.5435233,1128.109212
7.7900,-13.98947914,122.8453287,1129.865838
7.7950,-15.03884157,123.1445619,1131.63952
7.8000,-16.08981242,123.4407851,1133.430556
7.8050,-17.14317677,123.735046,1135.238699
7.8100,-18.19790912,124.0263196,1137.064155
7.8150,-19.25239703,124.3149183,1138.905916
7.8200,-20.30626077,124.6003594,1140.764288
7.8250,-21.35789287,124.8828372,1142.63841
7.8300,-22.40685511,125.1618359,1144.527499
7.8350,-23.451722,125.4371027,1146.431891
7.8400,-24.49406492,125.707128,1148.351214
7.8450,-25.53163568,125.9727267,1150.284723
7.8500,-26.56552959,126.2331449,1152.232755
7.8550,-27.59485446,126.4872868,1154.194383
7.8600,-28.61969056,126.7344296,1156.16911
7.8650,-29.64129844,126.9754013,1158.1571
7.8700,-30.65852792,127.2104789,1160.157344
7.8750,-31.67031791,127.4391317,1162.170519
7.8800,-32.67726293,127.6600756,1164.195584
7.8850,-33.67780707,127.8746187,1166.232857
7.8900,-34.67243702,128.0816154,1168.28149
7.8950,-35.65929784,128.2814265,1170.340486
7.9000,-36.63820456,128.4742899,1172.409188
7.9050,-37.60973252,128.6612201,1174.487507
7.9100,-38.57396917,128.8415573,1176.575357
7.9150,-39.52905827,129.0161995,1178.671635
7.9200,-40.47601863,129.184954,1180.776614
7.9250,-41.41303651,129.3485229,1182.889384
7.9300,-42.33977591,129.5066605,1185.009935
7.9350,-43.25612434,129.6597527,1187.13771
7.9400,-44.16037358,129.8070883,1189.271834
7.9450,-45.05214314,129.9493802,1191.412275
7.9500,-45.93131925,130.0871196,1193.558913
7.9550,-46.79716274,130.2190642,1195.710273
7.9600,-47.65073568,130.3451316,1197.86639
7.9650,-48.4922315,130.4646559,1200.026576
7.9700,-49.32215168,130.5784296,1202.190899
7.9750,-50.14008671,130.6862019,1204.358315
7.9800,-50.94619696,130.7876239,1206.52897
7.9850,-51.74140296,130.8830191,1208.701887
7.9900,-52.52567463,130.9713822,1210.87669
7.9950,-53.30066998,131.0520721,1213.052624
8.0000,-54.06550492,131.1264623,1215.2299
8.0050,-54.81972959,131.1937877,1217.407205
8.0100,-55.56298075,131.2542238,1219.584094
8.0150,-56.29568309,131.3064597,1221.760031
8.0200,-57.01617873,131.3518337,1223.934344
8.0250,-57.72401698,131.3898037,1226.10678
8.0300,-58.41912946,131.4200674,1228.276394
8.0350,-59.10228806,131.4431952,1230.442728
8.0400,-59.77292889,131.4592178,1232.606375
8.0450,-60.43298598,131.4682977,1234.766276
8.0500,-61.08061056,131.470969,1236.922643
8.0550,-61.7157409,131.4668982,1239.074574
8.0600,-62.33670215,131.4568756,1241.222759
8.0650,-62.94438678,131.4400211,1243.36711
8.0700,-63.53869805,131.4169927,1245.506899
8.0750,-64.11887741,131.3864297,1247.641989
8.0800,-64.68520995,131.3473426,1249.771646
8.0850,-65.23766451,131.2998882,1251.896251
8.0900,-65.777648,131.2436512,1254.015932
8.0950,-66.30489689,131.178774,1256.13138
8.1000,-66.81979119,131.1051813,1258.240795
8.1050,-67.32258647,131.0223819,1260.344379
8.1100,-67.81208016,130.9308404,1262.441166
8.1150,-68.29026702,130.8311278,1264.532623
8.1200,-68.7562416,130.7233058,1266.618062
8.1250,-69.21108874,130.6060098,1268.698274
8.1300,-69.65447786,130.4797,1270.772628
8.1350,-70.08723201,130.3454371,1272.841289
8.1400,-70.50858455,130.2028059,1274.903792
8.1450,-70.91853605,130.0520495,1276.960926
8.1500,-71.31671183,129.8943978,1279.012061
8.1550,-71.70241069,129.7301195,1281.057151
8.1600,-72.07579854,129.5589666,1283.096735
8.1650,-72.43585707,129.3801339,1285.130244
8.1700,-72.78244497,129.195147,1287.158502
8.1750,-73.11514059,129.0048911,1289.180857
8.1800,-73.43376577,128.8093745,1291.197381
8.1850,-73.73919276,128.6074723,1293.207323
8.1900,-74.02985263,128.3999173,1295.209859
8.1950,-74.3080266,128.1861786,1297.205459
8.2000,-74.57359872,127.965747,1299.194697
8.2050,-74.82779645,127.7373202,1301.176848
8.2100,-75.07020708,127.5020026,1303.15067
8.2150,-75.30323452,127.2591997,1305.117039
8.2200,-75.52748949,127.0086626,1307.075847
8.2250,-75.74332458,126.7491379,1309.027196
8.2300,-75.95088288,126.4821887,1310.971264
8.2350,-76.15064451,126.2081105,1312.907966
8.2400,-76.34430629,125.9285096,1314.837593
8.2450,-76.53050267,125.6442524,1316.760388
8.2500,-76.71001736,125.3566643,1318.67631
8.2550,-76.88272095,125.0654222,1320.585068
8.2600,-77.04791546,124.7711466,1322.485789
8.2650,-77.20595284,124.474227,1324.379291
8.2700,-77.35635967,124.175108,1326.264864
8.2750,-77.49919656,123.8734476,1328.142445
8.2800,-77.63538444,123.5706396,1330.012359
8.2850,-77.76398609,123.2678552,1331.874035
8.2900,-77.88489153,122.9646515,1333.72864
8.2950,-77.9965056,122.6616519,1335.57499
8.3000,-78.09882537,122.3591708,1337.413778
8.3050,-78.19128318,122.0574498,1339.244509
8.3100,-78.27210709,121.7570507,1341.066692
8.3150,-78.34335717,121.4571165,1342.880383
8.3200,-78.40635449,121.157488,1344.685295
8.3250,-78.46222959,120.8577557,1346.482648
8.3300,-78.51110379,120.5585459,1348.272859
8.3350,-78.55386391,120.259628,1350.054952
8.3400,-78.59032689,119.9605564,1351.828459
8.3450,-78.6204971,119.6625742,1353.594564
8.3500,-78.64545134,119.3654531,1355.352947
8.3550,-78.66588392,119.0699737,1357.104408
8.3600,-78.68164985,118.775951,1358.847533
8.3650,-78.69335515,118.4851868,1360.582564
8.3700,-78.69955404,118.199039,1362.310388
8.3750,-78.69956964,117.9182877,1364.031537
8.3800,-78.69245533,117.6436378,1365.745838
8.3850,-78.67893961,117.3754157,1367.452956
8.3900,-78.65665239,117.1138923,1369.152545
8.3950,-78.62587313,116.8591066,1370.844758
8.4000,-78.58615871,116.6117356,1372.530346
8.4050,-78.53763945,116.3710584,1374.208954
8.4100,-78.48009035,116.1362858,1375.881001
8.4150,-78.4124055,115.9055837,1377.544798
8.4200,-78.33644278,115.6786762,1379.201488
8.4250,-78.25260208,115.455242,1380.851347
8.4300,-78.16121101,115.2342057,1382.494871
8.4350,-78.06281542,115.0140874,1384.130898
8.4400,-77.95697895,114.7955936,1385.760214
8.4450,-77.84428434,114.5786531,1387.382943
8.4500,-77.72404791,114.3618247,1388.999982
8.4550,-77.59681711,114.1441183,1390.610629
8.4600,-77.46120998,113.9272187,1392.214797
8.4650,-77.31758448,113.7105447,1393.812574
8.4700,-77.16751117,113.4922269,1395.403205
8.4750,-77.01232491,113.2705353,1396.987008
8.4800,-76.8516456,113.0459751,1398.564587
8.4850,-76.68673842,112.8177265,1400.136955
8.4900,-76.51899184,112.583771,1401.704396
8.4950,-76.34811421,112.3451155,1403.267076
8.5000,-76.17547824,112.1019061,1404.825022
8.5050,-75.99973154,111.854849,1406.377896
8.5100,-75.8215739,111.6033736,1407.92723
8.5150,-75.63934274,111.3481406,1409.471543
8.5200,-75.45133557,111.09012,1411.010822
8.5250,-75.25863997,110.8303372,1412.545031
8.5300,-75.06208288,110.5670091,1414.074451
8.5350,-74.8600597,110.3004355,1415.598585
8.5400,-74.65268443,110.029528,1417.117266
8.5450,-74.44156458,109.7523372,1418.629723
8.5500,-74.22679518,109.4691563,1420.135952
8.5550,-74.0095382,109.1805596,1421.636468
8.5600,-73.78885842,108.8859648,1423.131956
8.5650,-73.5647118,108.5864731,1424.621775
8.5700,-73.33818835,108.2818548,1426.106406
8.5750,-73.10855009,107.9711574,1427.585018
8.5800,-72.87543098,107.6556112,1429.056984
8.5850,-72.6384496,107.3334503,1430.522389
8.5900,-72.39830264,107.0049134,1431.980435
8.5950,-72.15524847,106.6691532,1433.430976
8.6000,-71.91115632,106.3265472,1434.873345
8.6050,-71.66607506,105.9770539,1436.307364
8.6100,-71.42333149,105.6195997,1437.733288
8.6150,-71.17850138,105.2562934,1439.150856
8.6200,-70.93200892,104.8867394,1440.559772
8.6250,-70.68530238,104.5111223,1441.958825
8.6300,-70.43792568,104.1305514,1443.348779
8.6350,-70.19039556,103.744307,1444.729019
8.6400,-69.94294941,103.3554949,1446.10071
8.6450,-69.69515768,102.962912,1447.462293
8.6500,-69.44639891,102.5691419,1448.813837
8.6550,-69.19715832,102.1744283,1450.154994
8.6600,-68.94736629,101.7803363,1451.48658
8.6650,-68.6949942,101.387146,1452.806819
8.6700,-68.44142001,100.9947679,1454.115737
8.6750,-68.18705583,100.6046037,1455.413413
8.6800,-67.93173045,100.2187924,1456.700063
8.6850,-67.67351607,99.83611802,1457.974397
8.6900,-67.41263343,99.45846722,1459.237218
8.6950,-67.14845801,99.08610869,1460.486712
8.7000,-66.880236,98.71825267,1461.723615
8.7050,-66.60743834,98.3551334,1462.947197
8.7100,-66.33020479,97.9981567,1464.157776
8.7150,-66.04964669,97.64615585,1465.355227
8.7200,-65.76379454,97.29943311,1466.538969
8.7250,-65.47373925,96.95737292,1467.708515
8.7300,-65.1782422,96.62031151,1468.863748
8.7350,-64.87820919,96.28804198,1470.004847
8.7400,-64.57276314,95.96092948,1471.131787
8.7450,-64.26161095,95.63689409,1472.243009
8.7500,-63.94702603,95.31416817,1473.338959
8.7550,-63.62903546,94.99363935,1474.419989
8.7600,-63.30970432,94.67257089,1475.48713
8.7650,-62.99030534,94.35104858,1476.540995
8.7700,-62.66934307,94.02872635,1477.581398
8.7750,-62.3470246,93.70636545,1478.609439
8.7800,-62.02343395,93.38415717,1479.624146
8.7850,-61.69800908,93.06364882,1480.626102
8.7900,-61.37039232,92.74600379,1481.615171
8.7950,-61.03957866,92.43029145,1482.591532
8.8000,-60.70353818,92.11675299,1483.554418
8.8050,-60.36350806,91.80509704,1484.504632
8.8100,-60.01876531,91.49436025,1485.441749
8.8150,-59.66807437,91.18617048,1486.365972
8.8200,-59.31321462,90.87975242,1487.277352
8.8250,-58.95339827,90.57459408,1488.175979
8.8300,-58.58772156,90.2714243,1489.061762
8.8350,-58.21731629,89.97035248,1489.934476
8.8400,-57.84216665,89.67154985,1490.794021
8.8450,-57.46232324,89.37535751,1491.640842
8.8500,-57.07835512,89.08264703,1492.474437
8.8550,-56.68947461,88.79246463,1493.295987
8.8600,-56.29661701,88.50636723,1494.105242
8.8650,-55.90075955,88.22390006,1494.902653
8.8700,-55.50204418,87.94479189,1495.688722
8.8750,-55.10187184,87.6690992,1496.464001
8.8800,-54.69999853,87.39645306,1497.228683
8.8850,-54.29769411,87.12714922,1497.983416
8.8900,-53.8954788,86.86288693,1498.72896
8.8950,-53.49360684,86.60334643,1499.46589
8.9000,-53.09125198,86.34836325,1500.194349
8.9050,-52.68736848,86.09798914,1500.914653
8.9100,-52.28168987,85.85310496,1501.627459
8.9150,-51.87694966,85.61372448,1502.333239
8.9200,-51.47287055,85.38010624,1503.032282
8.9250,-51.06713915,85.1515068,1503.725334
8.9300,-50.65979242,84.92889496,1504.411865
8.9350,-50.25006113,84.71316352,1505.093036
8.9400,-49.83679173,84.50255973,1505.768186
8.9450,-49.41877854,84.29837569,1506.439067
8.9500,-48.99594504,84.09862121,1507.10444
8.9550,-48.56599277,83.90351158,1507.764797
8.9600,-48.12859397,83.71250685,1508.419578
8.9650,-47.68289928,83.5252288,1509.070424
8.9700,-47.2294933,83.34012259,1509.716672
8.9750,-46.76803889,83.15572135,1510.357949
8.9800,-46.2972248,82.97003773,1510.994854
8.9850,-45.8178307,82.78426648,1511.627909
8.9900,-45.32978615,82.59725148,1512.256497
8.9950,-44.83226612,82.40756152,1512.881015
9.0000,-44.32509198,82.21484971,1513.500621
9.0050,-43.80726936,82.01851712,1514.115691
9.0100,-43.27832552,81.81711496,1514.726258
9.0150,-42.73764984,81.61002607,1515.332055
9.0200,-42.18539348,81.39640557,1515.933081
9.0250,-41.61816474,81.17642332,1516.528717
9.0300,-41.03622414,80.9476991,1517.118989
9.0350,-40.43968073,80.71009465,1517.703171
9.0400,-39.82819345,80.46197009,1518.281856
9.0450,-39.20394993,80.20215276,1518.855278
9.0500,-38.56552788,79.93226821,1519.424004
9.0550,-37.91448926,79.65008341,1519.987927
9.0600,-37.25129998,79.35588013,1520.546665
9.0650,-36.57572621,79.04987716,1521.100654
9.0700,-35.88878484,78.73181324,1521.649775
9.0750,-35.19128466,78.40153946,1522.193938
9.0800,-34.48534784,78.05871627,1522.733738
9.0850,-33.77211867,77.70322361,1523.26904
9.0900,-33.05253857,77.33565271,1523.800173
9.0950,-32.32912728,76.95698642,1524.328283
9.1000,-31.60430382,76.56771137,1524.854171
9.1050,-30.87925293,76.16954985,1525.378351
9.1100,-30.15682988,75.76472968,1525.900569
9.1150,-29.43842994,75.35341686,1526.421461
9.1200,-28.72468981,74.93895452,1526.941508
9.1250,-28.01788567,74.52358905,1527.461089
9.1300,-27.31958644,74.10860009,1527.979846
9.1350,-26.62975901,73.69749481,1528.498771
9.1400,-25.94883713,73.29242449,1529.017474
9.1450,-25.27722196,72.89582277,1529.53594
9.1500,-24.6150908,72.50812358,1530.05408
9.1550,-23.96368943,72.13319887,1530.57116
9.1600,-23.32339321,71.77197075,1531.088317
9.1650,-22.69508661,71.4251933,1531.604205
9.1700,-22.07735945,71.09482309,1532.118102
9.1750,-21.47003438,70.78172148,1532.630117
9.1800,-20.8727405,70.48539295,1533.139361
9.1850,-20.28513508,70.20744614,1533.645651
9.1900,-19.70864279,69.94649219,1534.148526
9.1950,-19.14171818,69.702802,1534.647284
9.2000,-18.58559879,69.47740816,1535.14237
9.2050,-18.04051941,69.26896068,1535.633748
9.2100,-17.50661887,69.07675681,1536.120184
9.2150,-16.98294262,68.89947769,1536.601455
9.2200,-16.46937665,68.73718781,1537.078029
9.2250,-15.96659642,68.58964067,1537.549526
9.2300,-15.47672995,68.45394848,1538.016328
9.2350,-14.99950723,68.32922538,1538.478356
9.2400,-14.53673174,68.2142304,1538.935694
9.2450,-14.08874663,68.10707211,1539.387973
9.2500,-13.65515603,68.00752964,1539.836235
9.2550,-13.23594188,67.91573646,1540.280072
9.2600,-12.83047508,67.83066516,1540.719899
9.2650,-12.43834625,67.75150348,1541.15488
9.2700,-12.05746585,67.67796018,1541.585098
9.2750,-11.68735336,67.60999714,1542.010746
9.2800,-11.32927914,67.54686892,1542.431311
9.2850,-10.98131931,67.48744445,1542.847133
9.2900,-10.64307373,67.43026755,1543.258253
9.2950,-10.31389539,67.37678221,1543.665351
9.3000,-9.993453491,67.32590132,1544.068748
9.3050,-9.680073799,67.27846403,1544.468164
9.3100,-9.373878055,67.23486292,1544.864278
9.3150,-9.073062195,67.1948199,1545.257096
9.3200,-8.777807648,67.15881987,1545.646198
9.3250,-8.489784163,67.12762497,1546.033056
9.3300,-8.209034653,67.10170267,1546.418276
9.3350,-7.934867366,67.08107939,1546.802582
9.3400,-7.668470195,67.06615858,1547.186423
9.3450,-7.407519294,67.05796452,1547.570687
9.3500,-7.153313839,67.05622073,1547.955586
9.3550,-6.9044745,67.06281587,1548.342029
9.3600,-6.660231328,67.07824135,1548.73088
9.3650,-6.420692825,67.10220018,1549.121882
9.3700,-6.186591561,67.13660619,1549.517644
9.3750,-5.958561129,67.18017897,1549.917809
9.3800,-5.736886883,67.23323978,1550.324034
9.3850,-5.519993134,67.29534031,1550.73607
9.3900,-5.309325866,67.36695782,1551.155683
9.3950,-5.103343625,67.44765267,1551.581234
9.4000,-4.901456958,67.53683798,1552.012622
9.4050,-4.701709643,67.63540563,1552.449123
9.4100,-4.504270289,67.7419843,1552.890919
9.4150,-4.309533205,67.85690062,1553.337933
9.4200,-4.116614892,67.97857944,1553.789239
9.4250,-3.923739683,68.10616555,1554.243554
9.4300,-3.730900028,68.24058539,1554.701142
9.4350,-3.538564543,68.37828331,1555.160761
9.4400,-3.34579227,68.51924526,1555.621779
9.4450,-3.152333719,68.6633844,1556.083332
9.4500,-2.958203339,68.80999391,1556.544785
9.4550,-2.763894873,68.95660412,1557.004933
9.4600,-2.569154732,69.10284456,1557.462435
9.4650,-2.373784053,69.24722585,1557.917467
9.4700,-2.179094353,69.38850884,1558.369095
9.4750,-1.985745373,69.52600771,1558.815651
9.4800,-1.795238164,69.65941571,1559.257359
9.4850,-1.607313639,69.78804059,1559.692683
9.4900,-1.420236673,69.91070431,1560.120217
9.4950,-1.236134334,70.02786916,1560.540047
9.5000,-1.055100877,70.13793122,1560.951197
9.5050,-0.8773688729,70.24117106,1561.353105
9.5100,-0.703176426,70.33673618,1561.744959
9.5150,-0.5336191727,70.42505029,1562.126862
9.5200,-0.3696145813,70.50617834,1562.49804
9.5250,-0.2098982854,70.58002518,1562.857522
9.5300,-0.05448100768,70.64731352,1563.204786
9.5350,0.09746068544,70.70739668,1563.53855
9.5400,0.2456692741,70.76183053,1563.858622
9.5450,0.3893397468,70.81106491,1564.164664
9.5500,0.5276412165,70.85505009,1564.455465
9.5550,0.6603927723,70.89516476,1564.731931
9.5600,0.7871913223,70.93061703,1564.992763
9.5650,0.9066541372,70.96340883,1565.239175
9.5700,1.018664313,70.99355216,1565.470197
9.5750,1.123170645,71.02229213,1565.685698
9.5800,1.221600838,71.05067755,1565.884786
9.5850,1.312935973,71.07888411,1566.067581
9.5900,1.396221846,71.10857293,1566.234453
9.5950,1.47242859,71.13910626,1566.384331
9.6000,1.540778882,71.17247219,1566.517736
9.6050,1.60039126,71.20778714,1566.634661
9.6100,1.651631361,71.24536104,1566.7342
9.6150,1.694003174,71.28630474,1566.817016
9.6200,1.727239977,71.33001357,1566.883458
9.6250,1.75192237,71.37641694,1566.933484
9.6300,1.768745198,71.42613446,1566.966415
9.6350,1.777477843,71.48016351,1566.98286
9.6400,1.778441039,71.53871839,1566.982998
9.6450,1.771472075,71.60151282,1566.966824
9.6500,1.75640226,71.6688668,1566.934456
9.6550,1.732590908,71.74060218,1566.886703
9.6600,1.700122378,71.81707847,1566.824313
9.6650,1.65824794,71.89765537,1566.747451
9.6700,1.607423882,71.98217034,1566.656216
9.6750,1.5474188,72.07161403,1566.551673
9.6800,1.479673232,72.16591561,1566.433203
9.6850,1.402749655,72.26554671,1566.302117
9.6900,1.316826671,72.37006808,1566.157832
9.6950,1.22103536,72.47843116,1566.001604
9.7000,1.116050569,72.59224515,1565.834156
9.7050,0.9997923889,72.70887241,1565.655719
9.7100,0.8733670624,72.83002741,1565.466985
9.7150,0.7376412179,72.95483861,1565.267953
9.7200,0.5913717656,73.08276893,1565.059422
9.7250,0.4343972103,73.21417266,1564.841764
9.7300,0.266066187,73.34795345,1564.615555
9.7350,0.08740169539,73.48607015,1564.381094
9.7400,-0.1013595248,73.62780186,1564.138821
9.7450,-0.3009258189,73.7722915,1563.889176
9.7500,-0.5096110951,73.92045329,1563.632386
9.7550,-0.7277556083,74.07235502,1563.369789
9.7600,-0.956021917,74.22753256,1563.100824
9.7650,-1.195223533,74.38639013,1562.826498
9.7700,-1.44504278,74.54975161,1562.547103
9.7750,-1.70498686,74.71824452,1562.263987
9.7800,-1.975220753,74.89195204,1561.977595
9.7850,-2.256062254,75.070285,1561.689056
9.7900,-2.548497508,75.25340697,1561.398569
9.7950,-2.850847722,75.44181713,1561.106748
9.8000,-3.162579444,75.63531489,1560.812867
9.8050,-3.48417384,75.83443174,1560.517543
9.8100,-3.816379873,76.03799995,1560.221066
9.8150,-4.158807316,76.24702932,1559.924049
9.8200,-4.510685615,76.46013437,1559.626038
9.8250,-4.873434219,76.67833707,1559.327695
9.8300,-5.245797165,76.90106709,1559.028064
9.8350,-5.628564788,77.12801606,1558.727211
9.8400,-6.020641318,77.35952844,1558.425151
9.8450,-6.421051526,77.59486691,1558.120608
9.8500,-6.830146435,77.83426122,1557.814487
9.8550,-7.248269757,78.0767554,1557.50569
9.8600,-7.674253177,78.32386252,1557.194338
9.8650,-8.108067127,78.57446137,1556.879369
9.8700,-8.549082051,78.82962968,1556.561434
9.8750,-8.997177247,79.08859192,1556.239093
9.8800,-9.453027921,79.35068857,1555.913529
9.8850,-9.915424364,79.61755256,1555.583451
9.8900,-10.38504565,79.88706276,1555.248071
9.8950,-10.86204408,80.15992918,1554.907591
9.9000,-11.34588319,80.4360559,1554.561466
9.9050,-11.83706026,80.71418371,1554.209579
9.9100,-12.33472023,80.99470575,1553.851534
9.9150,-12.83897054,81.27738088,1553.486962
9.9200,-13.35039626,81.56293883,1553.116772
9.9250,-13.86751698,81.85089278,1552.739641
9.9300,-14.3906418,82.14054817,1552.356092
9.9350,-14.91796773,82.4314898,1551.965588
9.9400,-15.44900992,82.72275329,1551.567389
9.9450,-15.98459856,83.01491956,1551.161659
9.9500,-16.52392647,83.3074507,1550.748777
9.9550,-17.06668325,83.59986205,1550.328328
9.9600,-17.61382305,83.89128409,1549.900221
9.9650,-18.16445563,84.18327539,1549.465156
9.9700,-18.71857984,84.47390478,1549.021894
9.9750,-19.27519819,84.76314411,1548.570261
9.9800,-19.83659778,85.04979143,1548.110352
9.9850,-20.40182197,85.33375712,1547.641838
9.9900,-20.96993367,85.61505339,1547.16491
9.9950,-21.54037759,85.89561407,1546.67908
10.0000,-22.11234305,86.17414619,1546.184565
10.0050,-22.68612449,86.45104399,1545.681784
10.0100,-23.26047916,86.72443303,1545.170197
10.0150,-23.83592646,86.9954467,1544.650437
10.0200,-24.41138253,87.26491828,1544.121458
10.0250,-24.98824044,87.53199108,1543.584393
10.0300,-25.56548735,87.79743439,1543.038939
10.0350,-26.14459869,88.05992873,1542.484856
10.0400,-26.72750819,88.32031305,1541.922904
10.0450,-27.31319299,88.57898827,1541.352794
10.0500,-27.90268814,88.83557861,1540.774165
10.0550,-28.49548609,89.09021151,1540.187005
10.0600,-29.09063275,89.34344966,1539.591744
10.0650,-29.68737754,89.59627334,1538.988289
10.0700,-30.28615116,89.84866398,1538.377348
10.0750,-30.88700068,90.10086954,1537.758698
10.0800,-31.4883628,90.35311954,1537.131849
10.0850,-32.08997309,90.60681607,1536.496418
10.0900,-32.69108613,90.86241639,1535.852558
10.0950,-33.29342926,91.11922012,1535.200195
10.1000,-33.89718598,91.37755938,1534.539991
10.1050,-34.50261891,91.63913974,1533.872262
10.1100,-35.10852597,91.90440642,1533.196457
10.1150,-35.71425898,92.17238678,1532.512011
10.1200,-36.31999736,92.44311977,1531.818518
10.1250,-36.92620076,92.71581756,1531.115673
10.1300,-37.53217092,92.99172614,1530.403619
10.1350,-38.13724522,93.27117697,1529.682246
10.1400,-38.74216306,93.55306704,1528.950783
10.1450,-39.34771703,93.83691748,1528.20975
10.1500,-39.95263178,94.12266543,1527.458994
10.1550,-40.55618081,94.40961115,1526.697626
10.1600,-41.15854796,94.6978501,1525.925794
10.1650,-41.75863575,94.98711267,1525.14339
10.1700,-42.35819776,95.27736395,1524.350586
10.1750,-42.95695967,95.56885903,1523.547399
10.1800,-43.55521122,95.8621274,1522.733572
10.1850,-44.15407792,96.1557703,1521.909621
10.1900,-44.75223025,96.45135686,1521.075236
10.1950,-45.35067627,96.74864261,1520.230234
10.2000,-45.94914954,97.04656548,1519.374763
10.2050,-46.54822412,97.34671363,1518.508463
10.2100,-47.14848714,97.64791342,1517.63159
10.2150,-47.74957574,97.95028409,1516.744322
10.2200,-48.35055879,98.25451041,1515.845843
10.2250,-48.95239541,98.55960412,1514.936979
10.2300,-49.55545644,98.86817541,1514.017186
10.2350,-50.16098403,99.17850258,1513.086271
10.2400,-50.76992351,99.49235027,1512.145303
10.2450,-51.38190316,99.80893733,1511.194164
10.2500,-51.99579063,100.1282394,1510.232157
10.2550,-52.61042479,100.4503525,1509.258865
10.2600,-53.22528217,100.7746023,1508.272983
10.2650,-53.8402021,101.1019078,1507.274642
10.2700,-54.45667126,101.4310527,1506.26402
10.2750,-55.07448998,101.7615874,1505.240705
10.2800,-55.69301003,102.0952786,1504.204654
10.2850,-56.31186655,102.430688,1503.155478
10.2900,-56.93196116,102.767733,1502.092982
10.2950,-57.55349832,103.1052509,1501.01715
10.3000,-58.17711486,103.4430162,1499.927778
10.3050,-58.8012449,103.7825449,1498.825219
10.3100,-59.42832175,104.1251933,1497.709479
10.3150,-60.05869238,104.4701507,1496.580429
10.3200,-60.69288964,104.8179308,1495.4387
10.3250,-61.32915745,105.1699596,1494.283783
10.3300,-61.96751074,105.5254875,1493.114745
10.3350,-62.60837693,105.8854245,1491.932648
10.3400,-63.25025783,106.2490171,1490.736147
10.3450,-63.8941091,106.6154654,1489.525669
10.3500,-64.53967098,106.9873904,1488.302251
10.3550,-65.1870337,107.3634955,1487.065434
10.3600,-65.83635002,107.7442056,1485.815568
10.3650,-66.48674176,108.1299031,1484.552209
10.3700,-67.1387206,108.5201529,1483.275626
10.3750,-67.79200348,108.9156204,1481.985504
10.3800,-68.44631504,109.3167552,1480.682983
10.3850,-69.10155977,109.7226845,1479.367938
10.3900,-69.75806218,110.1342854,1478.040652
10.3950,-70.41446989,110.5517089,1476.700847
10.4000,-71.07144751,110.9745436,1475.348904
10.4050,-71.7287395,111.4010887,1473.985283
10.4100,-72.38600852,111.8322289,1472.611265
10.4150,-73.04371809,112.2675508,1471.22584
10.4200,-73.70119184,112.7080136,1469.830607
10.4250,-74.3575188,113.1526534,1468.425722
10.4300,-75.01314692,113.6018073,1467.012766
10.4350,-75.66901118,114.0542228,1465.591834
10.4400,-76.32371013,114.5107225,1464.163769
10.4450,-76.97572863,114.9728183,1462.72886
10.4500,-77.62460342,115.4405141,1461.286215
10.4550,-78.2707212,115.9141015,1459.837798
10.4600,-78.91442562,116.3933106,1458.382686
10.4650,-79.55416015,116.8791002,1456.920321
10.4700,-80.18917542,117.3709726,1455.450875
10.4750,-80.81952005,117.8680415,1453.974403
10.4800,-81.44391636,118.3693171,1452.489829
10.4850,-82.06213462,118.8750053,1450.997402
10.4900,-82.67415405,119.3836227,1449.498004
10.4950,-83.27855037,119.8940219,1447.991291
10.5000,-83.87460235,120.4065195,1446.47672
10.5050,-84.46107438,120.9211642,1444.953881
10.5100,-85.03865465,121.4384703,1443.422129
10.5150,-85.60795425,121.9585046,1441.881227
10.5200,-86.16744115,122.4783571,1440.330473
10.5250,-86.71764791,122.998786,1438.769086
10.5300,-87.25747094,123.5193015,1437.19711
10.5350,-87.78677369,124.0408114,1435.614163
10.5400,-88.30497231,124.5613554,1434.018689
10.5450,-88.81171296,125.0814826,1432.411229
10.5500,-89.30863336,125.6009321,1430.790245
10.5550,-89.7970996,126.118383,1429.155449
10.5600,-90.27691905,126.6343257,1427.507692
10.5650,-90.74838735,127.1472348,1425.846257
10.5700,-91.20964303,127.6582386,1424.171302
10.5750,-91.65990451,128.167948,1422.481515
10.5800,-92.09854754,128.6753864,1420.777401
10.5850,-92.52651768,129.181754,1419.05829
10.5900,-92.94310918,129.6868955,1417.323988
10.5950,-93.34702438,130.1922782,1415.574175
10.6000,-93.7376788,130.6974337,1413.806906
10.6050,-94.11528714,131.2021279,1412.022074
10.6100,-94.47900789,131.704946,1410.21896
10.6150,-94.82896127,132.2057523,1408.396917
10.6200,-95.16426825,132.7040543,1406.556682
10.6250,-95.48593247,133.2001729,1404.697102
10.6300,-95.7942973,133.6923754,1402.818637
10.6350,-96.0892846,134.1802709,1400.921821
10.6400,-96.37023328,134.6636356,1399.00687
10.6450,-96.63590392,135.1418059,1397.073713
10.6500,-96.8870648,135.6116681,1395.122192
10.6550,-97.12331364,136.0747372,1393.152097
10.6600,-97.34540801,136.5298293,1391.162627
10.6650,-97.55397325,136.97567,1389.154406
10.6700,-97.74826614,137.4125866,1387.126379
10.6750,-97.92854149,137.8410172,1385.079793
10.6800,-98.09428126,138.2605296,1383.013949
10.6850,-98.24547084,138.6699982,1380.929377
10.6900,-98.38322547,139.0680665,1378.827559
10.6950,-98.50661536,139.4555965,1376.70875
10.7000,-98.6166568,139.83302,1374.573218
10.7050,-98.71089716,140.2019785,1372.41951
10.7100,-98.7904361,140.5621294,1370.247364
10.7150,-98.85515607,140.9121508,1368.057507
10.7200,-98.9055165,141.2528713,1365.848843
10.7250,-98.94157529,141.5854404,1363.620923
10.7300,-98.96339084,141.9085645,1361.373332
10.7350,-98.96937133,142.2232251,1359.106928
10.7400,-98.96024134,142.5290206,1356.821525
10.7450,-98.93617038,142.8265741,1354.51686
10.7500,-98.89876767,143.1154454,1352.194453
10.7550,-98.84716786,143.3963453,1349.853329
10.7600,-98.78218746,143.6689581,1347.495783
10.7650,-98.70543196,143.9334284,1345.122321
10.7700,-98.61587352,144.1894608,1342.732095
10.7750,-98.51423825,144.437092,1340.325155
10.7800,-98.40014143,144.6777279,1337.902299
10.7850,-98.27150561,144.9120043,1335.46302
10.7900,-98.12931149,145.1407109,1333.007002
10.7950,-97.97428464,145.3634693,1330.533809
10.8000,-97.80720204,145.5801768,1328.044225
10.8050,-97.62766097,145.7898349,1325.538766
10.8100,-97.43490657,145.9916917,1323.019414
10.8150,-97.2276469,146.1863586,1320.487556
10.8200,-97.00777622,146.3734035,1317.944241
10.8250,-96.77539883,146.5540194,1315.391017
10.8300,-96.5317181,146.727394,1312.829383
10.8350,-96.2782761,146.8916823,1310.260529
10.8400,-96.01599735,147.0485541,1307.685683
10.8450,-95.74418774,147.1978282,1305.104981
10.8500,-95.4622724,147.3410714,1302.519539
10.8550,-95.16963323,147.4781884,1299.93104
10.8600,-94.86635115,147.6106754,1297.339889
10.8650,-94.55230807,147.7369789,1294.746303
10.8700,-94.22675476,147.8569043,1292.15075
10.8750,-93.89108479,147.9691849,1289.555347
10.8800,-93.54411511,148.0735537,1286.960877
10.8850,-93.18561772,148.1695169,1284.369096
10.8900,-92.81498926,148.2580124,1281.779915
10.8950,-92.43428399,148.3369811,1279.194452
10.9000,-92.04322092,148.4080974,1276.614251
10.9050,-91.64110977,148.4703556,1274.038949
10.9100,-91.22632757,148.523495,1271.46935
10.9150,-90.79732733,148.5678684,1268.905481
10.9200,-90.35440315,148.602166,1266.346765
10.9250,-89.89601525,148.6250946,1263.793938
10.9300,-89.42132404,148.6369469,1261.247201
10.9350,-88.9292618,148.6381566,1258.705688
10.9400,-88.42015625,148.6281862,1256.169469
10.9450,-87.89495004,148.6085099,1253.63891
10.9500,-87.35412077,148.5786013,1251.113439
10.9550,-86.79840718,148.5382726,1248.593287
10.9600,-86.22953639,148.4878916,1246.080375
10.9650,-85.64842804,148.4262715,1243.573937
10.9700,-85.05560378,148.3531848,1241.074727
10.9750,-84.45201775,148.2663294,1238.582305
10.9800,-83.83788218,148.1644744,1236.096905
10.9850,-83.21372108,148.0488917,1233.618717
10.9900,-82.57880382,147.9197404,1231.146319
10.9950,-81.93381069,147.777357,1228.679925
11.0000,-81.27552238,147.6230499,1226.219191
11.0050,-80.60535492,147.4560312,1223.765452
11.0100,-79.92158589,147.2773307,1221.318233
11.0150,-79.22557615,147.0882518,1218.878571
11.0200,-78.5160211,146.8885083,1216.446161
11.0250,-77.79225572,146.6788629,1214.021996
11.0300,-77.05382882,146.4614489,1211.606077
11.0350,-76.29968069,146.2349961,1209.197262
11.0400,-75.52962333,146.001472,1206.796666
11.0450,-74.74269985,145.7598907,1204.404337
11.0500,-73.93779778,145.5106493,1202.019652
11.0550,-73.11343788,145.2557309,1199.642823
11.0600,-72.27042756,144.994227,1197.274575
11.0650,-71.40744684,144.7267158,1194.914769
11.0700,-70.52646876,144.4522374,1192.565025
11.0750,-69.62783087,144.1725011,1190.226668
11.0800,-68.71166252,143.887103,1187.900042
11.0850,-67.78016615,143.5959711,1185.585773
11.0900,-66.83316922,143.299787,1183.284969
11.0950,-65.87195511,142.9983913,1180.999085
11.1000,-64.89611234,142.6925752,1178.727811
11.1050,-63.90723078,142.3826318,1176.472182
11.1100,-62.9056244,142.0691186,1174.231184
11.1150,-61.89137585,141.751853,1172.004729
11.1200,-60.86356922,141.4329827,1169.793081
11.1250,-59.82145269,141.1114495,1167.59624
11.1300,-58.764693,140.7871973,1165.414396
11.1350,-57.69298472,140.4616298,1163.248461
11.1400,-56.60551554,140.1342308,1161.099013
11.1450,-55.50240434,139.8043563,1158.966175
11.1500,-54.38530516,139.4709753,1156.850977
11.1550,-53.25456747,139.1342398,1154.753564
11.1600,-52.11008335,138.7913968,1152.673427
11.1650,-50.95280303,138.4432639,1150.611233
11.1700,-49.784217,138.089508,1148.566914
11.1750,-48.60452718,137.7304039,1146.54044
11.1800,-47.41400229,137.3661266,1144.531004
11.1850,-46.21128511,136.996053,1142.538086
11.1900,-44.99636051,136.6208843,1140.56208
11.1950,-43.7696934,136.2410607,1138.603242
11.2000,-42.53179621,135.8552397,1136.661467
11.2050,-41.28326713,135.464259,1134.736503
11.2100,-40.02526936,135.068983,1132.827529
11.2150,-38.75904273,134.6692315,1130.93533
11.2200,-37.48491493,134.2652718,1129.059294
11.2250,-36.20351374,133.8567988,1127.199128
11.2300,-34.91453335,133.4454529,1125.355021
11.2350,-33.61764353,133.0303672,1123.52597
11.2400,-32.31351908,132.6125095,1121.711952
11.2450,-31.00109385,132.1927747,1119.912793
11.2500,-29.68050374,131.7713803,1118.128815
11.2550,-28.35120816,131.3480218,1116.359545
11.2600,-27.01268531,130.922368,1114.60428
11.2650,-25.6634152,130.4968096,1112.86291
11.2700,-24.30312415,130.0722717,1111.135531
11.2750,-22.93215155,129.6483632,1109.421963
11.2800,-21.55004917,129.2286037,1107.7217
11.2850,-20.15657788,128.8124691,1106.034257
11.2900,-18.75180874,128.3998554,1104.359913
11.2950,-17.33600908,127.989893,1102.698471
11.3000,-15.91158728,127.5823089,1101.050731
11.3050,-14.479713,127.1768037,1099.416557
11.3100,-13.04245714,126.7719981,1097.796257
11.3150,-11.59977884,126.367612,1096.189772
11.3200,-10.15558327,125.9635067,1094.59842
11.3250,-8.711687595,125.5591688,1093.022293
11.3300,-7.267716307,125.1545301,1091.461327
11.3350,-5.825136544,124.7504607,1089.916042
11.3400,-4.383404791,124.3458971,1088.385899
11.3450,-2.943989522,123.9411094,1086.871356
11.3500,-1.506687401,123.537049,1085.372365
11.3550,-0.07276262739,123.1304172,1083.889017
11.3600,1.359160159,122.7215601,1082.420473
11.3650,2.785310636,122.3107533,1080.967811
11.3700,4.206937217,121.8975073,1079.530323
11.3750,5.623045034,121.4827326,1078.10843
11.3800,7.034863797,121.064681,1076.701137
11.3850,8.442978322,120.6444291,1075.308943
11.3900,9.847727276,120.2219328,1073.93192
11.3950,11.24975907,119.7972602,1072.569496
11.4000,12.64986961,119.3711821,1071.222355
11.4050,14.049086,118.9443962,1069.890697
11.4100,15.44929284,118.5177524,1068.574974
11.4150,16.85143974,118.0911642,1067.274893
11.4200,18.25665908,117.6644612,1065.990507
11.4250,19.66546515,117.2376571,1064.721394
11.4300,21.07916934,116.8112195,1063.467525
11.4350,22.50072057,116.3853426,1062.228431
11.4400,23.93187394,115.9600544,1061.003428
11.4450,25.37276491,115.5356503,1059.792649
11.4500,26.8242446,115.1119583,1058.59592
11.4550,28.28886469,114.6888219,1057.412398
11.4600,29.76588845,114.2676883,1056.242476
11.4650,31.25599397,113.8473034,1055.085999
11.4700,32.76064668,113.4277079,1053.942596
11.4750,34.27847192,113.0085653,1052.812705
11.4800,35.81004458,112.5901428,1051.696195
11.4850,37.35399012,112.1730177,1050.593225
11.4900,38.90910908,111.7569136,1049.50412
11.4950,40.47604427,111.3436054,1048.429081
11.5000,42.05371967,110.9342759,1047.367989
11.5050,43.64002134,110.5292963,1046.321521
11.5100,45.23385657,110.1299742,1045.290397
11.5150,46.83450481,109.738133,1044.274403
11.5200,48.44064328,109.3548009,1043.273742
11.5250,50.05108413,108.9819863,1042.288768
11.5300,51.6644081,108.6215411,1041.319642
11.5350,53.27870651,108.2740292,1040.366274
11.5400,54.89271341,107.941693,1039.429099
11.5450,56.50349659,107.6231715,1038.507889
11.5500,58.11105898,107.3199097,1037.60216
11.5550,59.71305198,107.0321337,1036.712146
11.5600,61.30865299,106.7604503,1035.837595
11.5650,62.89379023,106.503546,1034.978584
11.5700,64.46584762,106.2615656,1034.135134
11.5750,66.02338472,106.0354436,1033.307231
11.5800,67.56322426,105.8227546,1032.494417
11.5850,69.0828734,105.6234083,1031.696943
11.5900,70.58183404,105.4381301,1030.914471
11.5950,72.05872586,105.2676669,1030.147102
11.6000,73.51352308,105.10983,1029.393803
11.6050,74.94662551,104.9643359,1028.654348
11.6100,76.35936498,104.8330932,1027.928733
11.6150,77.75093598,104.7154814,1027.216813
11.6200,79.12395369,104.6108833,1026.51814
11.6250,80.47972966,104.51923,1025.8323
11.6300,81.81784078,104.4389911,1025.159596
11.6350,83.13904174,104.3716207,1024.500144
11.6400,84.44313726,104.3162145,1023.854239
11.6450,85.7320726,104.272387,1023.221465
11.6500,87.0056379,104.2385504,1022.602144
11.6550,88.26438276,104.2159618,1021.996457
11.6600,89.50968125,104.2041784,1021.404374
11.6650,90.74525821,104.2017484,1020.825508
11.6700,91.97362243,104.2089339,1020.259768
11.6750,93.19698189,104.2228854,1019.706458
11.6800,94.41523274,104.244406,1019.166064
11.6850,95.62906204,104.2701604,1018.63797
11.6900,96.83972417,104.3000408,1018.121978
11.6950,98.0483519,104.3326851,1017.617804
11.7000,99.25448833,104.3671714,1017.125483
11.7050,100.4597182,104.4028366,1016.644549
11.7100,101.6626049,104.4379306,1016.174951
11.7150,102.8629613,104.471354,1015.716473
11.7200,104.0616648,104.5037078,1015.26903
11.7250,105.2594263,104.5348293,1014.832549
11.7300,106.4568888,104.5625209,1014.406129
11.7350,107.653695,104.5869391,1013.989922
11.7400,108.8481128,104.6069988,1013.583599
11.7450,110.0414805,104.6206197,1013.186211
11.7500,111.2344617,104.6285174,1012.79766
11.7550,112.4253097,104.6300632,1012.417916
11.7600,113.6164254,104.624199,1012.04603
11.7650,114.807385,104.6111891,1011.681817
11.7700,115.9969104,104.5910786,1011.325353
11.7750,117.1867113,104.5629716,1010.975574
11.7800,118.3762814,104.5263453,1010.632314
11.7850,119.5651886,104.4802791,1010.295074
11.7900,120.7525462,104.4246979,1009.963678
11.7950,121.9384998,104.3587599,1009.637718
11.8000,123.1220608,104.281307,1009.316777
11.8050,124.3041191,104.1932498,1009.000871
11.8100,125.4829863,104.0944326,1008.689942
11.8150,126.6568897,103.9841775,1008.383889
11.8200,127.8260674,103.8627205,1008.082718
11.8250,128.9892057,103.7305315,1007.786475
11.8300,130.1454736,103.5868751,1007.494935
11.8350,131.2942101,103.4330977,1007.208496
11.8400,132.4334544,103.2684453,1006.92711
11.8450,133.561896,103.0944903,1006.65119
11.8500,134.6774025,102.9106533,1006.380653
11.8550,135.7795681,102.7180619,1006.115583
11.8600,136.8663661,102.516442,1005.856076
11.8650,137.9380285,102.306907,1005.602248
11.8700,138.9941517,102.0894854,1005.353834
11.8750,140.0349731,101.8655103,1005.111124
11.8800,141.0595017,101.6354869,1004.874214
11.8850,142.0689128,101.4006165,1004.642885
11.8900,143.0609975,101.161089,1004.417346
11.8950,144.0330822,100.9166055,1004.197392
11.9000,144.9850164,100.6698474,1003.983561
11.9050,145.9137439,100.4209202,1003.775812
11.9100,146.8169107,100.1697907,1003.57409
11.9150,147.6947833,99.91750492,1003.378354
11.9200,148.5460829,99.66526391,1003.188668
11.9250,149.3685901,99.41330167,1003.005144
11.9300,150.1610356,99.16174704,1002.827396
11.9350,150.9244432,98.91111332,1002.655192
11.9400,151.6559052,98.66150118,1002.488508
11.9450,152.3548406,98.41418296,1002.327567
11.9500,153.0217473,98.16997826,1002.172103
11.9550,153.6568336,97.92882517,1002.021813
11.9600,154.2607689,97.69224881,1001.876887
11.9650,154.8337743,97.45970197,1001.736726
11.9700,155.3750374,97.23024615,1001.601043
11.9750,155.8855264,97.00475486,1001.469803
11.9800,156.3653469,96.78378111,1001.343042
11.9850,156.8157247,96.56728653,1001.220415
11.9900,157.2380443,96.35256064,1001.10106
11.9950,157.6318406,96.14096517,1000.98535
12.0000,158.0004171,95.93175984,1000.872638
12.0050,158.3427669,95.72497609,1000.763058
12.0100,158.6612259,95.51991477,1000.656057
12.0150,158.959765,95.31666851,1000.551325
12.0200,159.238694,95.11463176,1000.448699
12.0250,159.4982747,94.91384816,1000.34806
12.0300,159.7398248,94.7141272,1000.249389
12.0350,159.9634655,94.51509078,1000.152333
12.0400,160.1722299,94.31628403,1000.056656
12.0450,160.3666673,94.11779381,999.9623058
12.0500,160.5474406,93.91856353,999.8690192
12.0550,160.7159628,93.71786329,999.7763567
12.0600,160.872211,93.51483553,999.6841847
12.0650,161.0176934,93.30942426,999.5923201
12.0700,161.1537293,93.10142025,999.5005094
12.0750,161.2818402,92.89028369,999.4086777
12.0800,161.4017153,92.67583729,999.3166753
12.0850,161.5143235,92.45791936,999.2244917
12.0900,161.6206163,92.23674069,999.1321582
12.0950,161.720839,92.01166321,999.0394225
12.1000,161.814162,91.78324607,998.9466653
12.1050,161.902566,91.55145143,998.8536095
12.1100,161.9873494,91.31566727,998.7600388
12.1150,162.0704644,91.07666088,998.6660422
12.1200,162.1521561,90.83402699,998.5714665
12.1250,162.2323483,90.58783478,998.4764393
12.1300,162.3128655,90.33803939,998.3807536
12.1350,162.3925127,90.08498469,998.2846623
12.1400,162.4739773,89.82971971,998.1882997
12.1450,162.5594796,89.57095864,998.0910187
12.1500,162.6495008,89.30976252,997.9932523
12.1550,162.7445729,89.04562322,997.8948838
12.1600,162.8454244,88.77913146,997.7958617
12.1650,162.9540105,88.51094945,997.696301
12.1700,163.0691949,88.24093082,997.5962736
12.1750,163.1904232,87.96852746,997.4955596
12.1800,163.3193354,87.69415308,997.3941226
12.1850,163.4546471,87.41704821,997.2919333
12.1900,163.5970535,87.13808396,997.1890935
12.1950,163.7469269,86.8582899,997.085946
12.2000,163.904588,86.57705221,996.9822502
12.2050,164.0709931,86.29477316,996.8780375
12.2100,164.2455946,86.01212336,996.7734917
12.2150,164.4279637,85.72978087,996.6688566
12.2200,164.617887,85.44812738,996.5641704
12.2250,164.8150758,85.16910571,996.4599006
12.2300,165.0185917,84.8926271,996.3561052
12.2350,165.2257689,84.62005948,996.2533846
12.2400,165.4375854,84.35188998,996.151681
12.2450,165.6515336,84.08817218,996.051133
12.2500,165.866365,83.8298571,995.9521182
12.2550,166.0805362,83.57703127,995.8547949
12.2600,166.292565,83.3300582,995.7593103
12.2650,166.5007442,83.08893262,995.6658096
12.2700,166.7062277,82.85608391,995.5746678
12.2750,166.9067419,82.63078347,995.4858556
12.2800,167.1031715,82.41190624,995.3990531
12.2850,167.2943619,82.20039156,995.3145704
12.2900,167.4810676,81.99744532,995.2325586
12.2950,167.6643723,81.80110389,995.1524104
12.3000,167.8434203,81.6112566,995.0741778
12.3050,168.0189472,81.42645444,994.9974816
12.3100,168.1922724,81.24718839,994.922396
12.3150,168.3607993,81.07270832,994.8489391
12.3200,168.5256276,80.90122143,994.7766141
12.3250,168.6878015,80.73212122,994.7052884
12.3300,168.8470611,80.56520101,994.6348901
12.3350,169.0041992,80.39968436,994.565271
12.3400,169.1580467,80.23511005,994.4964983
12.3450,169.3087248,80.0733064,994.4290196
12.3500,169.4556396,79.91085539,994.3621284
12.3550,169.5978744,79.75020269,994.2964886
12.3600,169.7344614,79.58921334,994.2318134
12.3650,169.863788,79.42885063,994.1684225
12.3700,169.9844975,79.26837084,994.1063908
12.3750,170.094265,79.10905801,994.0461447
12.3800,170.1926434,78.95027306,993.9877566
12.3850,170.2787101,78.79238553,993.9312836
12.3900,170.3511097,78.63534622,993.8769611
12.3950,170.4079966,78.47960626,993.825052
12.4000,170.450175,78.32626469,993.775781
12.4050,170.4742239,78.17425494,993.7291517
12.4100,170.480614,78.0250078,993.685515
12.4150,170.4682851,77.87806967,993.6448281
12.4200,170.4373892,77.73552635,993.6075236
12.4250,170.3877975,77.59611482,993.573314
12.4300,170.3190655,77.46078353,993.5424688
12.4350,170.2338539,77.33018121,993.5149016
12.4400,170.1309346,77.20341626,993.4903982
12.4450,170.010264,77.08245794,993.4695309
12.4500,169.8725376,76.9661581,993.4518831
12.4550,169.7186765,76.85620027,993.4377201
12.4600,169.5501288,76.75230135,993.4269526
12.4650,169.3665363,76.65425138,993.4194973
12.4700,169.1693669,76.56212978,993.4153012
12.4750,168.9606307,76.47649389,993.4142752
12.4800,168.7396919,76.39769109,993.4166065
12.4850,168.5068613,76.32656287,993.4224895
12.4900,168.2615109,76.2621775,993.4317689
12.4950,168.006064,76.20475426,993.4443291
12.5000,167.738436,76.15336092,993.4601536
12.5050,167.4589946,76.11006059,993.4797225
12.5100,167.168251,76.07383173,993.5028611
12.5150,166.866,76.04405644,993.5293723
12.5200,166.5517705,76.02102051,993.5593942
12.5250,166.2267489,76.0031843,993.5925503
12.5300,165.8920092,75.99229836,993.6291853
12.5350,165.5469495,75.98706722,993.6690694
12.5400,165.1927704,75.98877408,993.7124546
12.5450,164.8305876,75.99701027,993.7591094
12.5500,164.4604176,76.01198563,993.8091632
12.5550,164.0832639,76.033449,993.8624969
12.5600,163.7002951,76.06002869,993.9186669
12.5650,163.3119237,76.09341478,993.9780079
12.5700,162.9177619,76.13119404,994.0401139
12.5750,162.5187212,76.17346284,994.1050003
12.5800,162.1140361,76.21971871,994.1725356
12.5850,161.7039435,76.26908033,994.2425375
12.5900,161.289567,76.32124514,994.3149235
12.5950,160.8697484,76.37690157,994.3900058
12.6000,160.4460267,76.43365328,994.4671193
12.6050,160.0195268,76.49280663,994.5464163
12.6100,159.5893168,76.55203786,994.6275547
12.6150,159.1563991,76.61136469,994.7105119
12.6200,158.7214329,76.67096201,994.7953412
12.6250,158.2843919,76.7287234,994.8816151
12.6300,157.8453181,76.78515293,994.9695468
12.6350,157.4037439,76.83758997,995.0586669
12.6400,156.9608678,76.88676203,995.1490215
12.6450,156.5163649,76.93075375,995.2403923
12.6500,156.0694133,76.9707736,995.3332129
12.6550,155.6217559,77.0045451,995.4268806
12.6600,155.1725067,77.03272931,995.5217766
12.6650,154.7222384,77.05311567,995.6174966
12.6700,154.2705116,77.06622999,995.7142585
12.6750,153.8177043,77.07089403,995.8120096
12.6800,153.3604148,77.06752111,995.9112269
12.6850,152.8997551,77.05581077,996.0119104
12.6900,152.4352243,77.03464477,996.1138615
12.6950,151.9665445,77.00518437,996.2175688
12.7000,151.4914448,76.96566881,996.3229289
12.7050,151.0102266,76.91664167,996.4300556
12.7100,150.5196673,76.85890003,996.539622
12.7150,150.0185655,76.79195569,996.6517424
12.7200,149.505026,76.71435963,996.7663279
12.7250,148.9787095,76.62811447,996.8839557
12.7300,148.4365648,76.53456243,997.0052815
12.7350,147.8775926,76.43216177,997.1301709
12.7400,147.3000981,76.32284611,997.2593396
12.7450,146.7043649,76.20717796,997.3928407
12.7500,146.0886274,76.0860316,997.531226
12.7550,145.4522473,75.96068662,997.6747683
12.7600,144.7938488,75.83132562,997.8236719
12.7650,144.1121512,75.69787521,997.9780819
12.7700,143.4075412,75.56151391,998.1383951
12.7750,142.6798459,75.42347389,998.3050283
12.7800,141.9287671,75.28357607,998.4780244
12.7850,141.1538664,75.14080065,998.6573478
12.7900,140.3566375,74.99670508,998.8431729
12.7950,139.5357684,74.85160138,999.0359163
12.8000,138.6922638,74.707845,999.2361485
12.8050,137.8253854,74.56428168,999.4438898
12.8100,136.9352178,74.42154629,999.6593825
12.8150,136.0214472,74.28075421,999.8833053
12.8200,135.0846747,74.14226693,1000.115851
12.8250,134.1243774,74.00762437,1000.357664
12.8300,133.1402069,73.87629567,1000.608831
12.8350,132.1338446,73.74943704,1000.869548
12.8400,131.104462,73.62705886,1001.140084
12.8450,130.0520474,73.50914792,1001.420653
12.8500,128.9770142,73.39503777,1001.710926
12.8550,127.8799096,73.28684536,1002.011586
12.8600,126.7611364,73.18434333,1002.322663
12.8650,125.6233125,73.08667472,1002.64384
12.8700,124.4660971,72.99613437,1002.975838
12.8750,123.2919282,72.91378949,1003.318665
12.8800,122.1036944,72.84036955,1003.672283
12.8850,120.9021513,72.77642295,1004.037023
12.8900,119.6876147,72.72206648,1004.412976
12.8950,118.4625196,72.67676257,1004.80012
12.9000,117.2271359,72.64074854,1005.19857
12.9050,115.9825818,72.61177141,1005.608109
12.9100,114.7304866,72.59195336,1006.029194
12.9150,113.4725751,72.57993865,1006.461459
12.9200,112.2088155,72.5746411,1006.904958
12.9250,110.9410198,72.5774848,1007.360102
12.9300,109.6698966,72.58751926,1007.826861
12.9350,108.398591,72.6064138,1008.305416
12.9400,107.12624,72.63246454,1008.795935
12.9450,105.8534108,72.66567517,1009.298461
12.9500,104.582029,72.70579577,1009.812967
12.9550,103.3120601,72.75260284,1010.339881
12.9600,102.0426855,72.80646711,1010.879601
12.9650,100.7752199,72.86763033,1011.432211
12.9700,99.50993206,72.93570307,1011.997888
12.9750,98.24623451,73.01070265,1012.57688
12.9800,96.98757019,73.09253663,1013.168677
12.9850,95.73114156,73.18229203,1013.774223
12.9900,94.47574012,73.28049804,1014.394077
12.9950,93.22203677,73.38618853,1015.027799
13.0000,91.97033826,73.5003483,1015.675703
13.0050,90.71992974,73.62334546,1016.338132
13.0100,89.47113494,73.75516018,1017.015055
13.0150,88.22374529,73.89663648,1017.70633
13.0200,86.97792457,74.04834045,1018.412427
13.0250,85.73278693,74.21052909,1019.13322
13.0300,84.48909774,74.38221537,1019.868267
13.0350,83.24607134,74.56480013,1020.617783
13.0400,82.00399769,74.75781747,1021.381411
13.0450,80.76174699,74.96082265,1022.159102
13.0500,79.52060067,75.17378716,1022.950253
13.0550,78.27706198,75.39520412,1023.755454
13.0600,77.03228477,75.62601551,1024.574433
13.0650,75.78461715,75.86619887,1025.40757
13.0700,74.53383644,76.11539863,1026.25455
13.0750,73.2777105,76.37288813,1027.115645
13.0800,72.01594646,76.63987128,1027.990863
13.0850,70.7477045,76.91662918,1028.880564
13.0900,69.47271793,77.20242868,1029.784851
13.0950,68.19078605,77.49754073,1030.703851
13.1000,66.90235794,77.80147509,1031.636899
13.1050,65.6067042,78.11440741,1032.584552
13.1100,64.30438299,78.43576631,1033.546345
13.1150,62.99697973,78.76608098,1034.522008
13.1200,61.68302647,79.1036895,1035.511716
13.1250,60.36368855,79.44917454,1036.514772
13.1300,59.03891259,79.80233372,1037.531345
13.1350,57.70744538,80.16222222,1038.561679
13.1400,56.37083139,80.52803415,1039.604895
13.1450,55.02883679,80.90059377,1040.661246
13.1500,53.6811249,81.27987492,1041.731557
13.1550,52.32992763,81.66396634,1042.814317
13.1600,50.97533175,82.05473253,1043.909805
13.1650,49.61667119,82.4506638,1045.018723
13.1700,48.25471464,82.85000229,1046.139916
13.1750,46.88993265,83.25251534,1047.273726
13.1800,45.52056388,83.65628091,1048.420187
13.1850,44.14786475,84.06132072,1049.578923
13.1900,42.77257891,84.4676524,1050.749534
13.1950,41.39537276,84.87504027,1051.931907
13.2000,40.01570128,85.28265461,1053.126411
13.2050,38.63575333,85.69042074,1054.332503
13.2100,37.25517438,86.09675908,1055.549753
13.2150,35.87404312,86.50148455,1056.779147
13.2200,34.49477017,86.9049385,1058.020288
13.2250,33.11785259,87.3059375,1059.272814
13.2300,31.74401423,87.70433733,1060.53699
13.2350,30.37310402,88.09973042,1061.813188
13.2400,29.0066164,88.4923972,1063.101036
13.2450,27.64491557,88.8805402,1064.400094
13.2500,26.28760315,89.26524547,1065.711043
13.2550,24.93564454,89.64562112,1067.033483
13.2600,23.59000946,90.02150839,1068.366728
13.2650,22.25088116,90.39340631,1069.711395
13.2700,20.91855947,90.75996145,1071.066447
13.2750,19.59365322,91.12158496,1072.432174
13.2800,18.27574808,91.4780034,1073.808684
13.2850,16.96492834,91.82902012,1075.195177
13.2900,15.6631579,92.17458049,1076.591202
13.2950,14.36976356,92.51418735,1077.996685
13.3000,13.08448252,92.84907214,1079.412065
13.3050,11.8074081,93.17840523,1080.836792
13.3100,10.53972633,93.50249459,1082.269949
13.3150,9.280701932,93.82018854,1083.71197
13.3200,8.030575657,94.13256173,1085.161744
13.3250,6.788384404,94.43940973,1086.620477
13.3300,5.555784402,94.74157472,1088.087587
13.3350,4.331238983,95.0387289,1089.56312
13.3400,3.115748289,95.32973691,1091.046337
13.3450,1.909617169,95.61596813,1092.537663
13.3500,0.7114476431,95.89846309,1094.037439
13.3550,-0.4769256653,96.17761022,1095.54527
13.3600,-1.655590522,96.45274923,1097.060921
13.3650,-2.822996979,96.7253916,1098.582823
13.3700,-3.981681399,96.99549977,1100.112465
13.3750,-5.130062721,97.26405209,1101.649288
13.3800,-6.267794877,97.53092303,1103.193437
13.3850,-7.394508629,97.79762294,1104.744324
13.3900,-8.511230621,98.06421648,1106.302209
13.3950,-9.617329386,98.33055342,1107.866193
13.4000,-10.71295117,98.5977133,1109.437583
13.4050,-11.79693596,98.86565127,1111.01519
13.4100,-12.86947002,99.13600856,1112.599639
13.4150,-13.93187874,99.40788064,1114.191217
13.4200,-14.98316287,99.68210747,1115.78953
13.4250,-16.02283356,99.95857969,1117.394743
13.4300,-17.05095073,100.2368679,1119.006722
13.4350,-18.06693989,100.5168753,1120.625105
13.4400,-19.0716909,100.7988809,1122.249976
13.4450,-20.06347598,101.0817349,1123.881633
13.4500,-21.0412153,101.3662117,1125.519124
13.4550,-22.00624111,101.6518432,1127.163414
13.4600,-22.95802762,101.9362753,1128.814361
13.4650,-23.89722527,102.220525,1130.470976
13.4700,-24.82280326,102.5035337,1132.133628
13.4750,-25.73541909,102.7848177,1133.802091
13.4800,-26.63520823,103.0644543,1135.476441
13.4850,-27.52093863,103.341254,1137.156092
13.4900,-28.39306339,103.6132589,1138.84157
13.4950,-29.25177979,103.879586,1140.53298
13.5000,-30.09662479,104.1418217,1142.230614
13.5050,-30.92973828,104.3988106,1143.935365
13.5100,-31.74984871,104.6498623,1145.647298
13.5150,-32.55798913,104.894832,1147.365555
13.5200,-33.3545688,105.1334398,1149.090201
13.5250,-34.13987837,105.3661922,1150.82229
13.5300,-34.91427317,105.591514,1152.560672
13.5350,-35.6786116,105.8093947,1154.30534
13.5400,-36.43333173,106.0202707,1156.057433
13.5450,-37.17870186,106.2241297,1157.816203
13.5500,-37.91379312,106.4205433,1159.581707
13.5550,-38.63985847,106.6090837,1161.353731
13.5600,-39.35786888,106.7900161,1163.132768
13.5650,-40.06932652,106.9619456,1164.918114
13.5700,-40.77395037,107.1251255,1166.710671
13.5750,-41.47400232,107.279362,1168.509671
13.5800,-42.17052372,107.4245768,1170.315154
13.5850,-42.86380639,107.5601535,1172.127286
13.5900,-43.55429669,107.6870372,1173.945689
13.5950,-44.24239585,107.8047108,1175.769918
13.6000,-44.92844132,107.9137473,1177.598783
13.6050,-45.61305947,108.0142147,1179.433875
13.6100,-46.29747468,108.1057032,1181.274531
13.6150,-46.98003395,108.1892161,1183.120049
13.6200,-47.662149,108.2646983,1184.971497
13.6250,-48.34329339,108.3323493,1186.826976
13.6300,-49.02384544,108.3934128,1188.68668
13.6350,-49.70412094,108.4465442,1190.55044
13.6400,-50.38412995,108.494932,1192.418451
13.6450,-51.06426345,108.5364368,1194.289517
13.6500,-51.74392234,108.5722228,1196.163845
13.6550,-52.42135112,108.6023258,1198.040454
13.6600,-53.09833036,108.6273898,1199.919902
13.6650,-53.77340519,108.6475865,1201.802866
13.6700,-54.44559399,108.6633944,1203.688004
13.6750,-55.11538266,108.6746942,1205.575326
13.6800,-55.78064226,108.6816782,1207.464569
13.6850,-56.44061427,108.6835058,1209.355931
13.6900,-57.0948044,108.679994,1211.248239
13.6950,-57.74263643,108.6717211,1213.142539
13.7000,-58.38325741,108.6583783,1215.037818
13.7050,-59.01743095,108.6395088,1216.934944
13.7100,-59.6439226,108.6150116,1218.832994
13.7150,-60.26179336,108.586273,1220.731493
13.7200,-60.87040639,108.5526717,1222.630205
13.7250,-61.46978709,108.5151235,1224.529083
13.7300,-62.05838327,108.4734458,1226.428121
13.7350,-62.6357581,108.4275121,1228.326774
13.7400,-63.19956415,108.3771768,1230.225167
13.7450,-63.75068018,108.3242447,1232.12287
13.7500,-64.28736475,108.2685627,1234.019643
13.7550,-64.80921358,108.2098718,1235.915396
