type,name,time_units,begin_time,frequency,count,units
signal_3d,"Noraxon MyoMotion-Trajectories-Lateral humeral epicondyle RT","s",0.0000,200,4984,"mm"

time,x,y,z
0.0000,188.6654245,-13.73011848,1239.291358
0.0050,188.6598232,-13.76805657,1239.295206
0.0100,188.6542266,-13.8059935,1239.299054
0.0150,188.6486348,-13.84392926,1239.302905
0.0200,188.6444751,-13.88541799,1239.306549
0.0250,188.64219,-13.93030958,1239.309859
0.0300,188.642248,-13.97840387,1239.3127
0.0350,188.645127,-14.02946748,1239.314935
0.0400,188.651294,-14.08325103,1239.316429
0.0450,188.6611884,-14.13950196,1239.317056
0.0500,188.6752116,-14.19797072,1239.316695
0.0550,188.6937162,-14.2584134,1239.31524
0.0600,188.7169893,-14.32059557,1239.312599
0.0650,188.7452429,-14.3842949,1239.308701
0.0700,188.7786102,-14.4492968,1239.303491
0.0750,188.8171463,-14.51538751,1239.296942
0.0800,188.8608314,-14.58235227,1239.289044
0.0850,188.9095732,-14.64997698,1239.279812
0.0900,188.9632037,-14.71804859,1239.269284
0.0950,189.021473,-14.78635428,1239.257524
0.1000,189.0840418,-14.85467992,1239.244618
0.1050,189.1504751,-14.92280794,1239.23068
0.1100,189.2202377,-14.99051483,1239.21585
0.1150,189.2926917,-15.05756888,1239.200295
0.1200,189.3670934,-15.12372913,1239.184205
0.1250,189.4425948,-15.18874587,1239.167791
0.1300,189.5182504,-15.25236099,1239.151284
0.1350,189.5930276,-15.31430768,1239.134932
0.1400,189.6658249,-15.37431234,1239.118989
0.1450,189.735499,-15.43209989,1239.103715
0.1500,189.8008955,-15.48740098,1239.089366
0.1550,189.8552574,-15.58965044,1239.073923
0.1600,189.9019654,-15.68863659,1239.059722
0.1650,189.9403788,-15.78360135,1239.046879
0.1700,189.9707454,-15.87429063,1239.035481
0.1750,189.9917929,-15.96109893,1239.025633
0.1800,190.0020734,-16.04244959,1239.017809
0.1850,190.0021171,-16.11854622,1239.01174
0.1900,189.9917449,-16.18884966,1239.007569
0.1950,189.9702117,-16.25377882,1239.005428
0.2000,189.9380139,-16.31271381,1239.005212
0.2050,189.8966903,-16.36601176,1239.006595
0.2100,189.8456086,-16.41328951,1239.009673
0.2150,189.7851648,-16.45471158,1239.014389
0.2200,189.717286,-16.49066593,1239.02018
0.2250,189.6421683,-16.52100869,1239.027119
0.2300,189.5607339,-16.54698068,1239.034895
0.2350,189.4752861,-16.5686602,1239.043015
0.2400,189.3874711,-16.58528191,1239.051359
0.2450,189.2979586,-16.59872845,1239.059583
0.2500,189.2086863,-16.60880971,1239.067431
0.2550,189.120438,-16.61638658,1239.074646
0.2600,189.0340006,-16.62078874,1239.081339
0.2650,188.9511097,-16.62321726,1239.087016
0.2700,188.8715571,-16.62313067,1239.091942
0.2750,188.7961063,-16.62118803,1239.095859
0.2800,188.7248243,-16.61809388,1239.09879
0.2850,188.6583603,-16.61286727,1239.100806
0.2900,188.5968385,-16.60709296,1239.101789
0.2950,188.5397889,-16.60028155,1239.101915
0.3000,188.4875346,-16.59242211,1239.101168
0.3050,188.4404645,-16.58289779,1239.099708
0.3100,188.3991536,-16.57205591,1239.097356
0.3150,188.3629282,-16.55948195,1239.094508
0.3200,188.3313746,-16.54571062,1239.091095
0.3250,188.3043523,-16.53129113,1239.087206
0.3300,188.2821728,-16.51533732,1239.082977
0.3350,188.2645562,-16.49848458,1239.078468
0.3400,188.2516174,-16.48088582,1239.073622
0.3450,188.2433887,-16.46323149,1239.068428
0.3500,188.2388442,-16.44497085,1239.06327
0.3550,188.2390177,-16.42723759,1239.057835
0.3600,188.2441441,-16.41025044,1239.052172
0.3650,188.2526039,-16.39596272,1239.046363
0.3700,188.2651576,-16.38305986,1239.040355
0.3750,188.2805364,-16.3728928,1239.034355
0.3800,188.2993591,-16.36597569,1239.028179
0.3850,188.3209342,-16.36303693,1239.02193
0.3900,188.3436849,-16.36346013,1239.015978
0.3950,188.3687731,-16.36807047,1239.009977
0.4000,188.3935779,-16.37675115,1239.004427
0.4050,188.4196771,-16.39035581,1238.998894
0.4100,188.4447591,-16.40973655,1238.993771
0.4150,188.4694147,-16.43338216,1238.988961
0.4200,188.4935484,-16.4618756,1238.984423
0.4250,188.5155729,-16.49544572,1238.980378
0.4300,188.5355786,-16.53361881,1238.976654
0.4350,188.5546029,-16.57527028,1238.973167
0.4400,188.5719145,-16.6209406,1238.969935
0.4450,188.5882805,-16.67043695,1238.966741
0.4500,188.6042721,-16.7226776,1238.963488
0.4550,188.6197762,-16.77801767,1238.960145
0.4600,188.6362539,-16.83659917,1238.956388
0.4650,188.6533403,-16.89784487,1238.952384
0.4700,188.6720868,-16.96186035,1238.947738
0.4750,188.6929645,-17.02738143,1238.942537
0.4800,188.7164388,-17.09566813,1238.936511
0.4850,188.7424075,-17.16598398,1238.929812
0.4900,188.7709934,-17.23858366,1238.922385
0.4950,188.8032381,-17.31259987,1238.914044
0.5000,188.8387379,-17.38884142,1238.904813
0.5050,188.8771037,-17.46607397,1238.894916
0.5100,188.9194463,-17.54543782,1238.884071
0.5150,188.9649018,-17.62670718,1238.87245
0.5200,189.0135073,-17.70959744,1238.860125
0.5250,189.064762,-17.79336539,1238.847322
0.5300,189.1189222,-17.87615821,1238.834146
0.5350,189.1754699,-17.95875084,1238.820732
0.5400,189.2338846,-18.04194444,1238.807105
0.5450,189.2941342,-18.12394501,1238.793394
0.5500,189.3557424,-18.20357877,1238.779864
0.5550,189.4183899,-18.28167061,1238.76652
0.5600,189.4813454,-18.35819594,1238.753436
0.5650,189.5449223,-18.43248794,1238.740664
0.5700,189.6077645,-18.50566944,1238.728291
0.5750,189.670249,-18.57675235,1238.716275
0.5800,189.7325599,-18.64524599,1238.704618
0.5850,189.7934898,-18.71301367,1238.693308
0.5900,189.853131,-18.77777851,1238.682453
0.5950,189.9102325,-18.83996732,1238.67231
0.6000,189.9651363,-18.90029896,1238.662678
0.6050,190.0168975,-18.96022301,1238.653431
0.6100,190.0648146,-19.0187382,1238.644838
0.6150,190.1093529,-19.07709864,1238.636618
0.6200,190.1504297,-19.13567673,1238.628782
0.6250,190.1872472,-19.19399214,1238.621432
0.6300,190.2200545,-19.25327794,1238.614283
0.6350,190.248102,-19.31344153,1238.607465
0.6400,190.2709138,-19.37480768,1238.601065
0.6450,190.2892711,-19.43803916,1238.594808
0.6500,190.3032488,-19.50319332,1238.588595
0.6550,190.3120829,-19.56943897,1238.582561
0.6600,190.3169698,-19.63762366,1238.576398
0.6650,190.3183111,-19.70614796,1238.570165
0.6700,190.3163456,-19.77582795,1238.563717
0.6750,190.3119773,-19.84594099,1238.556951
0.6800,190.3054605,-19.91571974,1238.549772
0.6850,190.2968636,-19.98455582,1238.542288
0.6900,190.2876415,-20.05347157,1238.534099
0.6950,190.2773391,-20.12088958,1238.525369
0.7000,190.269275,-20.18763121,1238.515383
0.7050,190.262421,-20.25222311,1238.504488
0.7100,190.2571687,-20.3154442,1238.492456
0.7150,190.2544955,-20.37743464,1238.479156
0.7200,190.2542041,-20.43817833,1238.464654
0.7250,190.2568311,-20.49741688,1238.448919
0.7300,190.2636719,-20.55540214,1238.431764
0.7350,190.2727642,-20.61188334,1238.413683
0.7400,190.2862457,-20.66651366,1238.394308
0.7450,190.3034093,-20.7199072,1238.373852
0.7500,190.3232318,-20.77219356,1238.352515
0.7550,190.3456073,-20.82241286,1238.330458
0.7600,190.3703403,-20.87059915,1238.307749
0.7650,190.3963003,-20.91792753,1238.284551
0.7700,190.4232162,-20.96494519,1238.26092
0.7750,190.4501132,-21.01078891,1238.237172
0.7800,190.4764434,-21.05550617,1238.213507
0.7850,190.5019844,-21.09919876,1238.189982
0.7900,190.5253587,-21.14156006,1238.166962
0.7950,190.5453968,-21.18428955,1238.144617
0.8000,190.5626668,-21.22586008,1238.122932
0.8050,190.5760634,-21.26651551,1238.102052
0.8100,190.5854518,-21.30587315,1238.082108
0.8150,190.5909447,-21.34411717,1238.063041
0.8200,190.5917554,-21.38149964,1238.044997
0.8250,190.5882932,-21.41817895,1238.027736
0.8300,190.5806912,-21.45536687,1238.011171
0.8350,190.568718,-21.49236299,1237.995345
0.8400,190.5524768,-21.52879517,1237.980199
0.8450,190.5316549,-21.56497568,1237.965851
0.8500,190.5081175,-21.60230021,1237.951664
0.8550,190.4822939,-21.63930038,1237.93772
0.8600,190.4556044,-21.6763787,1237.923736
0.8650,190.4279173,-21.71304984,1237.909805
0.8700,190.4011977,-21.74906444,1237.895534
0.8750,190.3756482,-21.7837693,1237.881024
0.8800,190.3503359,-21.81818514,1237.866281
0.8850,190.3269009,-21.85147502,1237.851147
0.8900,190.3049803,-21.88353956,1237.835759
0.8950,190.2864766,-21.91492681,1237.819615
0.9000,190.2694834,-21.94531573,1237.803165
0.9050,190.2549705,-21.97388037,1237.786368
0.9100,190.2425872,-22.00051389,1237.769383
0.9150,190.2315167,-22.02518121,1237.752315
0.9200,190.2223882,-22.0470313,1237.73512
0.9250,190.2141512,-22.06699936,1237.718042
0.9300,190.2068695,-22.08386084,1237.701278
0.9350,190.2005411,-22.09784678,1237.684927
0.9400,190.1936951,-22.10885122,1237.669173
0.9450,190.186122,-22.11655848,1237.654134
0.9500,190.1772345,-22.12127245,1237.639978
0.9550,190.1672634,-22.12361184,1237.626665
0.9600,190.1547017,-22.12193078,1237.614632
0.9650,190.139256,-22.11688612,1237.603894
0.9700,190.1199408,-22.10935429,1237.594681
0.9750,190.0958009,-22.09909069,1237.587275
0.9800,190.0671845,-22.08578139,1237.581684
0.9850,190.033722,-22.06913846,1237.578097
0.9900,189.9956711,-22.04888003,1237.576599
0.9950,189.9530558,-22.02583191,1237.57718
1.0000,189.9053693,-21.99948638,1237.580028
1.0050,189.8525869,-21.97028512,1237.585051
1.0100,189.7956563,-21.9366926,1237.592284
1.0150,189.735095,-21.89987523,1237.60142
1.0200,189.6704659,-21.85953567,1237.612508
1.0250,189.6034112,-21.81583847,1237.62513
1.0300,189.5334189,-21.76918187,1237.639218
1.0350,189.4608218,-21.72096613,1237.654541
1.0400,189.3843949,-21.67225895,1237.671122
1.0450,189.3041064,-21.62261343,1237.688902
1.0500,189.2214403,-21.57334629,1237.707369
1.0550,189.1361627,-21.52557922,1237.726322
1.0600,189.0487762,-21.47933332,1237.745581
1.0650,188.9602571,-21.43515686,1237.764775
1.0700,188.870328,-21.39319867,1237.783801
1.0750,188.780199,-21.35404485,1237.802271
1.0800,188.6918406,-21.31805542,1237.819459
1.0850,188.6053172,-21.28633412,1237.835212
1.0900,188.5224304,-21.25866589,1237.848954
1.0950,188.4437923,-21.23456769,1237.860541
1.1000,188.3696343,-21.21595039,1237.869636
1.1050,188.301853,-21.20246189,1237.875801
1.1100,188.2408847,-21.19390349,1237.878887
1.1150,188.1876467,-21.19038154,1237.878573
1.1200,188.1427593,-21.19255303,1237.874663
1.1250,188.1077473,-21.19977151,1237.866905
1.1300,188.0829626,-21.21158054,1237.855132
1.1350,188.0696714,-21.2282321,1237.839082
1.1400,188.0681236,-21.25017446,1237.818578
1.1450,188.0801981,-21.27697013,1237.793294
1.1500,188.1040909,-21.30812269,1237.763669
1.1550,188.1402897,-21.34433407,1237.729414
1.1600,188.1875595,-21.38397108,1237.690861
1.1650,188.2464371,-21.42866577,1237.647727
1.1700,188.3153082,-21.47623854,1237.600492
1.1750,188.3934094,-21.52887255,1237.549083
1.1800,188.4809933,-21.5841233,1237.493712
1.1850,188.5757674,-21.64223101,1237.434859
1.1900,188.6771743,-21.70274907,1237.372682
1.1950,188.7840854,-21.76475741,1237.307569
1.2000,188.8958686,-21.82772278,1237.239713
1.2050,189.0117581,-21.89120351,1237.169323
1.2100,189.1309086,-21.95475062,1237.09662
1.2150,189.2520461,-22.01747991,1237.022003
1.2200,189.3750567,-22.07906925,1236.945522
1.2250,189.4994311,-22.13913894,1236.867283
1.2300,189.6251567,-22.19740841,1236.787309
1.2350,189.7514346,-22.2547584,1236.705616
1.2400,189.8793529,-22.3083215,1236.622386
1.2450,190.0077165,-22.35910883,1236.537751
1.2500,190.1367896,-22.40602104,1236.451669
1.2550,190.2670985,-22.44899463,1236.36405
1.2600,190.3971196,-22.48869833,1236.275087
1.2650,190.5288178,-22.52439858,1236.184445
1.2700,190.6625116,-22.5545721,1236.092168
1.2750,190.7977297,-22.57923308,1235.998191
1.2800,190.9348198,-22.59879725,1235.902506
1.2850,191.0749495,-22.61358844,1235.804705
1.2900,191.2163077,-22.62275292,1235.705204
1.2950,191.3595928,-22.62608115,1235.603827
1.3000,191.504512,-22.62298529,1235.500711
1.3050,191.6504673,-22.61382388,1235.395956
1.3100,191.7967274,-22.59845271,1235.289685
1.3150,191.9422057,-22.57683511,1235.182242
1.3200,192.0875122,-22.5481825,1235.073558
1.3250,192.2298784,-22.51315548,1234.964129
1.3300,192.3692479,-22.47204428,1234.854087
1.3350,192.5045382,-22.42378544,1234.743561
1.3400,192.636165,-22.36824317,1234.632747
1.3450,192.7635917,-22.30588162,1234.521575
1.3500,192.8856869,-22.23632387,1234.410404
1.3550,193.0023696,-22.15956217,1234.299245
1.3600,193.1123425,-22.07586823,1234.188334
1.3650,193.2164732,-21.9856995,1234.077464
1.3700,193.3139314,-21.88838188,1233.966963
1.3750,193.4044112,-21.78557326,1233.856747
1.3800,193.4856134,-21.67730294,1233.747295
1.3850,193.5588401,-21.56271247,1233.638424
1.3900,193.6232976,-21.44380011,1233.530246
1.3950,193.6789517,-21.31948527,1233.42276
1.4000,193.7269507,-21.19009726,1233.31581
1.4050,193.7667078,-21.05722263,1233.209344
1.4100,193.7975904,-20.92147839,1233.10341
1.4150,193.8209461,-20.78373621,1232.997745
1.4200,193.8370843,-20.64400798,1232.89226
1.4250,193.8454804,-20.50248343,1232.787093
1.4300,193.8463592,-20.36011976,1232.682163
1.4350,193.8402922,-20.21789842,1232.577306
1.4400,193.8273403,-20.07525863,1232.472596
1.4450,193.8067562,-19.93174617,1232.368128
1.4500,193.7794447,-19.78865222,1232.263591
1.4550,193.7445721,-19.64547174,1232.159264
1.4600,193.7036477,-19.50367365,1232.054763
1.4650,193.6554787,-19.36155792,1231.950475
1.4700,193.5996159,-19.22076046,1231.846404
1.4750,193.5360008,-19.07983686,1231.742789
1.4800,193.4643048,-18.9391278,1231.639642
1.4850,193.3851917,-18.79779358,1231.536884
1.4900,193.2971911,-18.656799,1231.434766
1.4950,193.1999783,-18.51579625,1231.333373
1.5000,193.0940536,-18.37422842,1231.232691
1.5050,192.9775693,-18.23236844,1231.133189
1.5100,192.8503273,-18.09073289,1231.034803
1.5150,192.7117273,-17.94783633,1230.937844
1.5200,192.5618394,-17.80459191,1230.842379
1.5250,192.4006482,-17.65991898,1230.748497
1.5300,192.2277314,-17.51339993,1230.656443
1.5350,192.0422687,-17.36466436,1230.566459
1.5400,191.8441811,-17.21485206,1230.478497
1.5450,191.6346555,-17.06247328,1230.392626
1.5500,191.4144092,-16.90804607,1230.308738
1.5550,191.18276,-16.75041616,1230.227149
1.5600,190.9410641,-16.58911294,1230.147726
1.5650,190.6878205,-16.4236437,1230.070854
1.5700,190.4249986,-16.25354801,1229.996283
1.5750,190.1528353,-16.07773277,1229.924076
1.5800,189.8715342,-15.89561105,1229.854214
1.5850,189.5810937,-15.70663859,1229.786845
1.5900,189.2838173,-15.51007155,1229.721534
1.5950,188.978767,-15.30725269,1229.658393
1.6000,188.6656154,-15.09790928,1229.597369
1.6050,188.3455865,-14.88163717,1229.538389
1.6100,188.0193281,-14.65974053,1229.48105
1.6150,187.6863864,-14.43260392,1229.425511
1.6200,187.3452,-14.20186887,1229.371925
1.6250,186.9983335,-13.9665614,1229.31998
1.6300,186.6443156,-13.72786622,1229.269852
1.6350,186.2858878,-13.48677958,1229.221125
1.6400,185.9223895,-13.24220103,1229.173877
1.6450,185.5536368,-12.99538808,1229.128229
1.6500,185.1810807,-12.7452607,1229.083928
1.6550,184.8048377,-12.49284236,1229.04097
1.6600,184.4261269,-12.23786708,1228.999072
1.6650,184.0462839,-11.97885207,1228.958264
1.6700,183.6655082,-11.71593962,1228.918533
1.6750,183.2843723,-11.44858753,1228.87984
1.6800,182.9050475,-11.17501285,1228.842058
1.6850,182.5273793,-10.89671035,1228.805015
1.6900,182.1521677,-10.6119183,1228.768706
1.6950,181.7800297,-10.32107198,1228.733051
1.7000,181.4101231,-10.02378214,1228.698253
1.7050,181.0433906,-9.719509673,1228.664271
1.7100,180.6808387,-9.406471131,1228.631265
1.7150,180.321835,-9.085725166,1228.599314
1.7200,179.9679957,-8.75666131,1228.568166
1.7250,179.6190146,-8.420191725,1228.537792
1.7300,179.2750491,-8.076851235,1228.508124
1.7350,178.9351139,-7.726972518,1228.479372
1.7400,178.5991588,-7.370815145,1228.451515
1.7450,178.2670422,-7.011252236,1228.424209
1.7500,177.9375088,-6.649328871,1228.397629
1.7550,177.6106382,-6.285759417,1228.371627
1.7600,177.2851606,-5.922041834,1228.346254
1.7650,176.9616225,-5.559039079,1228.321232
1.7700,176.6390108,-5.197366654,1228.296729
1.7750,176.3185344,-4.837048987,1228.272486
1.7800,175.9988051,-4.478478988,1228.248737
1.7850,175.6805575,-4.12208224,1228.225246
1.7900,175.3635685,-3.767755424,1228.202078
1.7950,175.0480318,-3.415281408,1228.179158
1.8000,174.734327,-3.064427484,1228.156367
1.8050,174.4237393,-2.713599323,1228.133574
1.8100,174.1156899,-2.362072562,1228.111094
1.8150,173.8115498,-2.010336759,1228.088447
1.8200,173.5107551,-1.657117768,1228.065959
1.8250,173.2117623,-1.303403686,1228.043816
1.8300,172.9149019,-0.9492418337,1228.021872
1.8350,172.620772,-0.5927808318,1228.0004
1.8400,172.3291411,-0.2347801198,1227.979287
1.8450,172.0396352,0.1244893488,1227.958591
1.8500,171.7514896,0.4872008611,1227.938858
1.8550,171.4644261,0.85140607,1227.920002
1.8600,171.1781155,1.217809278,1227.902182
1.8650,170.8941478,1.585712735,1227.884969
1.8700,170.6105297,1.954434284,1227.868643
1.8750,170.3268024,2.322308507,1227.853082
1.8800,170.0410929,2.688484699,1227.838605
1.8850,169.7541718,3.052959769,1227.825026
1.8900,169.4641619,3.414332835,1227.812447
1.8950,169.171389,3.774043186,1227.801103
1.9000,168.875555,4.13138743,1227.791071
1.9050,168.5762526,4.486204112,1227.782362
1.9100,168.2726689,4.837672089,1227.775202
1.9150,167.9648441,5.187246555,1227.769702
1.9200,167.653633,5.53445654,1227.765615
1.9250,167.3384367,5.879069692,1227.763045
1.9300,167.019158,6.222360688,1227.762203
1.9350,166.6953068,6.563112664,1227.762905
1.9400,166.365846,6.901387275,1227.765482
1.9450,166.0315015,7.237659413,1227.769843
1.9500,165.6911337,7.570365051,1227.776061
1.9550,165.3444318,7.900260552,1227.784372
1.9600,164.9908135,8.226471021,1227.794866
1.9650,164.6295816,8.549019943,1227.807746
1.9700,164.2615745,8.867923058,1227.822851
1.9750,163.8872599,9.183547719,1227.840183
1.9800,163.5060035,9.494038433,1227.859671
1.9850,163.1187089,9.801005407,1227.88148
1.9900,162.7251141,10.10426163,1227.905673
1.9950,162.3259674,10.40235705,1227.931826
2.0000,161.9220529,10.69630801,1227.959919
2.0050,161.5122579,10.98537125,1227.990026
2.0100,161.0959505,11.26907683,1228.022067
2.0150,160.6725558,11.54776631,1228.056208
2.0200,160.2421524,11.82091937,1228.092483
2.0250,159.8052671,12.08970138,1228.130937
2.0300,159.36189,12.35422029,1228.171605
2.0350,158.9126924,12.61535191,1228.214511
2.0400,158.4579031,12.87209746,1228.259527
2.0450,157.9966188,13.12599041,1228.307244
2.0500,157.529484,13.37677062,1228.357487
2.0550,157.0562071,13.62451341,1228.410392
2.0600,156.5762713,13.87038716,1228.466332
2.0650,156.0897979,14.1139559,1228.525335
2.0700,155.5964526,14.35644282,1228.587614
2.0750,155.0971721,14.59830797,1228.652989
2.0800,154.5920164,14.83872171,1228.721322
2.0850,154.0799856,15.07865678,1228.793159
2.0900,153.5610939,15.31881806,1228.868633
2.0950,153.0361454,15.55945764,1228.947731
2.1000,152.5048146,15.80015464,1229.030474
2.1050,151.9659985,16.0408702,1229.117136
2.1100,151.4214966,16.28049925,1229.207013
2.1150,150.8704224,16.52045069,1229.300685
2.1200,150.3128547,16.76018956,1229.398069
2.1250,149.7507209,17.00049149,1229.498922
2.1300,149.1845894,17.24159445,1229.603069
2.1350,148.6157533,17.48429622,1229.710386
2.1400,148.0442153,17.73036428,1229.821184
2.1450,147.4698251,17.98083241,1229.935763
2.1500,146.8939398,18.23471645,1230.053481
2.1550,146.3176092,18.49407941,1230.174398
2.1600,145.7410308,18.75822571,1230.298291
2.1650,145.1623721,19.02803282,1230.42594
2.1700,144.5823652,19.30287549,1230.557036
2.1750,144.0030059,19.58386619,1230.691274
2.1800,143.4232567,19.87044523,1230.828875
2.1850,142.8423545,20.16257306,1230.970057
2.1900,142.2601402,20.45981796,1231.114835
2.1950,141.6766257,20.76330607,1231.263474
2.2000,141.0919056,21.07210703,1231.415671
2.2050,140.5054324,21.38718789,1231.571793
2.2100,139.9172205,21.70926898,1231.731941
2.2150,139.32736,22.03725954,1231.895906
2.2200,138.7351824,22.37318162,1232.064374
2.2250,138.1400776,22.71574824,1232.237217
2.2300,137.5430622,23.06442149,1232.413985
2.2350,136.9435164,23.41997989,1232.595027
2.2400,136.340925,23.78043298,1232.779998
2.2450,135.7345025,24.14618225,1232.969212
2.2500,135.124611,24.51742765,1233.162779
2.2550,134.5121205,24.89389681,1233.360405
2.2600,133.8980609,25.2757846,1233.562045
2.2650,133.2820909,25.6626671,1233.767767
2.2700,132.6645234,26.05472981,1233.977608
2.2750,132.0447613,26.45192167,1234.191796
2.2800,131.4241735,26.85511344,1234.410151
2.2850,130.8030302,27.26471863,1234.632802
2.2900,130.181749,27.67950893,1234.859462
2.2950,129.5601084,28.10006896,1235.090354
2.3000,128.9381055,28.52558624,1235.325423
2.3050,128.3169806,28.95525349,1235.564183
2.3100,127.697447,29.38862286,1235.806336
2.3150,127.0808682,29.82556075,1236.051432
2.3200,126.466183,30.26459315,1236.299379
2.3250,125.8528189,30.70417496,1236.550013
2.3300,125.2414153,31.14419888,1236.80308
2.3350,124.630565,31.58342418,1237.058756
2.3400,124.019849,32.02130824,1237.31692
2.3450,123.4091187,32.45597471,1237.57704
2.3500,122.7982064,32.88814589,1237.839354
2.3550,122.1867801,33.31609274,1238.1034
2.3600,121.5749146,33.74025928,1238.369326
2.3650,120.9620984,34.16043655,1238.637105
2.3700,120.3487739,34.57525128,1238.90619
2.3750,119.734077,34.98403967,1239.176665
2.3800,119.1180226,35.38771656,1239.448715
2.3850,118.5005718,35.78596993,1239.722177
2.3900,117.8830373,36.1793206,1239.996814
2.3950,117.2632342,36.56655426,1240.273019
2.4000,116.6415615,36.94848604,1240.551016
2.4050,116.0189571,37.32406559,1240.830215
2.4100,115.3940955,37.69383024,1241.111236
2.4150,114.7673786,38.05607378,1241.393517
2.4200,114.1382715,38.41060289,1241.677105
2.4250,113.5061826,38.75761011,1241.962215
2.4300,112.8696147,39.09486041,1242.24875
2.4350,112.2271926,39.42137388,1242.536765
2.4400,111.579001,39.73631136,1242.826049
2.4450,110.924775,40.0394393,1243.116589
2.4500,110.2634545,40.33009209,1243.408621
2.4550,109.5947393,40.60788495,1243.702093
2.4600,108.9199532,40.87289931,1243.996536
2.4650,108.2391223,41.12496783,1244.291772
2.4700,107.5516109,41.3650422,1244.588305
2.4750,106.8567096,41.59363975,1244.886678
2.4800,106.1567805,41.81321081,1245.186757
2.4850,105.4521261,42.02386426,1245.488387
2.4900,104.7436229,42.22648471,1245.791566
2.4950,104.0314117,42.42024606,1246.095935
2.5000,103.3164157,42.606646,1246.401622
2.5050,102.5977399,42.78636576,1246.709252
2.5100,101.8777113,42.9613244,1247.018566
2.5150,101.1584097,43.13250311,1247.329019
2.5200,100.4400189,43.29974486,1247.640518
2.5250,99.72305683,43.46318006,1247.952893
2.5300,99.00863355,43.6236454,1248.265973
2.5350,98.29673217,43.78200557,1248.580044
2.5400,97.5891584,43.93901795,1248.89467
2.5450,96.88692202,44.09485175,1249.209447
2.5500,96.19034023,44.2500592,1249.524271
2.5550,95.5001565,44.40521427,1249.839032
2.5600,94.81679503,44.55966288,1250.153132
2.5650,94.14111792,44.7140199,1250.46639
2.5700,93.47180574,44.86717227,1250.778844
2.5750,92.81058157,45.01987596,1251.089974
2.5800,92.15668212,45.17245285,1251.400154
2.5850,91.51142296,45.32381398,1251.708356
2.5900,90.87521586,45.47590536,1252.014943
2.5950,90.24822853,45.62856267,1252.319718
2.6000,89.63247076,45.78230883,1252.621894
2.6050,89.02625214,45.93774261,1252.922299
2.6100,88.43003111,46.09449115,1253.220667
2.6150,87.84226621,46.25303393,1253.517857
2.6200,87.26349351,46.41379703,1253.813668
2.6250,86.69303062,46.57728212,1254.108562
2.6300,86.13032101,46.74261885,1254.402359
2.6350,85.57580183,46.91127638,1254.695327
2.6400,85.03048313,47.08340952,1254.986986
2.6450,84.49483807,47.2596561,1255.277247
2.6500,83.96903907,47.43875623,1255.565522
2.6550,83.45205818,47.62150966,1255.852594
2.6600,82.94401939,47.80644103,1256.137781
2.6650,82.44399997,47.99347249,1256.421419
2.6700,81.95178075,48.18242168,1256.70348
2.6750,81.46509482,48.37242227,1256.984696
2.6800,80.98354896,48.56230454,1257.264828
2.6850,80.50718126,48.75198386,1257.543815
2.6900,80.03436729,48.93997732,1257.821828
2.6950,79.56566007,49.12690521,1258.098772
2.7000,79.10098978,49.313747,1258.374987
2.7050,78.64032891,49.50080483,1258.650629
2.7100,78.18357639,49.68783109,1258.925586
2.7150,77.73009434,49.87511619,1259.200155
2.7200,77.27919994,50.06186121,1259.474374
2.7250,76.8311191,50.24784431,1259.748144
2.7300,76.3862246,50.43523883,1260.022046
2.7350,75.94420241,50.62298461,1260.29598
2.7400,75.50504966,50.81137416,1260.569915
2.7450,75.06885562,50.99964601,1260.843549
2.7500,74.63472195,51.18761855,1261.117209
2.7550,74.20139756,51.37496263,1261.391401
2.7600,73.7682608,51.56255308,1261.666767
2.7650,73.33598675,51.75006132,1261.942892
2.7700,72.90527304,51.93832028,1262.219766
2.7750,72.47591019,52.12746942,1262.497494
2.7800,72.04916327,52.31668108,1262.775049
2.7850,71.62432513,52.50530298,1263.052676
2.7900,71.20171868,52.69396102,1263.330431
2.7950,70.7811701,52.88265493,1263.608414
2.8000,70.36325767,53.07243254,1263.886771
2.8050,69.94961565,53.26188592,1264.164119
2.8100,69.53950543,53.44998465,1264.440417
2.8150,69.13079324,53.63647656,1264.716642
2.8200,68.72446322,53.82109398,1264.992213
2.8250,68.32132625,54.00509787,1265.267173
2.8300,67.91988923,54.18662373,1265.541626
2.8350,67.52167447,54.36668985,1265.815202
2.8400,67.12648791,54.5440228,1266.087493
2.8450,66.73473913,54.71835619,1266.358182
2.8500,66.34550488,54.88863677,1266.627328
2.8550,65.9579442,55.05441353,1266.895199
2.8600,65.57244589,55.21615589,1267.161695
2.8650,65.18786466,55.37350463,1267.427165
2.8700,64.80399863,55.52628607,1267.691707
2.8750,64.42025915,55.6736612,1267.955245
2.8800,64.03732869,55.81585364,1268.217491
2.8850,63.65376479,55.95418394,1268.479662
2.8900,63.27011898,56.08811864,1268.741365
2.8950,62.88780075,56.21910646,1269.002384
2.9000,62.50484615,56.34631339,1269.263503
2.9050,62.12354288,56.47089593,1269.523961
2.9100,61.74474607,56.59420514,1269.78386
2.9150,61.36953045,56.71654889,1270.042801
2.9200,60.99846168,56.83788358,1270.300423
2.9250,60.63318003,56.95772234,1270.555594
2.9300,60.27377519,57.07535996,1270.808003
2.9350,59.92059791,57.18975388,1271.056928
2.9400,59.57183222,57.29933662,1271.302734
2.9450,59.22782182,57.4038844,1271.545136
2.9500,58.88756356,57.5038002,1271.784805
2.9550,58.55233841,57.59881621,1272.020827
2.9600,58.22080858,57.69058771,1272.254618
2.9650,57.89336202,57.77787294,1272.485395
2.9700,57.57114319,57.86054727,1272.712486
2.9750,57.2534467,57.93822795,1272.936114
2.9800,56.94160996,58.01149359,1273.155689
2.9850,56.63470047,58.0807855,1273.371918
2.9900,56.33323052,58.14690844,1273.584732
2.9950,56.03684935,58.20968722,1273.794336
3.0000,55.74488107,58.2679872,1274.000575
3.0050,55.45733236,58.32196201,1274.203444
3.0100,55.17357857,58.37207017,1274.403555
3.0150,54.8949254,58.41928597,1274.600622
3.0200,54.62207427,58.46461043,1274.794628
3.0250,54.35606521,58.50949075,1274.985628
3.0300,54.0980508,58.55315355,1275.172607
3.0350,53.84923562,58.59585716,1275.354896
3.0400,53.60760047,58.63541883,1275.532737
3.0450,53.37252731,58.67134752,1275.706181
3.0500,53.14340643,58.70306029,1275.875217
3.0550,52.91986377,58.73029184,1276.039881
3.0600,52.70108146,58.75113486,1276.199801
3.0650,52.48651031,58.76572062,1276.355147
3.0700,52.27390217,58.77229714,1276.506338
3.0750,52.06259127,58.77072981,1276.65361
3.0800,51.84922762,58.75919805,1276.798101
3.0850,51.63397187,58.7390838,1276.940174
3.0900,51.41589255,58.70959499,1277.079943
3.0950,51.19413513,58.67250727,1277.218549
3.1000,50.96686662,58.62719968,1277.356625
3.1050,50.73287589,58.5746798,1277.495282
3.1100,50.49117177,58.51712836,1277.636027
3.1150,50.24384978,58.45702878,1277.778638
3.1200,49.99086554,58.39589276,1277.923736
3.1250,49.73272948,58.33458182,1278.071509
3.1300,49.46941018,58.27608556,1278.223152
3.1350,49.2009377,58.22153668,1278.379198
3.1400,48.92808408,58.17310866,1278.54013
3.1450,48.65139345,58.13272049,1278.706491
3.1500,48.37315483,58.10060921,1278.877106
3.1550,48.0944158,58.07819613,1279.052049
3.1600,47.81632945,58.06634398,1279.231151
3.1650,47.54093928,58.06590819,1279.413684
3.1700,47.27088587,58.0774999,1279.598281
3.1750,47.00782719,58.10138064,1279.784151
3.1800,46.75180886,58.1370186,1279.971062
3.1850,46.50312551,58.18316134,1280.158337
3.1900,46.26236668,58.23948467,1280.345424
3.1950,46.0290891,58.30532767,1280.532373
3.2000,45.80425357,58.380185,1280.718329
3.2050,45.58877373,58.46382678,1280.902694
3.2100,45.38155896,58.55489984,1281.085512
3.2150,45.18406791,58.65205265,1281.265332
3.2200,44.99520395,58.75579512,1281.44309
3.2250,44.81407509,58.86443904,1281.618547
3.2300,44.64084017,58.97969857,1281.792344
3.2350,44.47657462,59.10083409,1281.963618
3.2400,44.32189656,59.22905648,1282.132569
3.2450,44.17677406,59.36303274,1282.298632
3.2500,44.04028106,59.50278435,1282.462342
3.2550,43.91247795,59.64870945,1282.623862
3.2600,43.79351023,59.79807774,1282.781911
3.2650,43.68310755,59.95223818,1282.937283
3.2700,43.57946363,60.11037764,1283.090718
3.2750,43.48340585,60.27258617,1283.241756
3.2800,43.39324198,60.43823808,1283.391157
3.2850,43.30963172,60.60623191,1283.538094
3.2900,43.23099531,60.77602061,1283.683341
3.2950,43.15762372,60.94781643,1283.826805
3.3000,43.08805456,61.12065837,1283.969014
3.3050,43.0218909,61.29458967,1284.110295
3.3100,42.95930659,61.47041327,1284.250849
3.3150,42.89829596,61.64724314,1284.391454
3.3200,42.83784515,61.82509689,1284.532774
3.3250,42.77559681,62.0031829,1284.675752
3.3300,42.70894925,62.18168313,1284.821969
3.3350,42.63662896,62.36114951,1284.972417
3.3400,42.55786098,62.54259325,1285.127994
3.3450,42.47248674,62.72693973,1285.289176
3.3500,42.37879815,62.91453423,1285.45713
3.3550,42.27692959,63.10507754,1285.63164
3.3600,42.1645797,63.29915711,1285.814169
3.3650,42.03983237,63.49577275,1286.005501
3.3700,41.90196187,63.69541507,1286.206308
3.3750,41.74941731,63.89734785,1286.417171
3.3800,41.58269579,64.10245997,1286.63819
3.3850,41.39986096,64.31046813,1286.870311
3.3900,41.19906644,64.52097118,1287.114522
3.3950,40.98062473,64.73366906,1287.370447
3.4000,40.7439873,64.94790307,1287.638311
3.4050,40.49021578,65.16505154,1287.918109
3.4100,40.22025046,65.38499746,1288.209217
3.4150,39.933016,65.60660663,1288.511884
3.4200,39.62957572,65.82930842,1288.825308
3.4250,39.31001668,66.05340279,1289.149634
3.4300,38.97616498,66.27865726,1289.483757
3.4350,38.62906697,66.50435339,1289.82683
3.4400,38.27034953,66.72978812,1290.177657
3.4450,37.90134664,66.95437586,1290.535279
3.4500,37.52403087,67.17972293,1290.899277
3.4550,37.1392065,67.4043638,1291.268462
3.4600,36.74852218,67.62865859,1291.642041
3.4650,36.35138257,67.85049687,1292.019389
3.4700,35.94825971,68.06924561,1292.400056
3.4750,35.54040532,68.28488468,1292.78332
3.4800,35.12978018,68.49749261,1293.168003
3.4850,34.71872988,68.70608632,1293.552249
3.4900,34.30758432,68.90935622,1293.935248
3.4950,33.89708865,69.1055295,1294.315683
3.5000,33.48706727,69.29374756,1294.693328
3.5050,33.07735044,69.47277784,1295.067697
3.5100,32.66796502,69.64063926,1295.437871
3.5150,32.25841168,69.79720676,1295.804112
3.5200,31.84872455,69.94016638,1296.165342
3.5250,31.43989588,70.0692522,1296.52086
3.5300,31.03194433,70.18251027,1296.869709
3.5350,30.62227872,70.27874979,1297.213021
3.5400,30.21192691,70.35762263,1297.549881
3.5450,29.80018569,70.41910051,1297.880813
3.5500,29.38694486,70.46299672,1298.205861
3.5550,28.97228203,70.48907788,1298.524866
3.5600,28.55651933,70.49716044,1298.837533
3.5650,28.13970564,70.48743454,1299.143965
3.5700,27.72117381,70.45945461,1299.444366
3.5750,27.30155787,70.41424454,1299.738821
3.5800,26.88100963,70.35233242,1300.02753
3.5850,26.45783108,70.27380432,1300.311683
3.5900,26.03271089,70.17920269,1300.59106
3.5950,25.60511918,70.06855472,1300.865978
3.6000,25.17664048,69.94368856,1301.136177
3.6050,24.74581732,69.80464411,1301.402608
3.6100,24.31280826,69.65246472,1301.665608
3.6150,23.87864547,69.48844564,1301.925083
3.6200,23.4438272,69.31330322,1302.180975
3.6250,23.00944806,69.12859769,1302.433313
3.6300,22.57594167,68.93488027,1302.682053
3.6350,22.14279269,68.73349565,1302.928136
3.6400,21.71039753,68.52549021,1303.171627
3.6450,21.27819201,68.31202253,1303.413483
3.6500,20.84812986,68.09342543,1303.652412
3.6550,20.41927683,67.87176047,1303.890057
3.6600,19.99156866,67.6481079,1304.12689
3.6650,19.56655216,67.42340562,1304.3622
3.6700,19.14419483,67.1999768,1304.597019
3.6750,18.72455274,66.9776319,1304.831131
3.6800,18.30795564,66.7582539,1305.065061
3.6850,17.89511169,66.54205654,1305.298318
3.6900,17.48693718,66.33167714,1305.531337
3.6950,17.08307261,66.12635401,1305.764073
3.7000,16.68453486,65.92820401,1305.996569
3.7050,16.2914217,65.73848914,1306.229261
3.7100,15.90359053,65.55701933,1306.462074
3.7150,15.52165499,65.38388007,1306.694548
3.7200,15.14612633,65.22011474,1306.926743
3.7250,14.77680752,65.06725253,1307.159391
3.7300,14.41434134,64.92458356,1307.39161
3.7350,14.05931701,64.79261767,1307.623168
3.7400,13.7119717,64.67126844,1307.853729
3.7450,13.37218649,64.5613084,1308.083668
3.7500,13.0398075,64.46110429,1308.31219
3.7550,12.71553535,64.37121581,1308.539044
3.7600,12.39877153,64.2908548,1308.764285
3.7650,12.09120351,64.22027718,1308.986734
3.7700,11.79327738,64.16059265,1309.20655
3.7750,11.5045699,64.11032673,1309.423249
3.7800,11.22532521,64.06854425,1309.636124
3.7850,10.95430057,64.0357492,1309.846294
3.7900,10.69242725,64.01200634,1310.053014
3.7950,10.43924527,63.99742224,1310.256718
3.8000,10.19628078,63.99242325,1310.456287
3.8050,9.963776148,63.99493812,1310.650527
3.8100,9.742875299,64.00623668,1310.839083
3.8150,9.532869031,64.02469404,1311.021692
3.8200,9.334817698,64.05082884,1311.197661
3.8250,9.14948798,64.0844782,1311.36628
3.8300,8.977360319,64.1249855,1311.526783
3.8350,8.81932529,64.17260997,1311.678553
3.8400,8.675282264,64.22680905,1311.821342
3.8450,8.544916382,64.28672834,1311.954962
3.8500,8.430271476,64.35297249,1312.078
3.8550,8.331336453,64.42447987,1312.189975
3.8600,8.246977956,64.50063332,1312.291377
3.8650,8.177561142,64.58107329,1312.381664
3.8700,8.124804516,64.66602118,1312.45959
3.8750,8.087509144,64.75539955,1312.526033
3.8800,8.06567894,64.84704785,1312.579921
3.8850,8.060569121,64.94196045,1312.620728
3.8900,8.072377508,65.03905478,1312.647812
3.8950,8.100510243,65.13864203,1312.661825
3.9000,8.145335193,65.24015855,1312.662228
3.9050,8.207484725,65.34336507,1312.648496
3.9100,8.286641069,65.44706348,1312.620294
3.9150,8.38282849,65.55174631,1312.577955
3.9200,8.495314797,65.65716098,1312.521962
3.9250,8.623429751,65.76242372,1312.452385
3.9300,8.767113443,65.86750692,1312.369398
3.9350,8.925866938,65.97199358,1312.273183
3.9400,9.100639663,66.07632108,1312.163335
3.9450,9.290838253,66.18007899,1312.040195
3.9500,9.495197472,66.28398855,1311.905228
3.9550,9.713510086,66.38581779,1311.757466
3.9600,9.945841868,66.48613784,1311.597306
3.9650,10.19045354,66.58488055,1311.426128
3.9700,10.44695384,66.68048932,1311.243556
3.9750,10.71502976,66.77457346,1311.050652
3.9800,10.99314514,66.86642145,1310.848356
3.9850,11.28153953,66.95713249,1310.637218
3.9900,11.57944077,67.0458364,1310.417502
3.9950,11.88655914,67.13427696,1310.190258
4.0000,12.20195023,67.22138388,1309.95583
4.0050,12.5237245,67.30562686,1309.715006
4.0100,12.8512595,67.38725811,1309.468467
4.0150,13.18255138,67.46568784,1309.217476
4.0200,13.51723325,67.54192412,1308.962824
4.0250,13.85444139,67.61422752,1308.704415
4.0300,14.19299565,67.68385883,1308.443792
4.0350,14.53234279,67.75014949,1308.181027
4.0400,14.8718616,67.81334556,1307.916808
4.0450,15.21141461,67.87327054,1307.651108
4.0500,15.55090964,67.9300067,1307.384177
4.0550,15.89014113,67.98405297,1307.116355
4.0600,16.2294706,68.03507813,1306.84717
4.0650,16.56852448,68.08278393,1306.576845
4.0700,16.90722182,68.1270221,1306.305348
4.0750,17.24614582,68.16825693,1306.032558
4.0800,17.58431018,68.20680896,1305.759429
4.0850,17.92196577,68.24185121,1305.485291
4.0900,18.26063407,68.27370736,1305.209246
4.0950,18.60013556,68.3024432,1304.93139
4.1000,18.94125744,68.32821049,1304.651331
4.1050,19.28396362,68.35181933,1304.369474
4.1100,19.62874724,68.37286706,1304.085285
4.1150,19.97730269,68.39241388,1303.79811
4.1200,20.32907015,68.40935796,1303.507864
4.1250,20.68375032,68.42433224,1303.215114
4.1300,21.04047536,68.43769322,1302.920739
4.1350,21.40009654,68.44833196,1302.623595
4.1400,21.76121616,68.45616202,1302.324767
4.1450,22.12475255,68.46136271,1302.023664
4.1500,22.48863119,68.46207391,1301.720982
4.1550,22.85254374,68.45845762,1301.41702
4.1600,23.2165203,68.45107352,1301.112162
4.1650,23.57998941,68.43799059,1300.805919
4.1700,23.94257968,68.42023946,1300.499084
4.1750,24.3040967,68.39636333,1300.191091
4.1800,24.66584124,68.36686508,1299.881363
4.1850,25.02636194,68.33003392,1299.570102
4.1900,25.38692402,68.28705899,1299.25702
4.1950,25.74772465,68.2366727,1298.941452
4.2000,26.10750634,68.17854828,1298.624098
4.2050,26.46730888,68.1138278,1298.304807
4.2100,26.8264497,68.0421914,1297.983963
4.2150,27.18364275,67.96252378,1297.661911
4.2200,27.5395176,67.87485822,1297.338315
4.2250,27.89403205,67.77961178,1297.013339
4.2300,28.24676828,67.67725017,1296.687448
4.2350,28.59840436,67.5669997,1296.359922
4.2400,28.94839204,67.44847181,1296.031
4.2450,29.2963177,67.32184415,1295.701037
4.2500,29.64193834,67.18654595,1295.369926
4.2550,29.98559866,67.0446743,1295.038479
4.2600,30.32696168,66.89564654,1294.706704
4.2650,30.66564373,66.73995995,1294.375066
4.2700,31.00184142,66.57846486,1294.043884
4.2750,31.33541027,66.41060588,1293.71307
4.2800,31.66681204,66.23676154,1293.382361
4.2850,31.9938638,66.05640699,1293.05297
4.2900,32.31671267,65.86967413,1292.724841
4.2950,32.63481136,65.67627307,1292.39825
4.3000,32.94824758,65.47726621,1292.073567
4.3050,33.25769549,65.27305934,1291.750491
4.3100,33.56388419,65.06335585,1291.428451
4.3150,33.86724151,64.85007442,1291.107966
4.3200,34.16791335,64.63230208,1290.788542
4.3250,34.46775735,64.41247115,1290.4701
4.3300,34.76655629,64.19115033,1290.153002
4.3350,35.06522635,63.96814784,1289.836535
4.3400,35.36375579,63.74505135,1289.521371
4.3450,35.66230776,63.52133624,1289.207173
4.3500,35.96079553,63.29821986,1288.894536
4.3550,36.2585743,63.07525594,1288.583604
4.3600,36.55534092,62.85274177,1288.27471
4.3650,36.85132513,62.63059477,1287.967575
4.3700,37.14683225,62.40872875,1287.661946
4.3750,37.4414426,62.18837472,1287.358553
4.3800,37.73633839,61.9694098,1287.056557
4.3850,38.03195323,61.75256304,1286.756127
4.3900,38.32843844,61.53882837,1286.457515
4.3950,38.6272946,61.32850901,1286.159909
4.4000,38.92692023,61.12065325,1285.863883
4.4050,39.22762698,60.91491657,1285.569099
4.4100,39.52993478,60.71058064,1285.27486
4.4150,39.8330449,60.50794205,1284.981792
4.4200,40.13833808,60.3071578,1284.689129
4.4250,40.44520022,60.10693531,1284.396724
4.4300,40.75628903,59.90916154,1284.103741
4.4350,41.07087616,59.71432067,1283.810779
4.4400,41.39123692,59.52178835,1283.516201
4.4450,41.71697195,59.33183184,1283.220408
4.4500,42.05007732,59.146005,1282.922822
4.4550,42.39078962,58.96458127,1282.623433
4.4600,42.74048673,58.78626626,1282.320849
4.4650,43.09964633,58.61216461,1282.01527
4.4700,43.46740288,58.44050044,1281.70656
4.4750,43.84343852,58.27036309,1281.394618
4.4800,44.22737923,58.10231627,1281.079879
4.4850,44.61960746,57.93617542,1280.7621
4.4900,45.01870207,57.77083294,1280.44177
4.4950,45.42593169,57.60645327,1280.118197
4.5000,45.84150791,57.44242881,1279.791103
4.5050,46.26405308,57.27808768,1279.461063
4.5100,46.6948271,57.11466321,1279.12796
4.5150,47.13470078,56.95203322,1278.791206
4.5200,47.5841041,56.79171613,1278.451173
4.5250,48.04354977,56.63239951,1278.107131
4.5300,48.51292827,56.47304116,1277.758791
4.5350,48.99131325,56.31415295,1277.406866
4.5400,49.47782303,56.15504652,1277.051676
4.5450,49.97340055,55.99526335,1276.692445
4.5500,50.47687283,55.83443722,1276.329775
4.5550,50.98874368,55.67355638,1275.963862
4.5600,51.5093185,55.51262229,1275.594531
4.5650,52.03834012,55.35146059,1275.221945
4.5700,52.57518375,55.1899371,1274.846444
4.5750,53.11953354,55.02832861,1274.468378
4.5800,53.67127449,54.86693813,1274.088046
4.5850,54.23060414,54.70657035,1273.705666
4.5900,54.79714519,54.54805586,1273.32185
4.5950,55.37106753,54.3915303,1272.936629
4.6000,55.95243605,54.23663576,1272.549965
4.6050,56.54099558,54.08256129,1272.16171
4.6100,57.13554062,53.92981585,1271.772794
4.6150,57.73602818,53.77791087,1271.383103
4.6200,58.34241935,53.6272355,1270.992879
4.6250,58.95289166,53.47572601,1270.602256
4.6300,59.56910875,53.3237878,1270.210473
4.6350,60.18961465,53.1711015,1269.818245
4.6400,60.81594141,53.01783624,1269.424738
4.6450,61.4472228,52.86477817,1269.030771
4.6500,62.08322855,52.71161057,1268.63625
4.6550,62.72419231,52.55933794,1268.241496
4.6600,63.36968663,52.40716182,1267.846393
4.6650,64.01988606,52.2565172,1267.451474
4.6700,64.67445071,52.10731626,1267.056969
4.6750,65.33395482,51.95848934,1266.662198
4.6800,65.99777326,51.80969905,1266.267453
4.6850,66.66585091,51.65953931,1265.872231
4.6900,67.33614832,51.50756544,1265.477524
4.6950,68.00925887,51.35404525,1265.0832
4.7000,68.68595681,51.19948323,1264.689089
4.7050,69.36717159,51.04545613,1264.295395
4.7100,70.05168274,50.89170927,1263.902702
4.7150,70.73976224,50.73772002,1263.51058
4.7200,71.43233606,50.58465273,1263.119112
4.7250,72.12876321,50.43193304,1262.728408
4.7300,72.82759301,50.27896044,1262.33903
4.7350,73.52947693,50.12554796,1261.950651
4.7400,74.23353425,49.97213566,1261.563921
4.7450,74.94051586,49.81766782,1261.178033
4.7500,75.64976566,49.66174908,1260.793281
4.7550,76.36019986,49.50214621,1260.409387
4.7600,77.07143866,49.34120861,1260.027432
4.7650,77.78345901,49.17870896,1259.647387
4.7700,78.49705718,49.01487969,1259.269
4.7750,79.2130494,48.85011618,1258.891985
4.7800,79.92994418,48.68405197,1258.516865
4.7850,80.64771569,48.51640579,1258.143693
4.7900,81.36666805,48.34718439,1257.772325
4.7950,82.08617434,48.17719007,1257.403436
4.8000,82.80583305,48.00651568,1257.037164
4.8050,83.52645016,47.83523083,1256.673255
4.8100,84.24797694,47.66110136,1256.310989
4.8150,84.97037918,47.48402109,1255.950393
4.8200,85.6944093,47.30256365,1255.59067
4.8250,86.41853623,47.11840509,1255.233102
4.8300,87.14360813,46.93231967,1254.877566
4.8350,87.87073016,46.74503921,1254.523806
4.8400,88.60051517,46.5573741,1254.171758
4.8450,89.33266388,46.36967843,1253.821761
4.8500,90.06911929,46.18243452,1253.473104
4.8550,90.80767349,45.99401257,1253.126232
4.8600,91.54803553,45.80485648,1252.781492
4.8650,92.2899783,45.61568836,1252.439299
4.8700,93.03350289,45.42480253,1252.099177
4.8750,93.7781211,45.23232142,1251.761462
4.8800,94.52399182,45.03752351,1251.425909
4.8850,95.27125343,44.84011602,1251.092343
4.8900,96.02028083,44.63895898,1250.760239
4.8950,96.77116036,44.43421985,1250.429548
4.9000,97.52382894,44.22600047,1250.100161
4.9050,98.2792359,44.01570808,1249.772037
4.9100,99.03759746,43.8039038,1249.445137
4.9150,99.79998671,43.59099419,1249.11915
4.9200,100.5642098,43.37669251,1248.794792
4.9250,101.3313824,43.16140878,1248.471844
4.9300,102.0996708,42.94431587,1248.150984
4.9350,102.8690764,42.72569056,1247.832382
4.9400,103.6367922,42.50414559,1247.516917
4.9450,104.4032968,42.27918726,1247.204307
4.9500,105.1676101,42.04962351,1246.894702
4.9550,105.9298341,41.81551442,1246.588144
4.9600,106.6889788,41.57842044,1246.285632
4.9650,107.4442319,41.3375468,1245.987176
4.9700,108.196439,41.09342764,1245.692628
4.9750,108.945383,40.84719268,1245.40227
4.9800,109.6915042,40.59999976,1245.116292
4.9850,110.4341103,40.35443072,1244.835716
4.9900,111.1718146,40.1097451,1244.560789
4.9950,111.9027159,39.8654812,1244.291967
5.0000,112.6269738,39.62198007,1244.029284
5.0050,113.3435892,39.37916576,1243.772957
5.0100,114.0537152,39.13826283,1243.522931
5.0150,114.7567867,38.90045813,1243.279757
5.0200,115.4515362,38.66548633,1243.043752
5.0250,116.1371517,38.43352177,1242.8153
5.0300,116.8145038,38.20463363,1242.593973
5.0350,117.4844673,37.9792768,1242.379557
5.0400,118.147734,37.75739782,1242.171623
5.0450,118.8027928,37.53956458,1241.970696
5.0500,119.4502319,37.32574644,1241.776521
5.0550,120.0904431,37.11763178,1241.589348
5.0600,120.7237832,36.91293325,1241.408323
5.0650,121.3506423,36.71201941,1241.233377
5.0700,121.96962,36.51472485,1241.064851
5.0750,122.5804129,36.32181593,1240.903167
5.0800,123.182682,36.13296958,1240.74853
5.0850,123.7763746,35.94867861,1240.601096
5.0900,124.362811,35.7702648,1240.460759
5.0950,124.9413906,35.59737423,1240.327515
5.1000,125.5139294,35.43007537,1240.200692
5.1050,126.0820498,35.26727269,1240.079147
5.1100,126.6453761,35.11033677,1239.963225
5.1150,127.205049,34.95855131,1239.852069
5.1200,127.7598536,34.81083875,1239.745684
5.1250,128.3100039,34.66591165,1239.643326
5.1300,128.8563457,34.52353286,1239.544484
5.1350,129.3988341,34.38431301,1239.449313
5.1400,129.9384707,34.2485747,1239.357367
5.1450,130.4762194,34.11821553,1239.268787
5.1500,131.0103456,33.99443258,1239.184264
5.1550,131.5442686,33.87718086,1239.10249
5.1600,132.0791499,33.76673666,1239.02308
5.1650,132.6174978,33.66401498,1238.945308
5.1700,133.1613661,33.56999199,1238.868712
5.1750,133.7115008,33.48481842,1238.793148
5.1800,134.2677165,33.40943334,1238.719027
5.1850,134.8316423,33.34360889,1238.645889
5.1900,135.4037117,33.28891095,1238.574117
5.1950,135.9837941,33.24480698,1238.5037
5.2000,136.5712447,33.20991479,1238.434729
5.2050,137.1643342,33.18372671,1238.367786
5.2100,137.7632904,33.16528733,1238.302707
5.2150,138.3675329,33.15297119,1238.239205
5.2200,138.9775616,33.14686124,1238.177112
5.2250,139.5924054,33.14631207,1238.116536
5.2300,140.2125459,33.1498788,1238.056741
5.2350,140.8365939,33.1584886,1237.998354
5.2400,141.4662784,33.17239253,1237.940721
5.2450,142.1002891,33.1903321,1237.883716
5.2500,142.7388448,33.21317243,1237.827349
5.2550,143.3809793,33.23958338,1237.771432
5.2600,144.026377,33.26754595,1237.715397
5.2650,144.674322,33.29647295,1237.659301
5.2700,145.3224227,33.32481274,1237.603268
5.2750,145.9700413,33.35077875,1237.547226
5.2800,146.6157686,33.37319325,1237.49116
5.2850,147.2587945,33.38974675,1237.434864
5.2900,147.9008556,33.3993306,1237.377471
5.2950,148.5425779,33.40188043,1237.319025
5.3000,149.1826798,33.39717813,1237.259791
5.3050,149.8207455,33.38567112,1237.200077
5.3100,150.4547785,33.36641986,1237.140202
5.3150,151.0851313,33.33961223,1237.080151
5.3200,151.7115882,33.3046614,1237.019875
5.3250,152.3361504,33.26420621,1236.959586
5.3300,152.9572743,33.21827204,1236.899982
5.3350,153.5738875,33.16778361,1236.841734
5.3400,154.1846228,33.11118663,1236.784884
5.3450,154.7894071,33.05049968,1236.730129
5.3500,155.3864864,32.98361924,1236.677469
5.3550,155.9753689,32.90995521,1236.626836
5.3600,156.5537359,32.83079895,1236.579302
5.3650,157.1201131,32.74517144,1236.534986
5.3700,157.6738128,32.65411022,1236.494464
5.3750,158.2163724,32.55819343,1236.45728
5.3800,158.7482344,32.45865812,1236.423467
5.3850,159.2703904,32.35526271,1236.392498
5.3900,159.7819181,32.24869137,1236.364733
5.3950,160.2825549,32.13945753,1236.340355
5.4000,160.7722385,32.02855903,1236.319673
5.4050,161.2504055,31.91733402,1236.303011
5.4100,161.7184336,31.80765669,1236.290326
5.4150,162.1771305,31.69946635,1236.281237
5.4200,162.6279311,31.5953067,1236.275681
5.4250,163.0735393,31.49628749,1236.273187
5.4300,163.5143708,31.40432568,1236.274039
5.4350,163.9514293,31.31813877,1236.277602
5.4400,164.3856582,31.23824676,1236.283818
5.4450,164.8172203,31.16261302,1236.292107
5.4500,165.2480767,31.09078284,1236.301976
5.4550,165.6762199,31.02240936,1236.313758
5.4600,166.1026675,30.95601235,1236.326874
5.4650,166.5261389,30.89176029,1236.341697
5.4700,166.9465944,30.82818688,1236.357743
5.4750,167.3647737,30.76513852,1236.374631
5.4800,167.7817626,30.70124022,1236.39169
5.4850,168.1979364,30.63637256,1236.408613
5.4900,168.6142138,30.56939351,1236.42489
5.4950,169.0314158,30.50073124,1236.440474
5.5000,169.4521326,30.4320899,1236.455153
5.5050,169.8779259,30.3636459,1236.468568
5.5100,170.310319,30.29589046,1236.480549
5.5150,170.7484245,30.23014038,1236.491757
5.5200,171.1944501,30.16608736,1236.501718
5.5250,171.6497373,30.10352751,1236.510078
5.5300,172.114248,30.04258063,1236.517069
5.5350,172.5900311,29.98011023,1236.521377
5.5400,173.0754256,29.91648576,1236.52352
5.5450,173.5718011,29.85028946,1236.522852
5.5500,174.077967,29.77967107,1236.519294
5.5550,174.5952539,29.70318002,1236.511949
5.5600,175.1221757,29.61984772,1236.500824
5.5650,175.6587176,29.52939914,1236.48588
5.5700,176.2038214,29.43142318,1236.467255
5.5750,176.7568603,29.32520454,1236.444875
5.5800,177.3161907,29.21063017,1236.419149
5.5850,177.8816759,29.08792024,1236.390177
5.5900,178.4506949,28.95881463,1236.359131
5.5950,179.021396,28.8238674,1236.326606
5.6000,179.5933131,28.68342719,1236.292905
5.6050,180.16454,28.53832139,1236.25863
5.6100,180.7364762,28.38852117,1236.223581
5.6150,181.3077576,28.23462906,1236.188262
5.6200,181.8772752,28.07890279,1236.153513
5.6250,182.4431594,27.92015151,1236.119402
5.6300,183.0056053,27.76023079,1236.086393
5.6350,183.5640363,27.59947157,1236.054662
5.6400,184.1184582,27.44144664,1236.025145
5.6450,184.6684444,27.28679742,1235.998263
5.6500,185.2150644,27.13863843,1235.974597
5.6550,185.7569065,26.99839974,1235.955089
5.6600,186.29495,26.86744874,1235.939907
5.6650,186.8284632,26.74763045,1235.929768
5.6700,187.3579593,26.63826546,1235.924461
5.6750,187.8800477,26.53949821,1235.924816
5.6800,188.3943811,26.44941027,1235.930374
5.6850,188.8996581,26.36862233,1235.941494
5.6900,189.3959947,26.29454237,1235.957387
5.6950,189.8828931,26.22591082,1235.977624
5.7000,190.3598578,26.1611127,1236.001699
5.7050,190.8263922,26.1003263,1236.029657
5.7100,191.2825296,26.0411585,1236.06083
5.7150,191.7271823,25.98407566,1236.095478
5.7200,192.160471,25.92907139,1236.133579
5.7250,192.5816781,25.87576589,1236.175031
5.7300,192.991642,25.82337024,1236.2194
5.7350,193.3904529,25.77255474,1236.266721
5.7400,193.7785149,25.7239739,1236.316954
5.7450,194.1575245,25.67749303,1236.36967
5.7500,194.529695,25.63303115,1236.424337
5.7550,194.8977787,25.59248183,1236.480965
5.7600,195.2624764,25.55704604,1236.539689
5.7650,195.6262503,25.52633372,1236.599996
5.7700,195.9903025,25.50213021,1236.662138
5.7750,196.3562386,25.48428586,1236.725855
5.7800,196.7259671,25.47315548,1236.790961
5.7850,197.0995831,25.469684,1236.857757
5.7900,197.4773716,25.47308093,1236.926038
5.7950,197.8594197,25.48304666,1236.995789
5.8000,198.2440756,25.49824491,1237.06703
5.8050,198.6308152,25.51857888,1237.139842
5.8100,199.0173108,25.54298326,1237.214263
5.8150,199.4060202,25.5703435,1237.289651
5.8200,199.7943224,25.59977452,1237.36604
5.8250,200.1813723,25.63190891,1237.443732
5.8300,200.5675142,25.66581988,1237.522291
5.8350,200.9519874,25.70263994,1237.602008
5.8400,201.3348939,25.74060528,1237.682393
5.8450,201.7154674,25.78041877,1237.763585
5.8500,202.0940567,25.82228705,1237.845526
5.8550,202.4706502,25.86664891,1237.928428
5.8600,202.8465339,25.91389825,1238.012135
5.8650,203.2210912,25.96357959,1238.096529
5.8700,203.5961364,26.01551784,1238.181359
5.8750,203.9708341,26.07083211,1238.266907
5.8800,204.3468042,26.12887876,1238.352829
5.8850,204.7239617,26.18931706,1238.438907
5.8900,205.1037985,26.25162564,1238.52497
5.8950,205.4862005,26.31661984,1238.611094
5.9000,205.8725718,26.38443505,1238.697232
5.9050,206.2637514,26.45380283,1238.782969
5.9100,206.6585004,26.52657048,1238.869039
5.9150,207.0565254,26.6019989,1238.95532
5.9200,207.4579224,26.68196348,1239.042306
5.9250,207.8636733,26.76731276,1239.13013
5.9300,208.2726177,26.85746041,1239.218802
5.9350,208.6831289,26.95319544,1239.308933
5.9400,209.094644,27.05455832,1239.400586
5.9450,209.50696,27.16097069,1239.493761
5.9500,209.9175594,27.27130314,1239.588615
5.9550,210.3263917,27.38533568,1239.685049
5.9600,210.7323265,27.50136929,1239.782854
5.9650,211.1350111,27.61915666,1239.882051
5.9700,211.5346451,27.74013801,1239.982888
5.9750,211.9321706,27.86350993,1240.085096
5.9800,212.326864,27.98994438,1240.189013
5.9850,212.7196881,28.11996229,1240.294703
5.9900,213.1098157,28.25421545,1240.40239
5.9950,213.4990356,28.39383231,1240.512317
6.0000,213.8872739,28.53842318,1240.624245
6.0050,214.2741463,28.68666361,1240.737893
6.0100,214.6597412,28.83842553,1240.853154
6.0150,215.0452567,28.99389186,1240.969971
6.0200,215.4305072,29.15059935,1241.087545
6.0250,215.8149519,29.30846819,1241.205932
6.0300,216.1977814,29.46637847,1241.324804
6.0350,216.5785086,29.62418167,1241.44418
6.0400,216.9572263,29.77994019,1241.563456
6.0450,217.3329056,29.93510247,1241.683013
6.0500,217.7057967,30.08823679,1241.802323
6.0550,218.0767154,30.23876689,1241.921052
6.0600,218.4471029,30.38582173,1242.038691
6.0650,218.8182159,30.5291032,1242.154873
6.0700,219.1905753,30.66874536,1242.269516
6.0750,219.5660498,30.8059654,1242.382726
6.0800,219.9443489,30.94099405,1242.494518
6.0850,220.3264156,31.0728358,1242.604535
6.0900,220.7141868,31.20188035,1242.712625
6.0950,221.1088326,31.32811416,1242.818649
6.1000,221.5135619,31.45300938,1242.922622
6.1050,221.9293501,31.57596182,1243.024306
6.1100,222.3605073,31.69723582,1243.123417
6.1150,222.8067437,31.81832218,1243.220393
6.1200,223.2702265,31.94012929,1243.315387
6.1250,223.7518192,32.06251233,1243.408366
6.1300,224.251273,32.18594743,1243.499489
6.1350,224.7676152,32.31149029,1243.589369
6.1400,225.3019981,32.43875359,1243.67778
6.1450,225.8540295,32.56851828,1243.765195
6.1500,226.4220813,32.70017373,1243.851716
6.1550,227.0041793,32.83379013,1243.937556
6.1600,227.597823,32.97003751,1244.023293
6.1650,227.959549,34.69049695,1244.879882
6.1700,228.7714465,34.73290133,1244.84851
6.1750,229.5839999,34.77647594,1244.820712
6.1800,230.3960407,34.82118991,1244.796424
6.1850,231.2073293,34.86738981,1244.775519
6.1900,232.0152758,34.9141378,1244.757603
6.1950,232.819939,34.9614632,1244.742572
6.2000,233.6191818,35.00908979,1244.730256
6.2050,234.4117108,35.05687165,1244.720365
6.2100,235.1967104,35.10479109,1244.712889
6.2150,235.974231,35.15265301,1244.707756
6.2200,236.7438535,35.19962957,1244.704686
6.2250,235.6430445,34.89579878,1245.186127
6.2300,236.242421,35.04752236,1245.279573
6.2350,236.8365545,35.19772793,1245.373034
6.2400,237.4258871,35.34603625,1245.466339
6.2450,238.010953,35.49144177,1245.559064
6.2500,238.5941439,35.63573611,1245.651502
6.2550,239.175321,35.7780652,1245.743352
6.2600,239.7558866,35.91906067,1245.834701
6.2650,240.3374181,36.05825727,1245.925296
6.2700,240.918199,36.1942345,1246.01484
6.2750,241.499523,36.32644395,1246.102989
6.2800,242.0809613,36.45521343,1246.189818
6.2850,242.6621873,36.57909149,1246.274947
6.2900,243.2432194,36.69763865,1246.358244
6.2950,243.8229523,36.80991819,1246.439337
6.3000,244.4015627,36.91647165,1246.518463
6.3050,244.9786848,37.0177326,1246.595659
6.3100,245.553258,37.11296461,1246.670788
6.3150,246.1234759,37.20236803,1246.743842
6.3200,246.6880312,37.28650743,1246.814982
6.3250,247.245926,37.36448355,1246.883906
6.3300,247.7971043,37.43688339,1246.950691
6.3350,248.3400847,37.50358041,1247.015147
6.3400,248.8742441,37.56503233,1247.077408
6.3450,249.398376,37.6195586,1247.136909
6.3500,249.9120718,37.66894081,1247.194144
6.3550,250.4132927,37.71310524,1247.249065
6.3600,250.900253,37.75293524,1247.301874
6.3650,251.3716186,37.78770666,1247.352312
6.3700,251.8273296,37.81742077,1247.400289
6.3750,252.2663589,37.84117965,1247.445528
6.3800,252.6884429,37.85882099,1247.487908
6.3850,253.0943828,37.86922191,1247.526967
6.3900,253.4839572,37.87242816,1247.562687
6.3950,253.8564307,37.86705855,1247.5945
6.4000,254.2110136,37.85292345,1247.622327
6.4050,254.5482782,37.83035209,1247.646265
6.4100,254.8670964,37.79928443,1247.66623
6.4150,255.1675394,37.75928241,1247.68203
6.4200,255.4484511,37.70991412,1247.693589
6.4250,255.7097668,37.65123497,1247.700824
6.4300,255.9526697,37.58530938,1247.704429
6.4350,256.1767412,37.51191241,1247.704294
6.4400,256.3817282,37.43352744,1247.701216
6.4450,256.5665554,37.34948369,1247.694997
6.4500,256.7321878,37.26227773,1247.686338
6.4550,256.8773596,37.17172159,1247.675242
6.4600,257.0031469,37.07705188,1247.661627
6.4650,257.1089307,36.98042537,1247.646024
6.4700,257.1951426,36.88167722,1247.628466
6.4750,257.2610775,36.78096682,1247.609051
6.4800,257.306716,36.67929271,1247.588152
6.4850,257.3327454,36.57679294,1247.565828
6.4900,257.3421596,36.47433223,1247.542423
6.4950,257.3345982,36.37025563,1247.517497
6.5000,257.3119871,36.26585572,1247.491524
6.5050,257.2773713,36.16068548,1247.464532
6.5100,257.2310774,36.05431544,1247.436472
6.5150,257.1732296,35.94730947,1247.40755
6.5200,257.1056223,35.83863569,1247.377434
6.5250,257.0290128,35.72770339,1247.345959
6.5300,256.9430029,35.61473037,1247.313347
6.5350,256.8499049,35.49830921,1247.279058
6.5400,256.7496862,35.3775237,1247.242994
6.5450,256.6431537,35.25386511,1247.205539
6.5500,256.5300012,35.12519891,1247.166129
6.5550,256.4107589,34.99212797,1247.125111
6.5600,256.284306,34.85473267,1247.08242
6.5650,256.1499101,34.71314115,1247.038179
6.5700,256.0089405,34.56823512,1246.992561
6.5750,255.860235,34.42129671,1246.945979
6.5800,255.7059594,34.27147813,1246.8983
6.5850,255.5452934,34.11968956,1246.849655
6.5900,255.3782819,33.9660894,1246.800197
6.5950,255.2056458,33.81070112,1246.749919
6.6000,255.0266552,33.65363902,1246.698883
6.6050,254.8412646,33.49431035,1246.646945
6.6100,254.6492185,33.33414339,1246.594503
6.6150,254.4522477,33.17236039,1246.541336
6.6200,254.2505651,33.00998744,1246.487909
6.6250,254.0460684,32.84741637,1246.434237
6.6300,253.8387774,32.68403702,1246.380205
6.6350,253.631111,32.52026884,1246.325957
6.6400,253.4236563,32.35497458,1246.27112
6.6450,253.2168107,32.1894073,1246.216138
6.6500,253.0104511,32.02280368,1246.160755
6.6550,252.8053057,31.85487613,1246.104863
6.6600,252.6027272,31.68615347,1246.048657
6.6650,252.4024273,31.51625406,1245.992022
6.6700,252.2040513,31.34546134,1245.9351
6.6750,252.0073935,31.17304589,1245.877643
6.6800,251.8122382,30.9994222,1245.819703
6.6850,251.6193141,30.82580265,1245.761704
6.6900,251.427968,30.65188709,1245.703484
6.6950,251.2382704,30.47907732,1245.64556
6.7000,251.0494184,30.30656906,1245.587615
6.7050,250.8619286,30.13472118,1245.529809
6.7100,250.6743185,29.96467211,1245.472402
6.7150,250.4871511,29.79625225,1245.415312
6.7200,250.3006476,29.62965901,1245.358545
6.7250,250.1153392,29.46522135,1245.302255
6.7300,249.9302205,29.30232218,1245.246242
6.7350,249.7458607,29.14077627,1245.190469
6.7400,249.5626447,28.9793901,1245.134534
6.7450,249.3805396,28.81801355,1245.078431
6.7500,249.1997462,28.6561275,1245.022032
6.7550,249.0207729,28.49468758,1244.965571
6.7600,248.8436143,28.33455316,1244.909245
6.7650,248.6682122,28.17493001,1244.852929
6.7700,248.4939671,28.01627458,1244.796711
6.7750,248.3206894,27.85957109,1244.740877
6.7800,248.1479207,27.7049962,1244.685468
6.7850,247.9747758,27.55196119,1244.630345
6.7900,247.8001908,27.40026574,1244.575433
6.7950,247.624753,27.25073279,1244.520922
6.8000,247.4471239,27.10341495,1244.46691
6.8050,247.2656187,26.95867132,1244.41344
6.8100,247.079068,26.81618455,1244.360435
6.8150,246.8886547,26.67573726,1244.30775
6.8200,246.6910132,26.53767157,1244.255592
6.8250,246.4877197,26.4018823,1244.203843
6.8300,246.2775406,26.26744693,1244.152218
6.8350,246.06089,26.13535594,1244.100938
6.8400,245.8364076,26.00556991,1244.050004
6.8450,245.6044109,25.87714087,1243.999185
6.8500,245.3640923,25.75061076,1243.948565
6.8550,245.116516,25.62656615,1243.898082
6.8600,244.862579,25.50397185,1243.847558
6.8650,244.6019155,25.38406798,1243.797202
6.8700,244.3361591,25.26546099,1243.746672
6.8750,244.0655197,25.14747509,1243.695763
6.8800,243.7897725,25.03102817,1243.644619
6.8850,243.5099254,24.91588554,1243.593195
6.8900,243.2256228,24.80233803,1243.541499
6.8950,242.9371285,24.68933729,1243.489158
6.9000,242.6441018,24.57698334,1243.436212
6.9050,242.347246,24.46564277,1243.382688
6.9100,242.0475566,24.35367054,1243.328118
6.9150,241.7433399,24.24154852,1243.272735
6.9200,241.4355681,24.12819077,1243.216111
6.9250,241.1233824,24.0137645,1243.158398
6.9300,240.8060887,23.89824078,1243.099639
6.9350,240.4841547,23.7808504,1243.039662
6.9400,240.1557523,23.66266628,1242.978812
6.9450,239.822677,23.54221343,1242.916634
6.9500,239.4849946,23.42016268,1242.853351
6.9550,239.1439989,23.29604063,1242.788751
6.9600,238.7993397,23.16904107,1242.722709
6.9650,238.4527892,23.03880352,1242.655171
6.9700,238.105624,22.90509816,1242.586052
6.9750,237.7584319,22.76708182,1242.515074
6.9800,237.4144383,22.62399192,1242.441987
6.9850,237.0730627,22.47436567,1242.36642
6.9900,236.736066,22.31817312,1242.288287
6.9950,236.4056858,22.15384201,1242.207032
7.0000,236.0838613,21.9812092,1242.122601
7.0050,235.7713132,21.79934853,1242.034609
7.0100,235.4698066,21.60763837,1241.942806
7.0150,235.1799862,21.40611251,1241.847199
7.0200,234.9037219,21.19475323,1241.747584
7.0250,234.640376,20.97318182,1241.643865
7.0300,234.3906109,20.74127283,1241.536017
7.0350,234.1546748,20.49973275,1241.424201
7.0400,233.9303677,20.24932963,1241.308795
7.0450,233.7180622,19.99077068,1241.189871
7.0500,233.5166296,19.7238044,1241.067509
7.0550,233.3247599,19.44909377,1240.942055
7.0600,233.1413958,19.1666625,1240.813595
7.0650,232.9655606,18.87798761,1240.682472
7.0700,232.79583,18.58332292,1240.548861
7.0750,232.6311882,18.28346903,1240.413167
7.0800,232.4703592,17.97853177,1240.275406
7.0850,232.3133196,17.66976824,1240.135915
7.0900,232.1582423,17.35737993,1239.994918
7.0950,232.0043642,17.0424927,1239.852771
7.1000,231.8499879,16.7246767,1239.709483
7.1050,231.6932097,16.40438714,1239.565307
7.1100,231.5342682,16.08288734,1239.420444
7.1150,231.3715359,15.76029857,1239.275189
7.1200,231.2070944,15.43760584,1239.129522
7.1250,231.0387022,15.11544581,1238.983821
7.1300,230.8673691,14.79418456,1238.837974
7.1350,230.6916369,14.4743972,1238.692403
7.1400,230.513776,14.15754154,1238.547048
7.1450,230.3315619,13.8438445,1238.402183
7.1500,230.1457506,13.53453376,1238.258055
7.1550,229.9558557,13.2291677,1238.11466
7.1600,229.7611629,12.9298678,1237.972415
7.1650,229.5623222,12.63601661,1237.831136
7.1700,229.358306,12.34850052,1237.691066
7.1750,229.14879,12.06725244,1237.552138
7.1800,228.9337285,11.7928709,1237.414546
7.1850,228.7130087,11.52500053,1237.278062
7.1900,228.4875635,11.26294954,1237.142482
7.1950,228.2565819,11.00747438,1237.007996
7.2000,228.0203507,10.75793272,1236.874396
7.2050,227.7796656,10.51365282,1236.741467
7.2100,227.532674,10.27586739,1236.609549
7.2150,227.2809315,10.04342103,1236.478167
7.2200,227.0243809,9.817030922,1236.347466
7.2250,226.7638309,9.594696811,1236.216911
7.2300,226.5004229,9.377234134,1236.086624
7.2350,226.2337719,9.164061126,1235.956467
7.2400,225.9652016,8.954188351,1235.826111
7.2450,225.6946593,8.74768613,1235.695607
7.2500,225.4234823,8.544126394,1235.564722
7.2550,225.1511589,8.343068133,1235.433466
7.2600,224.8780633,8.143469484,1235.301644
7.2650,224.6047712,7.945499441,1235.169166
7.2700,224.3319628,7.748518492,1235.035952
7.2750,224.0595643,7.552544081,1234.902106
7.2800,223.7875703,7.357942194,1234.767805
7.2850,223.5161181,7.164196986,1234.633001
7.2900,223.2448713,6.970185588,1234.497682
7.2950,222.972638,6.776860915,1234.362136
7.3000,222.6993605,6.583310022,1234.226234
7.3050,222.4238087,6.389554229,1234.090181
7.3100,222.1467197,6.195635777,1233.954022
7.3150,221.8681565,6.000852034,1233.817678
7.3200,221.5862981,5.804679452,1233.681317
7.3250,221.3024138,5.607556959,1233.544908
7.3300,221.015801,5.408630711,1233.408346
7.3350,220.7261601,5.208771172,1233.271896
7.3400,220.4343463,5.00679899,1233.135238
7.3450,220.1397646,4.803720978,1232.998727
7.3500,219.8418897,4.59965168,1232.86236
7.3550,219.5409275,4.395078037,1232.726176
7.3600,219.2368186,4.191278802,1232.590423
7.3650,218.929995,3.98847516,1232.455201
7.3700,218.6208062,3.786440747,1232.320424
7.3750,218.3104796,3.586724199,1232.186128
7.3800,217.9988431,3.389513336,1232.052506
7.3850,217.6847549,3.196199426,1231.919885
7.3900,217.3695964,3.007769944,1231.788395
7.3950,217.0520851,2.824996876,1231.658286
7.4000,216.734288,2.648343275,1231.529472
7.4050,216.4165822,2.47854931,1231.402038
7.4100,216.0986353,2.315351145,1231.276137
7.4150,215.7796571,2.159396343,1231.151988
7.4200,215.4587564,2.009241944,1231.029555
7.4250,215.135103,1.864814049,1230.90893
7.4300,214.80958,1.726851348,1230.790208
7.4350,214.4813838,1.594629914,1230.673293
7.4400,214.1488982,1.46676983,1230.558272
7.4450,213.813718,1.343763996,1230.444966
7.4500,213.4759531,1.225084629,1230.33322
7.4550,213.136142,1.111251923,1230.223033
7.4600,212.7945607,1.00115073,1230.114147
7.4650,212.4518019,0.89477963,1230.006552
7.4700,212.1080351,0.7926881299,1229.900277
7.4750,211.7641962,0.6947870719,1229.795254
7.4800,211.4204426,0.5996994499,1229.691141
7.4850,211.0776929,0.5080316421,1229.587969
7.4900,210.7345397,0.4191110061,1229.485905
7.4950,210.3938136,0.333731042,1229.384791
7.5000,210.0546274,0.2521213972,1229.284766
7.5050,209.7186587,0.1738310157,1229.185511
7.5100,209.3863638,0.09776876436,1229.086868
7.5150,209.0592462,0.02593659094,1228.988831
7.5200,208.737159,-0.04313577932,1228.891194
7.5250,208.4210103,-0.1084292603,1228.794075
7.5300,208.1105901,-0.1703573569,1228.69723
7.5350,207.8065647,-0.2287953641,1228.600597
7.5400,207.510861,-0.2827807171,1228.504083
7.5450,207.222074,-0.3316997657,1228.407887
7.5500,206.9410088,-0.3760748594,1228.311909
7.5550,206.6676687,-0.4147434011,1228.216337
7.5600,206.4036966,-0.4465828901,1228.121124
7.5650,206.1494893,-0.4715957586,1228.026241
7.5700,205.9048442,-0.4901632706,1227.931533
7.5750,205.6701461,-0.5011853299,1227.837175
7.5800,205.4452439,-0.5049660892,1227.743011
7.5850,205.2301006,-0.5013503916,1227.649081
7.5900,205.0247203,-0.4896336176,1227.555407
7.5950,204.8299916,-0.4700048528,1227.461816
7.6000,204.6450022,-0.442282093,1227.368451
7.6050,204.4716993,-0.4076069674,1227.274851
7.6100,204.3097727,-0.3650335886,1227.181229
7.6150,204.1576779,-0.3152651094,1227.087551
7.6200,204.0167498,-0.2578669567,1226.993808
7.6250,203.8857923,-0.1919207866,1226.900264
7.6300,203.7650832,-0.1164281108,1226.807106
7.6350,203.6545374,-0.03290138677,1226.714009
7.6400,203.5536602,0.06134684826,1226.62146
7.6450,203.4617237,0.1663818814,1226.529492
7.6500,203.3790299,0.2825340599,1226.438142
7.6550,203.3059226,0.4115967135,1226.347632
7.6600,203.2419402,0.553946006,1226.258076
7.6650,203.1872124,0.7108277121,1226.169726
7.6700,203.1412811,0.8833999815,1226.082818
7.6750,203.1018888,1.071748722,1225.997751
7.6800,203.0684474,1.276749902,1225.914743
7.6850,203.0403134,1.497343593,1225.833806
7.6900,203.0156044,1.73451033,1225.755357
7.6950,202.994089,1.987227235,1225.679307
7.7000,202.9731537,2.254519251,1225.605791
7.7050,202.9509866,2.536232543,1225.535122
7.7100,202.925615,2.831573254,1225.467314
7.7150,202.8961081,3.13952872,1225.402405
7.7200,202.860343,3.459008687,1225.340424
7.7250,202.8167187,3.789074558,1225.281459
7.7300,202.7633792,4.127428914,1225.225267
7.7350,202.6996316,4.472830796,1225.171721
7.7400,202.6240468,4.824455543,1225.120852
7.7450,202.5367875,5.180745413,1225.072319
7.7500,202.4357162,5.54013604,1225.026204
7.7550,202.3209427,5.901821256,1224.982324
7.7600,202.1910392,6.265666401,1224.940914
7.7650,202.0457551,6.63006058,1224.901693
7.7700,201.8851734,6.993758598,1224.864511
7.7750,201.7090657,7.357575634,1224.829568
7.7800,201.5171467,7.721331084,1224.796961
7.7850,201.3095427,8.084579662,1224.766708
7.7900,201.0888572,8.448446328,1224.738511
7.7950,200.8536448,8.81190917,1224.712464
7.8000,200.6068102,9.174885356,1224.688107
7.8050,200.3471504,9.538737244,1224.66595
7.8100,200.0763806,9.90387161,1224.645734
7.8150,199.7949937,10.26986694,1224.627552
7.8200,199.503642,10.63697456,1224.611347
7.8250,199.2038878,11.00646198,1224.597199
7.8300,198.8957275,11.37803049,1224.585162
7.8350,198.5803143,11.75088814,1224.574912
7.8400,198.2559643,12.12413804,1224.566585
7.8450,197.9244904,12.49864838,1224.560157
7.8500,197.5848728,12.87398414,1224.555609
7.8550,197.2371623,13.24825566,1224.552657
7.8600,196.88116,13.62114215,1224.551229
7.8650,196.5151715,13.99313526,1224.551723
7.8700,196.1398112,14.36445287,1224.554228
7.8750,195.7561749,14.73441124,1224.55841
7.8800,195.3633625,15.10207482,1224.564297
7.8850,194.9628272,15.46876172,1224.571982
7.8900,194.5540555,15.83406304,1224.581501
7.8950,194.1382992,16.19788125,1224.592776
7.9000,193.7158413,16.5613942,1224.606137
7.9050,193.2859627,16.92577409,1224.622008
7.9100,192.8486682,17.29072364,1224.640273
7.9150,192.4054109,17.65704172,1224.661047
7.9200,191.9555744,18.02546727,1224.684519
7.9250,191.5002673,18.39577723,1224.710668
7.9300,191.0402876,18.76885791,1224.739588
7.9350,190.5757089,19.14541384,1224.771496
7.9400,190.1081155,19.52478872,1224.806106
7.9450,189.6375651,19.90717722,1224.84357
7.9500,189.1644651,20.29383824,1224.884094
7.9550,188.6890445,20.68283204,1224.927327
7.9600,188.2104523,21.07454757,1224.973444
7.9650,187.7282477,21.46791491,1225.022295
7.9700,187.2417121,21.86330491,1225.074165
7.9750,186.7512182,22.26055265,1225.12902
7.9800,186.2567674,22.65958401,1225.186888
7.9850,185.7573113,23.06054214,1225.247987
7.9900,185.2530682,23.46275273,1225.312147
7.9950,184.7422958,23.86539119,1225.379548
8.0000,184.2257594,24.26940539,1225.450353
8.0050,183.7040055,24.67415452,1225.52435
8.0100,183.1774055,25.07964609,1225.601526
8.0150,182.645713,25.48471955,1225.681587
8.0200,182.1105616,25.89043134,1225.764575
8.0250,181.5728501,26.29695802,1225.850328
8.0300,181.0323944,26.70317248,1225.938719
8.0350,180.4889599,27.110481,1226.030061
8.0400,179.9430432,27.51850165,1226.124237
8.0450,179.3927107,27.92701869,1226.221685
8.0500,178.8402378,28.33717681,1226.322193
8.0550,178.2857491,28.7483822,1226.425698
8.0600,177.7309399,29.16121284,1226.532013
8.0650,177.1751998,29.57511768,1226.641104
8.0700,176.6188863,29.99087228,1226.753078
8.0750,176.0625713,30.40643649,1226.867333
8.0800,175.5064908,30.82156855,1226.983661
8.0850,174.9506422,31.23611579,1227.102022
8.0900,174.3938539,31.64990219,1227.222557
8.0950,173.836304,32.06278214,1227.345135
8.1000,173.2779232,32.47461493,1227.469831
8.1050,172.7185831,32.8849619,1227.596505
8.1100,172.1593344,33.29335793,1227.72498
8.1150,171.5981388,33.70025909,1227.855701
8.1200,171.0363851,34.10635524,1227.988624
8.1250,170.4727012,34.50969186,1228.123456
8.1300,169.9074631,34.91030544,1228.260151
8.1350,169.3402437,35.30977174,1228.399199
8.1400,168.7718459,35.70738869,1228.540197
8.1450,168.2022039,36.10330128,1228.683106
8.1500,167.6316964,36.49808349,1228.828079
8.1550,167.0618208,36.89358948,1228.975195
8.1600,166.4918597,37.28833247,1229.124247
8.1650,165.9233762,37.68248155,1229.27489
8.1700,165.3565031,38.07756525,1229.427455
8.1750,164.7917392,38.47398525,1229.582038
8.1800,164.2293167,38.87170929,1229.738595
8.1850,163.6685271,39.26940781,1229.896962
8.1900,163.110928,39.66709705,1230.0569
8.1950,162.5542622,40.06411557,1230.21873
8.2000,161.9984393,40.4596869,1230.38228
8.2050,161.4424349,40.8523639,1230.547346
8.2100,160.8865251,41.24165057,1230.713841
8.2150,160.3282511,41.62689484,1230.882066
8.2200,159.7671196,42.00772052,1231.052008
8.2250,159.2027721,42.38288906,1231.223297
8.2300,158.6347136,42.7526366,1231.396121
8.2350,158.0627774,43.11750312,1231.57069
8.2400,157.4853953,43.4786523,1231.747757
8.2450,156.9038854,43.83673397,1231.927276
8.2500,156.3177125,44.19286333,1232.109692
8.2550,155.727649,44.547781,1232.295026
8.2600,155.1344792,44.90120563,1232.483062
8.2650,154.5379665,45.25397103,1232.674108
8.2700,153.9386871,45.6058039,1232.867924
8.2750,153.3370212,45.95707226,1233.064536
8.2800,152.7319903,46.30839015,1233.264387
8.2850,152.1251098,46.66124112,1233.467643
8.2900,151.5164532,47.01595631,1233.674388
8.2950,150.9081084,47.37308085,1233.884231
8.3000,150.2997841,47.7324284,1234.09724
8.3050,149.6923756,48.09425444,1234.313291
8.3100,149.0876346,48.45845275,1234.531998
8.3150,148.4836778,48.82407918,1234.753496
8.3200,147.8796503,49.1911675,1234.97798
8.3250,147.2740426,49.55912773,1235.205687
8.3300,146.6670502,49.92919859,1235.436983
8.3350,146.0582216,50.30069662,1235.671717
8.3400,145.4481708,50.67361349,1235.909612
8.3450,144.8365534,51.04889526,1236.151052
8.3500,144.2227824,51.42659011,1236.396183
8.3550,143.6060578,51.80729368,1236.645413
8.3600,142.9871215,52.19042127,1236.898348
8.3650,142.3659097,52.57807653,1237.155722
8.3700,141.7436577,52.97159371,1237.417768
8.3750,141.1213573,53.37267527,1237.684782
8.3800,140.5002188,53.78205098,1237.956781
8.3850,139.8799673,54.20002177,1238.233924
8.3900,139.2626811,54.62596277,1238.515537
8.3950,138.6485257,55.0606291,1238.801917
8.4000,138.0378033,55.50476713,1239.09329
8.4050,137.4303293,55.95700664,1239.389254
8.4100,136.8259469,56.41631107,1239.689469
8.4150,136.2262107,56.88066333,1239.992793
8.4200,135.6287002,57.34909671,1240.29956
8.4250,135.0329108,57.82112861,1240.60974
8.4300,134.4382924,58.29592497,1240.92319
8.4350,133.8446339,58.77154673,1241.239241
8.4400,133.2520228,59.24846143,1241.558083
8.4450,132.6598019,59.72609276,1241.879786
8.4500,132.0680987,60.20364334,1242.20404
8.4550,131.4764463,60.67936547,1242.53045
8.4600,130.8864106,61.15474893,1242.859131
8.4650,130.2976783,61.62937428,1243.190045
8.4700,129.7086149,62.10017429,1243.522669
8.4750,129.117807,62.5658857,1243.856897
8.4800,128.5251866,63.02655949,1244.192761
8.4850,127.9290855,63.48166696,1244.530532
8.4900,127.3279286,63.92969389,1244.869966
8.4950,126.7218599,64.37107007,1245.211158
8.5000,126.109946,64.80635662,1245.554476
8.5050,125.4937396,65.23629603,1245.899778
8.5100,124.872103,65.66153879,1246.247614
8.5150,124.2475571,66.08283081,1246.597516
8.5200,123.6216299,66.50080872,1246.949309
8.5250,122.9936958,66.91628403,1247.303538
8.5300,122.362789,67.32815834,1247.66006
8.5350,121.7304987,67.73644606,1248.018381
8.5400,121.096467,68.13981457,1248.378046
8.5450,120.4599242,68.53749582,1248.73889
8.5500,119.8205571,68.92887151,1249.10085
8.5550,119.1767951,69.31328356,1249.46424
8.5600,118.5292778,69.6913458,1249.829076
8.5650,117.8785718,70.0635778,1250.195416
8.5700,117.2239613,70.43087979,1250.563854
8.5750,116.566238,70.7920824,1250.933599
8.5800,115.9063207,71.14791623,1251.304693
8.5850,115.2440235,71.49686994,1251.676463
8.5900,114.5794014,71.83904982,1252.048869
8.5950,113.9122098,72.17366606,1252.421711
8.6000,113.2415353,72.50083536,1252.795278
8.6050,112.5674329,72.8202754,1253.16945
8.6100,111.8872906,73.13180045,1253.54491
8.6150,111.2052189,73.43730326,1253.921013
8.6200,110.5209901,73.73620886,1254.297597
8.6250,109.834252,74.02814778,1254.674468
8.6300,109.1451062,74.31394606,1255.051978
8.6350,108.4537349,74.59340175,1255.429972
8.6400,107.759733,74.86853731,1255.809517
8.6450,107.0646703,75.1390938,1256.189807
8.6500,106.3694546,75.40658871,1256.571188
8.6550,105.6740998,75.67111441,1256.9536
8.6600,104.9787291,75.93429411,1257.337738
8.6650,104.2862123,76.19607146,1257.722421
8.6700,103.5957439,76.45654368,1258.107959
8.6750,102.9074404,76.71664915,1258.494773
8.6800,102.2218334,76.97776086,1258.883282
8.6850,101.541352,77.23924463,1259.272344
8.6900,100.865677,77.50209871,1259.662574
8.6950,100.1965899,77.76577993,1260.052985
8.7000,99.53378847,78.02909415,1260.443233
8.7050,98.87868441,78.29269307,1260.833058
8.7100,98.23147921,78.55768278,1261.222858
8.7150,97.59133964,78.82301785,1261.61248
8.7200,96.96020921,79.08872695,1262.001092
8.7250,96.33787678,79.35468863,1262.388611
8.7300,95.7254374,79.62100105,1262.774576
8.7350,95.12226917,79.88753552,1263.15915
8.7400,94.52895574,80.15398275,1263.541893
8.7450,93.94644243,80.41851636,1263.921473
8.7500,93.37218307,80.67916273,1264.297881
8.7550,92.80602422,80.93621546,1264.671171
8.7600,92.24508367,81.18760369,1265.041474
8.7650,91.68749592,81.43187768,1265.40887
8.7700,91.13470403,81.66963143,1265.772847
8.7750,90.58622437,81.90200657,1266.134113
8.7800,90.04297328,82.12909944,1266.492248
8.7850,89.50582597,82.35308807,1266.84785
8.7900,88.97562941,82.57482533,1267.20099
8.7950,88.45284034,82.7937977,1267.551265
8.8000,87.93938477,83.00969048,1267.897698
8.8050,87.43401829,83.22283938,1268.240885
8.8100,86.93690181,83.43142115,1268.579891
8.8150,86.44913539,83.63645588,1268.914715
8.8200,85.96914567,83.83674506,1269.245407
8.8250,85.4975542,84.03261789,1269.571749
8.8300,85.03532327,84.22455325,1269.893573
8.8350,84.58215805,84.412837,1270.211054
8.8400,84.13810942,84.59719264,1270.523972
8.8450,83.70274325,84.77750286,1270.832373
8.8500,83.27649783,84.9544456,1271.136249
8.8550,82.85898753,85.12834939,1271.435833
8.8600,82.45023302,85.29989416,1271.73137
8.8650,82.04908095,85.46859023,1272.02304
8.8700,81.65483187,85.63396578,1272.310848
8.8750,81.26635072,85.79625438,1272.595379
8.8800,80.88356444,85.95524402,1272.876489
8.8850,80.50544731,86.11140069,1273.154853
8.8900,80.13135722,86.26535299,1273.431051
8.8950,79.76058259,86.41680999,1273.705259
8.9000,79.39393282,86.56663783,1273.977487
8.9050,79.03184588,86.7149001,1274.247589
8.9100,78.67443125,86.86266,1274.516045
8.9150,78.31959333,87.0094825,1274.783612
8.9200,77.96718289,87.15513712,1275.050227
8.9250,77.61802871,87.29990084,1275.315705
8.9300,77.27319787,87.44506025,1275.580055
8.9350,76.9326254,87.59174053,1275.843901
8.9400,76.59722848,87.73908239,1276.106379
8.9450,76.2669767,87.88907015,1276.368516
8.9500,75.9425551,88.04054348,1276.629359
8.9550,75.62545408,88.1948954,1276.888946
8.9600,75.31629186,88.35191152,1277.146844
8.9650,75.01419587,88.51195308,1277.403779
8.9700,74.71877426,88.67368423,1277.659159
8.9750,74.43007678,88.83614444,1277.912453
8.9800,74.14784293,88.9986667,1278.163456
8.9850,73.87156119,89.16212113,1278.412858
8.9900,73.60175571,89.3264337,1278.660311
8.9950,73.33810541,89.49095441,1278.905657
9.0000,73.08112404,89.65489469,1279.148252
9.0050,72.83077047,89.8179341,1279.387991
9.0100,72.58672633,89.97911294,1279.624568
9.0150,72.34922764,90.13782632,1279.857592
9.0200,72.117885,90.29350701,1280.087027
9.0250,71.8949888,90.4460387,1280.311784
9.0300,71.67939379,90.59371781,1280.531549
9.0350,71.47101371,90.73528326,1280.745638
9.0400,71.26880275,90.86987836,1280.954084
9.0450,71.0705471,90.99609503,1281.157195
9.0500,70.87728528,91.11586233,1281.355501
9.0550,70.68696923,91.22678998,1281.548759
9.0600,70.49988461,91.32964233,1281.737049
9.0650,70.31613346,91.42574342,1281.920888
9.0700,70.13488438,91.51457856,1282.100337
9.0750,69.95545915,91.59590124,1282.275443
9.0800,69.77605747,91.6698986,1282.447066
9.0850,69.59541616,91.73516396,1282.61505
9.0900,69.41320902,91.79302726,1282.780127
9.0950,69.2274861,91.84464523,1282.943802
9.1000,69.03645655,91.89063923,1283.107252
9.1050,68.83904732,91.93099757,1283.271035
9.1100,68.63507317,91.96751828,1283.436065
9.1150,68.42331266,92.00046874,1283.603106
9.1200,68.20443993,92.03258743,1283.773184
9.1250,67.97748656,92.06440356,1283.947141
9.1300,67.74219886,92.09589115,1284.125052
9.1350,67.49910725,92.12949572,1284.308041
9.1400,67.24926831,92.16631421,1284.496216
9.1450,66.99330624,92.20727852,1284.689805
9.1500,66.73113257,92.25168468,1284.888607
9.1550,66.4639102,92.30042927,1285.092504
9.1600,66.19073823,92.35391264,1285.30229
9.1650,65.91275909,92.41172624,1285.517156
9.1700,65.6319128,92.47403017,1285.7363
9.1750,65.34854145,92.54103052,1285.959679
9.1800,65.06334537,92.61148239,1286.186288
9.1850,64.77701809,92.68536645,1286.41577
9.1900,64.48885878,92.76134789,1286.64774
9.1950,64.20093849,92.84030828,1286.881545
9.2000,63.91249832,92.92217691,1287.117532
9.2050,63.62325998,93.00644928,1287.355531
9.2100,63.33389627,93.091695,1287.594316
9.2150,63.04507493,93.17787593,1287.833501
9.2200,62.75695403,93.26592346,1288.07349
9.2250,62.46989537,93.35608268,1288.314109
9.2300,62.18092846,93.4452274,1288.555273
9.2350,61.88997103,93.53276311,1288.796649
9.2400,61.59564354,93.6175673,1289.038315
9.2450,61.29727733,93.69781683,1289.279651
9.2500,60.99407784,93.77364959,1289.521246
9.2550,60.6863373,93.84437226,1289.762577
9.2600,60.37370102,93.90961977,1290.003712
9.2650,60.05681034,93.9683205,1290.243746
9.2700,59.73703344,94.02145331,1290.482589
9.2750,59.41416108,94.06847819,1290.720087
9.2800,59.08796186,94.10863605,1290.955937
9.2850,58.75853842,94.14151569,1291.189934
9.2900,58.42560707,94.16650034,1291.421934
9.2950,58.08944575,94.18463066,1291.652431
9.3000,57.75026802,94.19708064,1291.881862
9.3050,57.4092838,94.20399096,1292.109702
9.3100,57.06667926,94.20716538,1292.336811
9.3150,56.72382515,94.20799208,1292.563194
9.3200,56.38156071,94.2073187,1292.788667
9.3250,56.03848049,94.20670338,1293.014798
9.3300,55.69469565,94.20758435,1293.24228
9.3350,55.35055896,94.21164817,1293.471878
9.3400,55.00552868,94.21944366,1293.704171
9.3450,54.66095645,94.23383603,1293.939928
9.3500,54.31619071,94.25496031,1294.179504
9.3550,53.97255287,94.28602209,1294.423883
9.3600,53.63005336,94.32815894,1294.673778
9.3650,53.28921491,94.38192826,1294.929115
9.3700,52.94839352,94.44995567,1295.192327
9.3750,52.60730254,94.53151131,1295.463142
9.3800,52.26455139,94.62757936,1295.742992
9.3850,51.92100527,94.73824718,1296.031479
9.3900,51.57440552,94.86379558,1296.330143
9.3950,51.22652395,95.00294119,1296.637274
9.4000,50.87743564,95.15518628,1296.952642
9.4050,50.52944385,95.32163817,1297.275617
9.4100,50.18136099,95.50062429,1297.606108
9.4150,49.83304171,95.69170019,1297.944001
9.4200,49.48492936,95.89322025,1298.288255
9.4250,49.13848841,96.10409969,1298.637476
9.4300,48.79385263,96.32475949,1298.991912
9.4350,48.45033889,96.5522042,1299.350293
9.4400,48.1089525,96.78629528,1299.711978
9.4450,47.77058925,97.02650075,1300.07619
9.4500,47.43577249,97.27253649,1300.442426
9.4550,47.1045437,97.5225559,1300.809631
9.4600,46.77785977,97.77531187,1301.176481
9.4650,46.45480566,98.02964912,1301.542947
9.4700,46.13508364,98.28396632,1301.908225
9.4750,45.81955352,98.53675951,1302.27082
9.4800,45.50698315,98.78704779,1302.630904
9.4850,45.19859362,99.03376787,1302.987042
9.4900,44.89565855,99.27544513,1303.337673
9.4950,44.59711122,99.51131077,1303.682913
9.5000,44.30285363,99.73959775,1304.021697
9.5050,44.01300842,99.9594205,1304.353357
9.5100,43.72764263,100.1695165,1304.677032
9.5150,43.44621842,100.369596,1304.992801
9.5200,43.16880378,100.558681,1305.299881
9.5250,42.8961081,100.7353605,1305.597005
9.5300,42.62945192,100.900803,1305.883877
9.5350,42.37000669,101.0541438,1306.159184
9.5400,42.11862942,101.1963663,1306.422801
9.5450,41.87546995,101.3273482,1306.674419
9.5500,41.64164371,101.4470322,1306.913066
9.5550,41.41664884,101.5561976,1307.139468
9.5600,41.20127591,101.6539244,1307.352425
9.5650,40.99491425,101.7418818,1307.553177
9.5700,40.7980653,101.8189805,1307.740654
9.5750,40.61198426,101.886914,1307.914918
9.5800,40.43859309,101.9463837,1308.075046
9.5850,40.27774212,101.9978026,1308.221253
9.5900,40.12965282,102.0423735,1308.353984
9.5950,39.99563999,102.0799925,1308.472205
9.6000,39.87568905,102.1115755,1308.576389
9.6050,39.76956188,102.1373415,1308.666692
9.6100,39.67824165,102.1569126,1308.742173
9.6150,39.60101653,102.170436,1308.803315
9.6200,39.53751524,102.1781681,1308.850523
9.6250,39.487799,102.1798573,1308.883635
9.6300,39.45293928,102.1755694,1308.901951
9.6350,39.43300901,102.1665604,1308.906152
9.6400,39.42841897,102.1537459,1308.896511
9.6450,39.43877863,102.1364798,1308.872961
9.6500,39.46407926,102.1151122,1308.835649
9.6550,39.5031631,102.0895477,1308.785345
9.6600,39.55549248,102.0602809,1308.722751
9.6650,39.62012804,102.0265251,1308.648012
9.6700,39.69699854,101.9881926,1308.561198
9.6750,39.78559359,101.9464848,1308.463412
9.6800,39.88664256,101.9007893,1308.353916
9.6850,39.99889671,101.8522062,1308.234179
9.6900,40.12270793,101.8001581,1308.103695
9.6950,40.25613594,101.7444629,1307.963713
9.7000,40.39953185,101.6865741,1307.814976
9.7050,40.55017053,101.6238141,1307.657659
9.7100,40.70891336,101.5583416,1307.492551
9.7150,40.87542716,101.4893919,1307.319551
9.7200,41.04802535,101.4163823,1307.139461
9.7250,41.22652733,101.3398744,1306.952753
9.7300,41.4093478,101.2589493,1306.759941
9.7350,41.59744319,101.1750021,1306.561364
9.7400,41.78983476,101.0873984,1306.357352
9.7450,41.98547586,100.995771,1306.148424
9.7500,42.18469785,100.9002284,1305.934595
9.7550,42.38612798,100.8013685,1305.717167
9.7600,42.58959767,100.6982931,1305.495694
9.7650,42.79389345,100.5913304,1305.2712
9.7700,42.99932357,100.4815266,1305.044079
9.7750,43.20465754,100.3692043,1304.815444
9.7800,43.409338,100.2545107,1304.585756
9.7850,43.61204537,100.1377779,1304.356139
9.7900,43.8122958,100.0192087,1304.126956
9.7950,44.01033427,99.89973077,1303.898673
9.8000,44.20686039,99.77894092,1303.670651
9.8050,44.40138843,99.6575278,1303.443598
9.8100,44.59302577,99.53523235,1303.217923
9.8150,44.78157741,99.41281795,1302.99417
9.8200,44.96718856,99.28952943,1302.771883
9.8250,45.14887678,99.16572821,1302.55182
9.8300,45.32745229,99.04046491,1302.332971
9.8350,45.50259553,98.91397546,1302.115598
9.8400,45.67438669,98.78589682,1301.899533
9.8450,45.84394438,98.65531747,1301.683576
9.8500,46.01030645,98.52272772,1301.468591
9.8550,46.17388669,98.38703718,1301.253691
9.8600,46.33576223,98.24972428,1301.039054
9.8650,46.49654095,98.11000211,1300.823828
9.8700,46.65634022,97.96905037,1300.608642
9.8750,46.81621816,97.82597518,1300.392329
9.8800,46.97434094,97.68051139,1300.17592
9.8850,47.13296293,97.53324613,1299.958381
9.8900,47.29154871,97.38246439,1299.739054
9.8950,47.45008231,97.22869162,1299.518253
9.9000,47.60875051,97.07098422,1299.295394
9.9050,47.76712996,96.90889604,1299.07052
9.9100,47.92576946,96.74223364,1298.843216
9.9150,48.085249,96.57156149,1298.613415
9.9200,48.244421,96.39692714,1298.381973
9.9250,48.40505811,96.21822611,1298.147743
9.9300,48.56648413,96.03565617,1297.911305
9.9350,48.72972101,95.84907973,1297.67202
9.9400,48.89566909,95.65857641,1297.429385
9.9450,49.06372101,95.46402932,1297.183667
9.9500,49.23381465,95.26564256,1296.935155
9.9550,49.40642164,95.06346727,1296.683568
9.9600,49.58095729,94.85711117,1296.429003
9.9650,49.7576912,94.64771742,1296.172083
9.9700,49.93710212,94.43402757,1295.911787
9.9750,50.11962435,94.2158378,1295.647868
9.9800,50.30363486,93.99219207,1295.380675
9.9850,50.48975074,93.76294777,1295.109877
9.9900,50.67825971,93.5284635,1294.835569
9.9950,50.87049998,93.28977951,1294.557561
10.0000,51.06590188,93.04593822,1294.275751
10.0050,51.26438746,92.79788413,1293.990714
10.0100,51.46595109,92.54387443,1293.701597
10.0150,51.67017927,92.28479329,1293.409127
10.0200,51.87859235,92.02063484,1293.11245
10.0250,52.08910224,91.75090721,1292.812559
10.0300,52.30265331,91.47602627,1292.509202
10.0350,52.51800215,91.19455489,1292.202257
10.0400,52.73401854,90.90730315,1291.892828
10.0450,52.95113651,90.61387745,1291.580514
10.0500,53.16884979,90.31362179,1291.265195
10.0550,53.38727916,90.00647608,1290.946822
10.0600,53.60666401,89.69306504,1290.625684
10.0650,53.82773176,89.37411826,1290.301767
10.0700,54.04948507,89.04954258,1289.975678
10.0750,54.27225683,88.7196873,1289.647402
10.0800,54.49765252,88.3855277,1289.316537
10.0850,54.72618586,88.04725944,1288.982884
10.0900,54.95849235,87.70593072,1288.646639
10.0950,55.19332853,87.36053126,1288.308
10.1000,55.43054859,87.01235543,1287.967724
10.1050,55.67004032,86.66220714,1287.626307
10.1100,55.91288987,86.31028102,1287.283268
10.1150,56.16011346,85.95699484,1286.938235
10.1200,56.41163048,85.60177678,1286.590954
10.1250,56.66775342,85.2452051,1286.241465
10.1300,56.92907046,84.88828299,1285.889995
10.1350,57.19557191,84.53035901,1285.53633
10.1400,57.46767454,84.17159846,1285.180193
10.1450,57.74434772,83.81188388,1284.822108
10.1500,58.02613066,83.45094505,1284.461759
10.1550,58.31416497,83.08883241,1284.098482
10.1600,58.60808209,82.72538296,1283.732481
10.1650,58.9084894,82.36076412,1283.363522
10.1700,59.21441784,81.99513821,1282.992204
10.1750,59.52598164,81.62873094,1282.618586
10.1800,59.84347212,81.26204781,1282.242785
10.1850,60.16577098,80.89500238,1281.865347
10.1900,60.4940671,80.52838381,1281.486079
10.1950,60.8279509,80.16215954,1281.105173
10.2000,61.16716186,79.79588874,1280.722621
10.2050,61.51184769,79.43018744,1280.338589
10.2100,61.86135531,79.06485048,1279.953368
10.2150,62.2156626,78.7000175,1279.567093
10.2200,62.57584877,78.33572867,1279.179205
10.2250,62.94078404,77.97231744,1278.790469
10.2300,63.31110494,77.61091582,1278.401115
10.2350,63.6857029,77.25022275,1278.011135
10.2400,64.06334289,76.89118907,1277.62173
10.2450,64.44460459,76.53449518,1277.232903
10.2500,64.83079022,76.18060304,1276.844145
10.2550,65.22251024,75.82902057,1276.454998
10.2600,65.62120316,75.47981545,1276.064698
10.2650,66.02661684,75.13299451,1275.673461
10.2700,66.43757926,74.78822179,1275.281696
10.2750,66.85406448,74.44476524,1274.889088
10.2800,67.2770088,74.10424682,1274.495978
10.2850,67.70613363,73.76509876,1274.101837
10.2900,68.1407003,73.42671326,1273.706833
10.2950,68.58013862,73.08827485,1273.3109
10.3000,69.02399179,72.74933785,1272.914192
10.3050,69.47282208,72.41052609,1272.516851
10.3100,69.92525915,72.07235502,1272.119852
10.3150,70.38056959,71.73363664,1271.723156
10.3200,70.83817227,71.39545059,1271.327529
10.3250,71.29950932,71.05848255,1270.932654
10.3300,71.76458234,70.72139806,1270.537946
10.3350,72.23216333,70.38471825,1270.144327
10.3400,72.70342468,70.04702425,1269.750613
10.3450,73.17715957,69.70802809,1269.357246
10.3500,73.65292988,69.36938523,1268.965287
10.3550,74.13027598,69.02960168,1268.57434
10.3600,74.60897989,68.68953953,1268.184914
10.3650,75.08955227,68.34900212,1267.796699
10.3700,75.57108037,68.00749092,1267.410002
10.3750,76.05397015,67.66551256,1267.024916
10.3800,76.53747247,67.32367313,1266.642162
10.3850,77.02198575,66.98252326,1266.26181
10.3900,77.50655985,66.64165604,1265.884272
10.3950,77.99248464,66.30203779,1265.509326
10.4000,78.47802841,65.96194288,1265.137164
10.4050,78.96316739,65.62167528,1264.767856
10.4100,79.44758034,65.28291452,1264.40228
10.4150,79.9309239,64.94420795,1264.039973
10.4200,80.41268567,64.60698541,1263.681792
10.4250,80.89322002,64.27114708,1263.327466
10.4300,81.37126514,63.93782402,1262.977936
10.4350,81.84613674,63.60694574,1262.633338
10.4400,82.31804659,63.27901925,1262.293838
10.4450,82.78860282,62.95662299,1261.959654
10.4500,83.25839088,62.63918402,1261.630278
10.4550,83.72589337,62.32763076,1261.306721
10.4600,84.19131896,62.02159903,1260.988643
10.4650,84.6555596,61.72063218,1260.675464
10.4700,85.11930048,61.42549135,1260.367061
10.4750,85.58204522,61.13527275,1260.063216
10.4800,86.04554918,60.84999088,1259.763066
10.4850,86.5096477,60.56981498,1259.466616
10.4900,86.97357355,60.29418262,1259.173833
10.4950,87.43854651,60.0227178,1258.884004
10.5000,87.90594427,59.7567392,1258.596894
10.5050,88.37699058,59.49648611,1258.31209
10.5100,88.85158429,59.24211768,1258.029689
10.5150,89.32914998,58.99313026,1257.749793
10.5200,89.81097644,58.74778809,1257.471155
10.5250,90.29681308,58.50565632,1257.193805
10.5300,90.78771091,58.26722622,1256.917513
10.5350,91.28390245,58.03275474,1256.642371
10.5400,91.78653674,57.80076581,1256.367344
10.5450,92.29502922,57.57076056,1256.092583
10.5500,92.80871291,57.34164319,1255.818062
10.5550,93.3264593,57.11235078,1255.543847
10.5600,93.84749258,56.88263811,1255.270316
10.5650,94.37189064,56.65168904,1254.997057
10.5700,94.90085303,56.42022552,1254.723914
10.5750,95.43579362,56.18879058,1254.450535
10.5800,95.97658841,55.95666884,1254.176721
10.5850,96.52268552,55.72416225,1253.902912
10.5900,97.07465883,55.4914812,1253.628851
10.5950,97.63360775,55.25953982,1253.354554
10.6000,98.20074272,55.02766057,1253.079197
10.6050,98.77595686,54.79604193,1252.802963
10.6100,99.35989661,54.56344642,1252.525175
10.6150,99.9527325,54.32997877,1252.245791
10.6200,100.5541475,54.09462385,1251.964736
10.6250,101.1634189,53.85665472,1251.682166
10.6300,101.7803706,53.61618368,1251.398237
10.6350,102.4041026,53.37200995,1251.113104
10.6400,103.0347219,53.12377352,1250.826771
10.6450,103.6728674,52.87068212,1250.538866
10.6500,104.3178039,52.61080118,1250.248994
10.6550,104.9702001,52.34585822,1249.957612
10.6600,105.6293014,52.07435762,1249.664539
10.6650,106.2942422,51.79587865,1249.369998
10.6700,106.9660168,51.510748,1249.073754
10.6750,107.6436748,51.21955262,1248.776415
10.6800,108.3273205,50.92117028,1248.477565
10.6850,109.016353,50.61465568,1248.177172
10.6900,109.7092413,50.29992546,1247.875628
10.6950,110.4063595,49.97740147,1247.573044
10.7000,111.107287,49.64881743,1247.270168
10.7050,111.8136394,49.31340873,1246.966409
10.7100,112.5244852,48.97105207,1246.662189
10.7150,113.2398745,48.62188265,1246.357621
10.7200,113.9597426,48.26651323,1246.053044
10.7250,114.6837044,47.90514925,1245.74887
10.7300,115.4114306,47.53653458,1245.444902
10.7350,116.1438258,47.16189855,1245.141255
10.7400,116.880344,46.78153604,1244.838198
10.7450,117.6203444,46.39531103,1244.535987
10.7500,118.3620738,46.00418557,1244.235351
10.7550,119.1061224,45.60822789,1243.936127
10.7600,119.8509701,45.20816568,1243.638984
10.7650,120.5952876,44.80523005,1243.344712
10.7700,121.3401763,44.39956958,1243.052982
10.7750,122.0849853,43.99183062,1242.764281
10.7800,122.8294526,43.58316696,1242.479126
10.7850,123.575189,43.17388928,1242.197281
10.7900,124.3215912,42.76553802,1241.919534
10.7950,125.067727,42.35766692,1241.646168
10.8000,125.8122191,41.95018936,1241.377644
10.8050,126.5546365,41.54192201,1241.113753
10.8100,127.2952168,41.13352593,1240.854423
10.8150,128.034353,40.72556319,1240.599628
10.8200,128.7701993,40.31868532,1240.349981
10.8250,129.5017728,39.91366346,1240.105949
10.8300,130.2272124,39.50979163,1239.86767
10.8350,130.9448545,39.10624452,1239.635081
10.8400,131.6534692,38.70479589,1239.408836
10.8450,132.35384,38.30607526,1239.188679
10.8500,133.0462721,37.9119649,1238.974787
10.8550,133.7311325,37.52318342,1238.766975
10.8600,134.4083804,37.14153534,1238.565529
10.8650,135.0782215,36.76622255,1238.369881
10.8700,135.741118,36.39702073,1238.179713
10.8750,136.3956193,36.03358942,1237.995145
10.8800,137.0427473,35.67589905,1237.815635
10.8850,137.6827879,35.32430521,1237.641027
10.8900,138.3160651,34.97899598,1237.471407
10.8950,138.9412264,34.63956039,1237.306852
10.9000,139.5577919,34.30640858,1237.147707
10.9050,140.1671895,33.9797977,1236.993567
10.9100,140.7709072,33.65939025,1236.843813
10.9150,141.3708273,33.34601196,1236.698157
10.9200,141.9674151,33.03946474,1236.556379
10.9250,142.562454,32.73902111,1236.417625
10.9300,143.1561704,32.44352127,1236.281647
10.9350,143.7499393,32.1534984,1236.148171
10.9400,144.3433797,31.86803989,1236.01717
10.9450,144.9352819,31.58776392,1235.889292
10.9500,145.5250816,31.31167934,1235.764694
10.9550,146.11142,31.03824313,1235.6436
10.9600,146.6925615,30.76778431,1235.5267
10.9650,147.2672081,30.49812896,1235.414
10.9700,147.8347246,30.22871138,1235.305606
10.9750,148.3939342,29.95661971,1235.201161
10.9800,148.9451884,29.68154588,1235.10047
10.9850,149.487256,29.40317863,1235.003861
10.9900,150.0212075,29.12220775,1234.911329
10.9950,150.5460081,28.83819568,1234.82307
11.0000,151.0646255,28.55182121,1234.738329
11.0050,151.5762678,28.26323692,1234.657065
11.0100,152.0821894,27.97237809,1234.578837
11.0150,152.5811898,27.68055675,1234.504042
11.0200,153.0746241,27.3873245,1234.432031
11.0250,153.5631099,27.0929266,1234.362522
11.0300,154.0469989,26.7990639,1234.295757
11.0350,154.5271755,26.50401747,1234.231071
11.0400,155.003456,26.20866532,1234.168698
11.0450,155.4769955,25.91205035,1234.108057
11.0500,155.9484564,25.61363122,1234.048981
11.0550,156.4191116,25.31479471,1233.991581
11.0600,156.888052,25.01398813,1233.935653
11.0650,157.3564669,24.71123171,1233.880831
11.0700,157.8227405,24.40534506,1233.826908
11.0750,158.2864955,24.09715652,1233.77398
11.0800,158.7481293,23.78646764,1233.721533
11.0850,159.2057929,23.47323468,1233.669795
11.0900,159.6604939,23.15870499,1233.618587
11.0950,160.1116196,22.84278539,1233.56783
11.1000,160.5598603,22.52636441,1233.517571
11.1050,161.0044049,22.21026609,1233.468092
11.1100,161.4443714,21.89407548,1233.419699
11.1150,161.8805171,21.57870643,1233.372378
11.1200,162.3133677,21.26508033,1233.326318
11.1250,162.7444338,20.95276126,1233.280963
11.1300,163.1741812,20.6412389,1233.236107
11.1350,163.6034892,20.3319783,1233.191836
11.1400,164.0334699,20.02381123,1233.147585
11.1450,164.4650176,19.71704147,1233.103047
11.1500,164.8966839,19.40962449,1233.05803
11.1550,165.32877,19.10203604,1233.01246
11.1600,165.7618861,18.79152261,1232.965493
11.1650,166.1956325,18.4788632,1232.917347
11.1700,166.6293523,18.16466845,1232.868247
11.1750,167.062953,17.84870439,1232.818179
11.1800,167.4965309,17.53188862,1232.767426
11.1850,167.9320214,17.21398709,1232.715473
11.1900,168.3697858,16.89543985,1232.662389
11.1950,168.8095781,16.57634354,1232.608319
11.2000,169.2520403,16.25681198,1232.553214
11.2050,169.6963524,15.93729853,1232.497601
11.2100,170.1411142,15.61918738,1232.442469
11.2150,170.5857723,15.30266044,1232.388144
11.2200,171.0300308,14.98852067,1232.335139
11.2250,171.4735128,14.67715799,1232.283923
11.2300,171.9168642,14.3706603,1232.234979
11.2350,172.3604293,14.06887963,1232.188471
11.2400,172.8039184,13.77364085,1232.144976
11.2450,173.2485895,13.48612303,1232.1046
11.2500,173.6948607,13.20681495,1232.067303
11.2550,174.1437255,12.93614667,1232.032941
11.2600,174.5957662,12.67418118,1232.001445
11.2650,175.0526644,12.42349079,1231.972954
11.2700,175.5144452,12.18432386,1231.947575
11.2750,175.9815273,11.9573183,1231.925205
11.2800,176.4526718,11.74430504,1231.906706
11.2850,176.9283015,11.54517014,1231.891887
11.2900,177.4080824,11.35854138,1231.880427
11.2950,177.8916404,11.18304327,1231.872021
11.3000,178.376919,11.01806337,1231.866834
11.3050,178.8621814,10.8623921,1231.864962
11.3100,179.3455854,10.71423946,1231.866226
11.3150,179.8267527,10.57212681,1231.870328
11.3200,180.3020632,10.4349149,1231.877562
11.3250,180.7694459,10.3012924,1231.887959
11.3300,181.2289181,10.17002747,1231.901198
11.3350,181.6789842,10.04125938,1231.917497
11.3400,182.1201434,9.913679368,1231.936411
11.3450,182.5506245,9.786369909,1231.958062
11.3500,182.9702382,9.659532761,1231.982539
11.3550,183.3782902,9.529588438,1232.009168
11.3600,183.7755036,9.396549421,1232.037893
11.3650,184.1583665,9.260430486,1232.069453
11.3700,184.5274583,9.120201509,1232.103692
11.3750,184.8821345,8.976895132,1232.140897
11.3800,185.2236836,8.829459431,1232.180662
11.3850,185.5530546,8.678452057,1232.222853
11.3900,185.8703723,8.52290232,1232.26727
11.3950,186.1764695,8.363573282,1232.313835
11.4000,186.4731293,8.200822969,1232.362051
11.4050,186.7622216,8.035579204,1232.411604
11.4100,187.0473621,7.869331706,1232.461824
11.4150,187.3293981,7.70142068,1232.512414
11.4200,187.6107361,7.532232932,1232.562799
11.4250,187.8920281,7.361963695,1232.61286
11.4300,188.1754075,7.19130408,1232.662214
11.4350,188.4639871,7.019901565,1232.710186
11.4400,188.7595147,6.847977606,1232.75654
11.4450,189.0625606,6.675582235,1232.801138
11.4500,189.374963,6.503324761,1232.843692
11.4550,189.6988625,6.330826355,1232.883893
11.4600,190.0340193,6.159676374,1232.922078
11.4650,190.3817745,5.988622311,1232.95777
11.4700,190.7431619,5.816785964,1232.990715
11.4750,191.1180256,5.644495658,1233.020978
11.4800,191.5067229,5.47144158,1233.048566
11.4850,191.9077606,5.298077141,1233.073969
11.4900,192.3211366,5.124766512,1233.097182
11.4950,192.7472957,4.952670196,1233.118513
11.5000,193.1853627,4.783854618,1233.13853
11.5050,193.6336947,4.618154757,1233.157501
11.5100,194.0928634,4.457545525,1233.175533
11.5150,194.5610156,4.303346486,1233.193365
11.5200,195.0373921,4.15703379,1233.21134
11.5250,195.5209077,4.020571517,1233.230026
11.5300,196.0098483,3.895798328,1233.250111
11.5350,196.5024503,3.784120802,1233.272154
11.5400,196.9970954,3.687123188,1233.29676
11.5450,197.4907019,3.603890391,1233.324294
11.5500,197.9820304,3.535819523,1233.355377
11.5550,198.4683785,3.482616154,1233.390402
11.5600,198.9478853,3.444384285,1233.429761
11.5650,199.4164174,3.420072663,1233.473867
11.5700,199.8707767,3.40963654,1233.523192
11.5750,200.3080836,3.412870357,1233.578224
11.5800,200.7249829,3.428165873,1233.639137
11.5850,201.1186665,3.454785424,1233.70614
11.5900,201.4874294,3.493091467,1233.779581
11.5950,201.8296708,3.543883882,1233.859791
11.6000,202.1439669,3.605072848,1233.946686
11.6050,202.4313408,3.677166959,1234.040065
11.6100,202.6918901,3.761174299,1234.140233
11.6150,202.9251365,3.857285924,1234.247237
11.6200,203.1334722,3.96470433,1234.36063
11.6250,203.3181753,4.084308683,1234.480454
11.6300,203.4806003,4.214951341,1234.606113
11.6350,203.621465,4.358263005,1234.737846
11.6400,203.7414559,4.512979807,1234.87525
11.6450,203.8431625,4.679655822,1235.018029
11.6500,203.9284223,4.856714786,1235.165394
11.6550,203.9985643,5.045839519,1235.317402
11.6600,204.0561927,5.246646741,1235.473476
11.6650,204.1067944,5.457506487,1235.632313
11.6700,204.1542028,5.678771494,1235.79332
11.6750,204.2018623,5.907728699,1235.955372
11.6800,204.2507878,6.144557253,1236.118285
11.6850,204.3028237,6.385995991,1236.281077
11.6900,204.3603859,6.632102168,1236.443293
11.6950,204.4254827,6.880940175,1236.604187
11.7000,204.498874,7.131174883,1236.763277
11.7050,204.582137,7.381428787,1236.920052
11.7100,204.6750343,7.629541275,1237.073982
11.7150,204.7786139,7.874400442,1237.224567
11.7200,204.8940785,8.115807652,1237.37154
11.7250,205.0231519,8.35281667,1237.514337
11.7300,205.1666182,8.583465221,1237.652421
11.7350,205.3251075,8.806936312,1237.785405
11.7400,205.497853,9.022947229,1237.913239
11.7450,205.6866444,9.229712214,1238.035241
11.7500,205.8926596,9.42751346,1238.151251
11.7550,206.1151797,9.615643112,1238.261114
11.7600,206.3565855,9.793319233,1238.364347
11.7650,206.6164033,9.960823576,1238.461127
11.7700,206.8943373,10.11813109,1238.551426
11.7750,207.1913982,10.26546857,1238.63527
11.7800,207.507841,10.40225336,1238.712461
11.7850,207.8436808,10.52837382,1238.782978
11.7900,208.1977934,10.64388885,1238.847082
11.7950,208.570873,10.74817363,1238.90453
11.8000,208.9615805,10.84032774,1238.955414
11.8050,209.3707325,10.92038547,1238.999678
11.8100,209.7966524,10.98834402,1239.037587
11.8150,210.2383596,11.04391772,1239.069171
11.8200,210.6964895,11.08661852,1239.094238
11.8250,211.1698818,11.11705318,1239.113097
11.8300,211.6575384,11.13439307,1239.125777
11.8350,212.159278,11.1390997,1239.132383
11.8400,212.6724762,11.12989734,1239.133099
11.8450,213.196783,11.10829169,1239.128221
11.8500,213.7298942,11.07399401,1239.11805
11.8550,214.2709829,11.02809855,1239.103018
11.8600,214.8185654,10.9702765,1239.083208
11.8650,215.3724948,10.90113976,1239.058851
11.8700,215.9319838,10.82147259,1239.030302
11.8750,216.4970593,10.7315748,1238.997673
11.8800,217.0667494,10.63187128,1238.961188
11.8850,217.6408436,10.52393859,1238.921398
11.8900,218.217445,10.40807835,1238.878588
11.8950,218.7931863,10.2852507,1238.83342
11.9000,219.3671301,10.15722965,1238.786455
11.9050,219.9346274,10.02466197,1238.738482
11.9100,220.4935925,9.888447783,1238.68984
11.9150,221.0421076,9.749023763,1238.641016
11.9200,221.5784568,9.608274812,1238.592579
11.9250,222.099803,9.466134173,1238.54478
11.9300,222.6031189,9.323849604,1238.498291
11.9350,223.0877408,9.181494397,1238.45328
11.9400,223.5511044,9.040414736,1238.41016
11.9450,223.9917005,8.900928005,1238.369111
11.9500,224.4089139,8.764520918,1238.330521
11.9550,224.8021378,8.631362904,1238.294459
11.9600,225.1713154,8.502220882,1238.261073
11.9650,225.5163398,8.378245604,1238.230563
11.9700,225.8358924,8.258493491,1238.202806
11.9750,226.1308959,8.143923511,1238.177843
11.9800,226.4008263,8.034658408,1238.155746
11.9850,226.6468126,7.931419192,1238.136517
11.9900,226.8687964,7.831544754,1238.119723
11.9950,227.0676215,7.736425197,1238.105387
12.0000,227.2452988,7.64558977,1238.093352
12.0050,227.4013489,7.558856054,1238.083523
12.0100,227.5373854,7.476219942,1238.07583
12.0150,227.6571256,7.397305716,1238.069871
12.0200,227.7603771,7.321224395,1238.065514
12.0250,227.8474421,7.248530143,1238.062835
12.0300,227.9203717,7.178605311,1238.061444
12.0350,227.9784946,7.11217469,1238.061642
12.0400,228.0245579,7.0480045,1238.062972
12.0450,228.0587362,6.986172752,1238.065486
12.0500,228.0819229,6.925849723,1238.068932
12.0550,228.0948412,6.867001396,1238.073329
12.0600,228.0979125,6.808854615,1238.07844
12.0650,228.0922594,6.751485243,1238.084241
12.0700,228.0788063,6.695206708,1238.090782
12.0750,228.0590757,6.638654785,1238.097663
12.0800,228.0324645,6.582420181,1238.105101
12.0850,227.9999332,6.525844364,1238.11289
12.0900,227.9624052,6.46883665,1238.120952
12.0950,227.9201527,6.411488556,1238.129292
12.1000,227.8734961,6.353829702,1238.137773
12.1050,227.8235484,6.29600543,1238.146424
12.1100,227.7717793,6.237566934,1238.155034
12.1150,227.7200128,6.178753716,1238.163527
12.1200,227.6685226,6.119469461,1238.171854
12.1250,227.6170384,6.059144599,1238.179948
12.1300,227.5674129,5.998019187,1238.187701
12.1350,227.5186299,5.935998354,1238.19515
12.1400,227.4735412,5.873298314,1238.202086
12.1450,227.4326528,5.809155038,1238.208503
12.1500,227.3972063,5.743153764,1238.214097
12.1550,227.3676968,5.67459832,1238.218686
12.1600,227.3439591,5.604140153,1238.222493
12.1650,227.3279532,5.531456876,1238.225279
12.1700,227.3187572,5.456399001,1238.227058
12.1750,227.314841,5.378913847,1238.228048
12.1800,227.3180307,5.299290089,1238.228127
12.1850,227.3268629,5.216701528,1238.227275
12.1900,227.3414559,5.131642195,1238.225625
12.1950,227.3625533,5.044251191,1238.223106
12.2000,227.3900848,4.954373016,1238.219743
12.2050,227.4250539,4.862121944,1238.215459
12.2100,227.4665712,4.767991401,1238.210469
12.2150,227.5147787,4.67228766,1238.204746
12.2200,227.569059,4.57549338,1238.198477
12.2250,227.628987,4.478925572,1238.191963
12.2300,227.694158,4.382716171,1238.185206
12.2350,227.7623103,4.287578785,1238.178483
12.2400,227.8334633,4.193778264,1238.171922
12.2450,227.9055378,4.101940943,1238.165761
12.2500,227.9768314,4.012197539,1238.160211
12.2550,228.0462863,3.924579099,1238.155297
12.2600,228.1121249,3.839478079,1238.15126
12.2650,228.172921,3.756886505,1238.148176
12.2700,228.2286501,3.678441035,1238.146473
12.2750,228.2772658,3.603977269,1238.146255
12.2800,228.3194789,3.532373075,1238.147247
12.2850,228.3541368,3.464247878,1238.149656
12.2900,228.3824429,3.400874213,1238.153564
12.2950,228.4046604,3.340956075,1238.158788
12.3000,228.4200907,3.284420776,1238.16535
12.3050,228.4297615,3.230403755,1238.172986
12.3100,228.4354234,3.178877378,1238.181496
12.3150,228.4348307,3.129693987,1238.191005
12.3200,228.4296195,3.081929391,1238.201165
12.3250,228.4214181,3.034788226,1238.211636
12.3300,228.4095337,2.988436597,1238.222571
12.3350,228.3959188,2.942146941,1238.233554
12.3400,228.3802931,2.895518952,1238.244451
12.3450,228.3639759,2.849958067,1238.255302
12.3500,228.3463634,2.803015542,1238.265703
12.3550,228.3272368,2.756409915,1238.275931
12.3600,228.3065305,2.708314537,1238.285571
12.3650,228.2841314,2.659997157,1238.294709
12.3700,228.2592175,2.610164281,1238.303113
12.3750,228.2304047,2.560220035,1238.311053
12.3800,228.1977748,2.508611187,1238.318177
12.3850,228.1606524,2.456352067,1238.324716
12.3900,228.1185856,2.402561829,1238.330434
12.3950,228.0698951,2.347410384,1238.335478
12.4000,228.0148003,2.291051683,1238.339923
12.4050,227.9515732,2.233492923,1238.343739
12.4100,227.8801678,2.174974461,1238.347028
12.4150,227.8000431,2.11543166,1238.349769
12.4200,227.7108465,2.056282246,1238.352322
12.4250,227.612874,1.996808021,1238.354483
12.4300,227.5054432,1.937483613,1238.356437
12.4350,227.3903535,1.878646524,1238.358211
12.4400,227.2672281,1.820708417,1238.359824
12.4450,227.1357647,1.764019764,1238.3614
12.4500,226.9963974,1.708624598,1238.362967
12.4550,226.8496019,1.655730766,1238.364759
12.4600,226.6969974,1.604669776,1238.366518
12.4650,226.5380817,1.555735746,1238.368361
12.4700,226.374223,1.50862249,1238.370134
12.4750,226.2072476,1.464068229,1238.371853
12.4800,226.0360611,1.421912612,1238.373644
12.4850,225.8616905,1.382730519,1238.375453
12.4900,225.6842767,1.346349649,1238.377177
12.4950,225.5049699,1.312280742,1238.378762
12.5000,225.3224801,1.28019843,1238.380185
12.5050,225.1365156,1.251076058,1238.381733
12.5100,224.9481383,1.223696843,1238.383022
12.5150,224.7561991,1.198106049,1238.384273
12.5200,224.5608753,1.174481283,1238.385433
12.5250,224.3624319,1.151079711,1238.386248
12.5300,224.1612939,1.128642961,1238.386888
12.5350,223.9574548,1.106400147,1238.387135
12.5400,223.7517734,1.084655105,1238.386999
12.5450,223.5449345,1.06341144,1238.386465
12.5500,223.3377111,1.042321749,1238.385292
12.5550,223.1304016,1.020915633,1238.383435
12.5600,222.9244064,0.998651075,1238.380637
12.5650,222.7194246,0.9764465946,1238.377149
12.5700,222.5157554,0.952401573,1238.372521
12.5750,222.3138548,0.9260159132,1238.366661
12.5800,222.1129327,0.8978342322,1238.359757
12.5850,221.9136971,0.8672234801,1238.351562
12.5900,221.7172636,0.8335720023,1238.341861
12.5950,221.5226853,0.7972009513,1238.330771
12.6000,221.3318948,0.7567492561,1238.317817
12.6050,221.1457258,0.7132286016,1238.303111
12.6100,220.9635845,0.6649555844,1238.286379
12.6150,220.7872804,0.6118435461,1238.267327
12.6200,220.6176849,0.5538092651,1238.24583
12.6250,220.4548058,0.4895385838,1238.22165
12.6300,220.3001584,0.4193803521,1238.194536
12.6350,220.1530407,0.3413718462,1238.164235
12.6400,220.0150162,0.2563425604,1238.130691
12.6450,219.8858289,0.162381444,1238.093593
12.6500,219.7659392,0.06051494898,1238.052936
12.6550,219.6572232,-0.05093162218,1238.008204
12.6600,219.5593146,-0.171768318,1237.959419
12.6650,219.4726392,-0.3039071576,1237.906223
12.6700,219.3972132,-0.446745309,1237.848673
12.6750,219.3333912,-0.6020204879,1237.786438
12.6800,219.2794136,-0.7684594272,1237.719769
12.6850,219.236322,-0.9468599333,1237.648423
12.6900,219.2030553,-1.137346707,1237.572589
12.6950,219.1797433,-1.33951729,1237.492298
12.7000,219.1648164,-1.553735291,1237.407615
12.7050,219.1575094,-1.779356351,1237.318888
12.7100,219.1555297,-2.015543542,1237.226442
12.7150,219.1573868,-2.262412195,1237.130486
12.7200,219.1605936,-2.520434266,1237.031317
12.7250,219.1645954,-2.788039516,1236.929329
12.7300,219.166689,-3.063590869,1236.825083
12.7350,219.1658559,-3.347929392,1236.718569
12.7400,219.1596952,-3.639777164,1236.610376
12.7450,219.1480117,-3.938050947,1236.500782
12.7500,219.129581,-4.242103418,1236.389987
12.7550,219.1029197,-4.55034981,1236.278523
12.7600,219.0665253,-4.862222175,1236.166664
12.7650,219.0192362,-5.177008571,1236.054678
12.7700,218.961166,-5.494297501,1235.942665
12.7750,218.8921217,-5.813203695,1235.830811
12.7800,218.8119591,-6.133336991,1235.719194
12.7850,218.7202445,-6.455453561,1235.607739
12.7900,218.6172946,-6.778437701,1235.496736
12.7950,218.5024593,-7.102156927,1235.386199
12.8000,218.376888,-7.425202647,1235.276197
12.8050,218.2399821,-7.748403164,1235.166673
12.8100,218.0918164,-8.071219485,1235.057702
12.8150,217.9326668,-8.393701178,1234.949188
12.8200,217.7621549,-8.716289692,1234.84121
12.8250,217.5812129,-9.037453408,1234.733754
12.8300,217.389246,-9.357639282,1234.626844
12.8350,217.1871146,-9.676233766,1234.520601
12.8400,216.974199,-9.992994749,1234.415127
12.8450,216.750882,-10.30769824,1234.310397
12.8500,216.5164611,-10.61993828,1234.206715
12.8550,216.2716406,-10.92855042,1234.10418
12.8600,216.017004,-11.23330013,1234.002746
12.8650,215.7544407,-11.53519852,1233.902129
12.8700,215.4846172,-11.83221454,1233.802396
12.8750,215.2096556,-12.1233996,1233.70345
12.8800,214.9322289,-12.40835249,1233.60502
12.8850,214.6532,-12.68716815,1233.506942
12.8900,214.373015,-12.95953963,1233.409124
12.8950,214.0944921,-13.22613132,1233.3111
12.9000,213.817648,-13.48676522,1233.212848
12.9050,213.5447139,-13.74267242,1233.113816
12.9100,213.2767233,-13.99289843,1233.014022
12.9150,213.0147954,-14.23832464,1232.913281
12.9200,212.7595242,-14.47939702,1232.811363
12.9250,212.5130345,-14.71518165,1232.708083
12.9300,212.2756588,-14.94665737,1232.603278
12.9350,212.0501037,-15.17281867,1232.496784
12.9400,211.8359104,-15.39501884,1232.388416
12.9450,211.6331556,-15.61316583,1232.278187
12.9500,211.442816,-15.82822343,1232.165926
12.9550,211.2655481,-16.040375,1232.051437
12.9600,211.1003079,-16.24943427,1231.934846
12.9650,210.9476359,-16.45556833,1231.816128
12.9700,210.8073986,-16.65927801,1231.695287
12.9750,210.6790456,-16.86008642,1231.572432
12.9800,210.564849,-17.0580798,1231.447346
12.9850,210.4620649,-17.25263021,1231.320441
12.9900,210.369851,-17.44314683,1231.191795
12.9950,210.2876648,-17.62996471,1231.06156
13.0000,210.2154348,-17.81239705,1230.929823
13.0050,210.1520849,-17.99022058,1230.796749
13.0100,210.0974015,-18.16319723,1230.662412
13.0150,210.0500219,-18.3300481,1230.527226
13.0200,210.0104803,-18.49055563,1230.391015
13.0250,209.9768091,-18.64395834,1230.254211
13.0300,209.9487248,-18.79099661,1230.116824
13.0350,209.9245302,-18.93036019,1229.979316
13.0400,209.9039265,-19.06175592,1229.841794
13.0450,209.8855934,-19.18478662,1229.704481
13.0500,209.8689176,-19.29975641,1229.567607
13.0550,209.8510639,-19.40773833,1229.431333
13.0600,209.8319401,-19.50800236,1229.295887
13.0650,209.80969,-19.60096955,1229.16141
13.0700,209.7833742,-19.68650066,1229.028112
13.0750,209.7503898,-19.76572229,1228.896149
13.0800,209.7095488,-19.83772041,1228.765842
13.0850,209.6598991,-19.90270495,1228.637231
13.0900,209.6013112,-19.96127516,1228.51022
13.0950,209.5330349,-20.01371692,1228.384877
13.1000,209.4547588,-20.0596859,1228.26135
13.1050,209.3657456,-20.09984769,1228.13962
13.1100,209.266382,-20.13379777,1228.019699
13.1150,209.1576542,-20.16114046,1227.901558
13.1200,209.0390832,-20.18236337,1227.785092
13.1250,208.9106949,-20.19647425,1227.670556
13.1300,208.7722523,-20.2040178,1227.55795
13.1350,208.6233823,-20.20491471,1227.44724
13.1400,208.464488,-20.19975161,1227.338445
13.1450,208.2954549,-20.18752143,1227.231714
13.1500,208.116686,-20.16876794,1227.126838
13.1550,207.9294514,-20.1440188,1227.023742
13.1600,207.7333432,-20.11197157,1226.922709
13.1650,207.5290243,-20.07364902,1226.823435
13.1700,207.3158816,-20.03031817,1226.726098
13.1750,207.0948045,-19.98227084,1226.630526
13.1800,206.8642045,-19.93092605,1226.536763
13.1850,206.6252958,-19.87562971,1226.444743
13.1900,206.378149,-19.81638534,1226.354562
13.1950,206.1235499,-19.7530624,1226.26613
13.2000,205.8613271,-19.68652912,1226.179329
13.2050,205.5929805,-19.6171358,1226.093998
13.2100,205.3185415,-19.5451436,1226.010065
13.2150,205.0390702,-19.47126883,1225.927105
13.2200,204.7562696,-19.395632,1225.844981
13.2250,204.4703575,-19.31936603,1225.763517
13.2300,204.182918,-19.24186836,1225.682446
13.2350,203.8941102,-19.16359618,1225.60162
13.2400,203.6048174,-19.08455399,1225.520954
13.2450,203.3159954,-19.00504545,1225.44021
13.2500,203.0276393,-18.92393613,1225.359489
13.2550,202.7402615,-18.8422018,1225.278635
13.2600,202.4548573,-18.75861783,1225.197717
13.2650,202.1717649,-18.67321424,1225.116623
13.2700,201.8910398,-18.58601017,1225.035375
13.2750,201.6135379,-18.49646418,1224.953894
13.2800,201.3384524,-18.40508031,1224.872371
13.2850,201.0652569,-18.31153672,1224.790977
13.2900,200.7959807,-18.21522139,1224.709533
13.2950,200.5295977,-18.11682702,1224.628121
13.3000,200.2658172,-18.01539401,1224.546883
13.3050,200.0047439,-17.91088893,1224.465793
13.3100,199.7465179,-17.80327649,1224.384975
13.3150,199.4909798,-17.69352043,1224.304169
13.3200,199.2371348,-17.58045952,1224.223902
13.3250,198.9846236,-17.46488544,1224.143999
13.3300,198.7345716,-17.34599074,1224.06449
13.3350,198.4856803,-17.22362978,1223.985435
13.3400,198.2383796,-17.09910684,1223.906683
13.3450,197.9928675,-16.97164977,1223.828251
13.3500,197.747835,-16.84000292,1223.750463
13.3550,197.5049427,-16.7037258,1223.673152
13.3600,197.2638909,-16.56344468,1223.596347
13.3650,197.0249324,-16.41779089,1223.520365
13.3700,196.7863375,-16.26689266,1223.445316
13.3750,196.5493252,-16.10970506,1223.371242
13.3800,196.3141966,-15.94674056,1223.297976
13.3850,196.0807272,-15.77650314,1223.225887
13.3900,195.84791,-15.59908105,1223.155067
13.3950,195.6165312,-15.41333919,1223.085614
13.4000,195.3865725,-15.21922797,1223.017551
13.4050,195.1591734,-15.01572543,1222.950826
13.4100,194.9336796,-14.80248892,1222.885602
13.4150,194.7093191,-14.57965044,1222.821916
13.4200,194.4865847,-14.34694736,1222.759734
13.4250,194.2663432,-14.10407359,1222.698918
13.4300,194.0484936,-13.85140467,1222.639435
13.4350,193.8335364,-13.58890471,1222.581204
13.4400,193.6208423,-13.31565006,1222.524464
13.4450,193.4119708,-13.03373817,1222.468697
13.4500,193.2074444,-12.74245187,1222.414038
13.4550,193.0066893,-12.44165225,1222.360471
13.4600,192.8102324,-12.13377969,1222.307609
13.4650,192.6166216,-11.81801948,1222.255981
13.4700,192.4275627,-11.49472725,1222.205198
13.4750,192.2420778,-11.16462824,1222.155402
13.4800,192.059888,-10.8278137,1222.10671
13.4850,191.8818514,-10.48584992,1222.058882
13.4900,191.7079734,-10.14022956,1222.011758
13.4950,191.5383481,-9.791466828,1221.965114
13.5000,191.3730902,-9.438560196,1221.919187
13.5050,191.2103549,-9.082629416,1221.873964
13.5100,191.0514141,-8.724393594,1221.82919
13.5150,190.8948401,-8.363853905,1221.785164
13.5200,190.7404514,-8.000770257,1221.741899
13.5250,190.5878809,-7.635272158,1221.699431
13.5300,190.4364823,-7.268606634,1221.65778
13.5350,190.2854593,-6.900431858,1221.617117
13.5400,190.1346545,-6.530219801,1221.577525
13.5450,189.9831209,-6.158628778,1221.539169
13.5500,189.8317728,-5.786140092,1221.501814
13.5550,189.6793231,-5.412879665,1221.465658
13.5600,189.5243402,-5.039623089,1221.430748
13.5650,189.3654153,-4.667034529,1221.397177
13.5700,189.2026425,-4.295629109,1221.364787
13.5750,189.0330968,-3.926206545,1221.334019
13.5800,188.855615,-3.55899446,1221.304947
13.5850,188.6699671,-3.194428032,1221.277557
13.5900,188.4749948,-2.832675859,1221.252053
13.5950,188.2706891,-2.473167662,1221.228473
13.6000,188.0558371,-2.116480979,1221.207097
13.6050,187.8301437,-1.7624717,1221.187878
13.6100,187.5921592,-1.411679571,1221.170931
13.6150,187.3427799,-1.064351283,1221.156287
13.6200,187.0808072,-0.7204581153,1221.143985
13.6250,186.8063998,-0.3798512003,1221.134206
13.6300,186.518906,-0.04192046925,1221.12716
13.6350,186.2182089,0.2924553686,1221.122812
13.6400,185.9037388,0.6253432435,1221.121762
13.6450,185.5753282,0.9553357633,1221.12392
13.6500,185.2335824,1.283505727,1221.129446
13.6550,184.8799808,1.609340709,1221.138088
13.6600,184.5131391,1.93418875,1221.150292
13.6650,184.1343451,2.257595591,1221.165829
13.6700,183.7442202,2.579367834,1221.184651
13.6750,183.3425363,2.899852904,1221.206912
13.6800,182.9313689,3.219023785,1221.232381
13.6850,182.5117163,3.536353916,1221.260715
13.6900,182.0841383,3.851789105,1221.291828
13.6950,181.6487711,4.164654261,1221.325542
13.7000,181.2067333,4.475139434,1221.361611
13.7050,180.7573188,4.782782209,1221.400084
13.7100,180.3022201,5.088473275,1221.440863
13.7150,179.8419684,5.392564709,1221.484008
13.7200,179.3775406,5.695066285,1221.529306
13.7250,178.9087373,5.996353922,1221.576877
13.7300,178.4375772,6.297172608,1221.626405
13.7350,177.9648902,6.598182651,1221.677899
13.7400,177.4929918,6.899064366,1221.73079
13.7450,177.0213577,7.202244889,1221.785585
13.7500,176.5519027,7.507862221,1221.841933
13.7550,176.0851597,7.815840309,1221.899635
13.7600,175.6214873,8.127575745,1221.958833
13.7650,175.1634715,8.443244837,1222.018948
13.7700,174.7104712,8.763476148,1222.080198
13.7750,174.2639833,9.087579669,1222.142174
13.7800,173.825341,9.417374206,1222.204895
13.7850,173.3933103,9.752764441,1222.268575
13.7900,172.9688288,10.09372292,1222.332889
13.7950,172.5513122,10.4400167,1222.39806
13.8000,172.1423404,10.78995441,1222.463375
13.8050,171.7420997,11.14517103,1222.529192
13.8100,171.3491015,11.50344787,1222.595348
13.8150,170.9638077,11.86379079,1222.661515
13.8200,170.5846395,12.22550893,1222.727812
13.8250,170.2106973,12.58772491,1222.794233
13.8300,169.8410908,12.95030024,1222.860954
13.8350,169.4754347,13.31255169,1222.927904
13.8400,169.1126849,13.6728604,1222.994931
13.8450,168.7523349,14.03208053,1223.062312
13.8500,168.3926263,14.39011004,1223.130371
13.8550,168.0316888,14.74626575,1223.199375
13.8600,167.6696237,15.10170535,1223.269603
13.8650,167.3064095,15.45661374,1223.341208
