type,name,time_units,begin_time,frequency,count,units
signal_3d,"Noraxon MyoMotion-Trajectories-Ulnar styloid process RT","s",0.0000,200,5108,"mm"

time,x,y,z
0.0000,138.4611286,57.64472295,993.0057908
0.0050,138.4289684,57.67644885,993.014836
0.0100,138.3968103,57.70817713,993.0238883
0.0150,138.3646541,57.73990779,993.0329474
0.0200,138.3220063,57.77131658,993.0436176
0.0250,138.2676008,57.80168257,993.0560032
0.0300,138.2002592,57.83026732,993.07019
0.0350,138.1189309,57.85634926,993.0862442
0.0400,138.022729,57.87925607,993.1042111
0.0450,137.9109561,57.89839053,993.1241156
0.0500,137.7831201,57.91325284,993.1459639
0.0550,137.6389463,57.92346141,993.1697462
0.0600,137.4783894,57.92876844,993.1954392
0.0650,137.3016392,57.92906772,993.2230079
0.0700,137.1091195,57.92439701,993.252407
0.0750,136.9014886,57.91493422,993.2835805
0.0800,136.679645,57.90098589,993.3164587
0.0850,136.444729,57.8829733,993.350956
0.0900,136.1981178,57.86141841,993.3869684
0.0950,135.941415,57.83692675,993.4243727
0.1000,135.6764401,57.81016702,993.4630238
0.1050,135.4052178,57.78184912,993.5027516
0.1100,135.1299667,57.75270269,993.5433573
0.1150,134.8530834,57.72345781,993.5846111
0.1200,134.5771211,57.69482756,993.6262503
0.1250,134.3047659,57.66749152,993.6679787
0.1300,134.0388047,57.64207885,993.7094664
0.1350,133.7820737,57.6191498,993.750353
0.1400,133.5373888,57.59917112,993.7902524
0.1450,133.3074718,57.58248803,993.8287581
0.1500,133.0948744,57.56930531,993.8654514
0.1550,132.7907618,57.53784467,993.9133965
0.1600,132.5063558,57.50755716,993.9586509
0.1650,132.2437766,57.47736845,994.0006849
0.1700,132.0047652,57.44795731,994.0391244
0.1750,131.78934,57.41852344,994.0737648
0.1800,131.5999693,57.38832102,994.1039212
0.1850,131.4353805,57.35698132,994.1296696
0.1900,131.2951983,57.32480583,994.1509473
0.1950,131.1810926,57.29029615,994.1671126
0.2000,131.0901811,57.25423329,994.1786425
0.2050,131.0218245,57.21590142,994.185419
0.2100,130.9747751,57.17557493,994.1875806
0.2150,130.9466179,57.13287989,994.1854039
0.2200,130.9350981,57.08732096,994.1791711
0.2250,130.938482,57.03927451,994.1691971
0.2300,130.9527229,56.98937588,994.1562778
0.2350,130.9774259,56.93672429,994.1402796
0.2400,131.0098741,56.88316379,994.1220359
0.2450,131.0476374,56.82759729,994.1017961
0.2500,131.0880321,56.76993571,994.080081
0.2550,131.1295008,56.7105208,994.0573417
0.2600,131.1699955,56.64934867,994.0339409
0.2650,131.2085768,56.58638662,994.0101137
0.2700,131.2433489,56.52155194,993.9863185
0.2750,131.2729803,56.45386274,993.9625867
0.2800,131.2976301,56.38485451,993.9392937
0.2850,131.3170513,56.31232765,993.9162155
0.2900,131.3313361,56.23868713,993.8938596
0.2950,131.3386947,56.1618181,993.8721454
0.3000,131.3398633,56.08138351,993.8510046
0.3050,131.3345233,55.99776558,993.8306064
0.3100,131.322149,55.91032229,993.8108712
0.3150,131.3043311,55.81916161,993.7917389
0.3200,131.2809955,55.72354163,993.7730495
0.3250,131.2526322,55.6233568,993.7547712
0.3300,131.2181568,55.51870788,993.7370657
0.3350,131.1801766,55.41038065,993.7196453
0.3400,131.1370514,55.29940772,993.703001
0.3450,131.089106,55.18522496,993.6869179
0.3500,131.0367091,55.06816573,993.6713971
0.3550,130.9803308,54.94921253,993.65658
0.3600,130.918406,54.8273529,993.6424594
0.3650,130.8532471,54.70402065,993.6288365
0.3700,130.7854777,54.58014365,993.6158737
0.3750,130.7158181,54.45602207,993.603436
0.3800,130.6434904,54.33295601,993.5918307
0.3850,130.5698943,54.21146917,993.5810432
0.3900,130.4948151,54.09138757,993.5710094
0.3950,130.4201913,53.97288031,993.5614116
0.4000,130.3465072,53.85510117,993.5519077
0.4050,130.2734934,53.74060002,993.5430827
0.4100,130.2026714,53.62724408,993.5341249
0.4150,130.134706,53.51695172,993.5253367
0.4200,130.0702718,53.40892584,993.5164711
0.4250,130.008909,53.30395398,993.5076596
0.4300,129.9520154,53.20159922,993.4986441
0.4350,129.9003859,53.10159678,993.4891336
0.4400,129.8537099,53.00446233,993.479307
0.4450,129.8113855,52.91137252,993.469449
0.4500,129.7753231,52.8220555,993.4592018
0.4550,129.7439951,52.73661817,993.4488101
0.4600,129.7174088,52.65480515,993.4382629
0.4650,129.6949329,52.57734814,993.4277672
0.4700,129.6772759,52.50409917,993.4171749
0.4750,129.6641218,52.43377657,993.4062621
0.4800,129.6547876,52.36728086,993.3954002
0.4850,129.6493212,52.30472252,993.3845172
0.4900,129.6478098,52.24491769,993.3734529
0.4950,129.6486093,52.18959023,993.3628274
0.5000,129.6530504,52.13690222,993.3520214
0.5050,129.6593343,52.08859924,993.3417503
0.5100,129.6670897,52.04277873,993.3317289
0.5150,129.6773874,52.00035624,993.3219593
0.5200,129.6889492,51.96012074,993.3124062
0.5250,129.7014559,51.92228754,993.3032631
0.5300,129.715003,51.88496237,993.2940929
0.5350,129.7302306,51.84938047,993.2850984
0.5400,129.7456203,51.8131965,993.2760531
0.5450,129.7611252,51.77712402,993.2670851
0.5500,129.7772046,51.74167483,993.2582037
0.5550,129.7935563,51.70606347,993.2492898
0.5600,129.8100999,51.66988722,993.2402771
0.5650,129.8269293,51.63359162,993.231183
0.5700,129.8445368,51.59676089,993.2218869
0.5750,129.8632931,51.56020624,993.2125184
0.5800,129.8834124,51.52271012,993.2028004
0.5850,129.904932,51.48536827,993.1928892
0.5900,129.9282685,51.44861409,993.1828303
0.5950,129.954475,51.4118675,993.1723077
0.6000,129.9833474,51.37550174,993.161445
0.6050,130.0150441,51.34065352,993.1504306
0.6100,130.0507574,51.30582534,993.1388298
0.6150,130.0903136,51.27115253,993.1265898
0.6200,130.1338195,51.23685388,993.1137998
0.6250,130.1807946,51.20425267,993.1007354
0.6300,130.2324135,51.17260685,993.0871292
0.6350,130.2868908,51.14157184,993.0732145
0.6400,130.3450549,51.11108464,993.0587213
0.6450,130.4077324,51.08262973,993.0438639
0.6500,130.4738921,51.0551036,993.0286086
0.6550,130.5431858,51.02932012,993.0131748
0.6600,130.6156296,51.00528381,992.997456
0.6650,130.6903652,50.98273643,992.9816785
0.6700,130.7672761,50.96153174,992.9656558
0.6750,130.8455157,50.94225089,992.9497259
0.6800,130.925814,50.92368932,992.933487
0.6850,131.0066755,50.90715619,992.91737
0.6900,131.0884464,50.89163138,992.9010836
0.6950,131.1697827,50.87747554,992.8849052
0.7000,131.2504429,50.86595669,992.8692051
0.7050,131.3305798,50.85585389,992.8536473
0.7100,131.4098831,50.84818896,992.8385581
0.7150,131.4863757,50.84122303,992.8239066
0.7200,131.5596128,50.83521151,992.8098359
0.7250,131.6314853,50.82938937,992.7959311
0.7300,131.7000807,50.82339141,992.7824576
0.7350,131.7658011,50.81692377,992.7693507
0.7400,131.8291382,50.80815479,992.7562069
0.7450,131.8912926,50.79628612,992.7427252
0.7500,131.9497965,50.78030569,992.7291183
0.7550,132.0068256,50.7595483,992.7149334
0.7600,132.0623013,50.73401347,992.7002463
0.7650,132.1167295,50.70142516,992.6844889
0.7700,132.1704237,50.66245993,992.6678426
0.7750,132.2238212,50.61759642,992.6503494
0.7800,132.2763848,50.56601249,992.6319416
0.7850,132.3303192,50.50743356,992.6122497
0.7900,132.3846656,50.44197129,992.5914606
0.7950,132.4406012,50.37015045,992.5694716
0.8000,132.4971125,50.29192357,992.5465582
0.8050,132.5546404,50.2059058,992.5223517
0.8100,132.6132725,50.11389495,992.4972304
0.8150,132.6714807,50.01580458,992.4714325
0.8200,132.7303864,49.91230537,992.4448562
0.8250,132.7879622,49.80519969,992.4181502
0.8300,132.8451482,49.69480221,992.3911869
0.8350,132.9008022,49.58011593,992.3639635
0.8400,132.9550475,49.46404122,992.3369145
0.8450,133.007734,49.34598103,992.3099605
0.8500,133.058492,49.2264982,992.2831859
0.8550,133.106006,49.10601781,992.2568337
0.8600,133.1495744,48.98566877,992.2311488
0.8650,133.1881245,48.86622475,992.2064387
0.8700,133.2204661,48.74779729,992.1827618
0.8750,133.2453766,48.63150996,992.160518
0.8800,133.2620043,48.5182954,992.1399795
0.8850,133.2687719,48.40795905,992.1212957
0.8900,133.2635915,48.30217957,992.1051211
0.8950,133.2461846,48.20022203,992.0913648
0.9000,133.2148191,48.10324716,992.0804758
0.9050,133.1693432,48.00951417,992.0722698
0.9100,133.1079204,47.92157846,992.0674868
0.9150,133.0292434,47.83724022,992.0660583
0.9200,132.9326708,47.75818383,992.0683584
0.9250,132.8187387,47.68217833,992.073995
0.9300,132.6871589,47.61078644,992.0834021
0.9350,132.5360652,47.54463963,992.0970359
0.9400,132.366461,47.48184535,992.1146049
0.9450,132.1778394,47.42163365,992.136026
0.9500,131.9711321,47.36547491,992.1616014
0.9550,131.7458899,47.31239465,992.1912067
0.9600,131.5037345,47.26187122,992.2247148
0.9650,131.2454612,47.21362449,992.2619063
0.9700,130.9713534,47.16804082,992.302944
0.9750,130.6829052,47.12547479,992.3476452
0.9800,130.3813599,47.08483474,992.3957745
0.9850,130.0678944,47.04579193,992.4470571
0.9900,129.7429089,47.01006597,992.5018451
0.9950,129.4071308,46.97641937,992.5599197
1.0000,129.0636307,46.94339989,992.6205219
1.0050,128.7122542,46.91226754,992.6839786
1.0100,128.354065,46.88269696,992.7500842
1.0150,127.9909204,46.8553832,992.818678
1.0200,127.6245543,46.82871739,992.8892328
1.0250,127.2544923,46.8039071,992.9620957
1.0300,126.882104,46.77953974,993.0368735
1.0350,126.508533,46.75672206,993.1137076
1.0400,126.1348654,46.73527565,993.1922877
1.0450,125.7617552,46.7147016,993.272496
1.0500,125.3895976,46.69490181,993.3542826
1.0550,125.0191075,46.67620923,993.4375991
1.0600,124.6509067,46.65809579,993.522231
1.0650,124.2844861,46.64084552,993.6083511
1.0700,123.9197043,46.62394778,993.6959129
1.0750,123.556381,46.60804883,993.7849761
1.0800,123.1959966,46.59223086,993.8750582
1.0850,122.8359932,46.57752882,993.9668686
1.0900,122.4775306,46.56440781,994.0600924
1.0950,122.1183295,46.55117731,994.1548368
1.1000,121.7591217,46.53928968,994.2511363
1.1050,121.3986164,46.52918535,994.3493086
1.1100,121.0367917,46.52100601,994.4492184
1.1150,120.6736811,46.5143709,994.5509032
1.1200,120.3086845,46.50985149,994.6545577
1.1250,119.9416683,46.50713901,994.7601079
1.1300,119.5726222,46.50644861,994.8676542
1.1350,119.1999803,46.50823788,994.9775677
1.1400,118.8231949,46.51193943,995.0900085
1.1450,118.4427554,46.51916593,995.2049883
1.1500,118.0588996,46.52858238,995.3224398
1.1550,117.6709,46.54175068,995.4427666
1.1600,117.2782035,46.55758008,995.5660845
1.1650,116.8807988,46.57563558,995.6924109
1.1700,116.4769876,46.59699995,995.8224856
1.1750,116.0676227,46.6204348,995.9560672
1.1800,115.6515844,46.64637249,996.0936123
1.1850,115.2284113,46.67442353,996.2352956
1.1900,114.7996985,46.70305876,996.3806831
1.1950,114.3625949,46.73439903,996.5308834
1.2000,113.9181097,46.76786403,996.6857821
1.2050,113.4654214,46.80383484,996.8458581
1.2100,113.0031952,46.84041444,997.0113603
1.2150,112.5303321,46.8797988,997.1830273
1.2200,112.0461276,46.9212491,997.3613002
1.2250,111.5501623,46.96515205,997.5466473
1.2300,111.0412101,47.01056802,997.739264
1.2350,110.5197721,47.05662802,997.9392455
1.2400,109.9854137,47.10476121,998.1471889
1.2450,109.4384935,47.15447252,998.3631837
1.2500,108.8782876,47.20480982,998.5873454
1.2550,108.3059157,47.25529913,998.8196392
1.2600,107.7212235,47.30627088,999.0603823
1.2650,107.1234019,47.35862982,999.310025
1.2700,106.5139814,47.41138927,999.5682328
1.2750,105.8921621,47.46362501,999.8351848
1.2800,105.2589528,47.51736949,1000.111158
1.2850,104.6124515,47.57249506,1000.396771
1.2900,103.9536895,47.62853276,1000.691878
1.2950,103.282543,47.68537356,1000.996596
1.3000,102.5981298,47.74540167,1001.311752
1.3050,101.8996867,47.80756771,1001.637309
1.3100,101.1873045,47.87166952,1001.973309
1.3150,100.4615082,47.93847816,1002.31985
1.3200,99.72124876,48.00954393,1002.677535
1.3250,98.96696002,48.0830014,1003.046116
1.3300,98.19852204,48.16225794,1003.42588
1.3350,97.41439653,48.24527797,1003.816844
1.3400,96.61495725,48.3340689,1004.21954
1.3450,95.7984718,48.42863509,1004.634309
1.3500,94.96675648,48.52916053,1005.061025
1.3550,94.11944352,48.63582351,1005.499723
1.3600,93.25534038,48.74869053,1005.950659
1.3650,92.37540206,48.86854655,1006.414085
1.3700,91.47989765,48.99504397,1006.889701
1.3750,90.56836306,49.12715962,1007.377705
1.3800,89.64024235,49.26585162,1007.8787
1.3850,88.69580815,49.40920411,1008.392396
1.3900,87.73445491,49.55804031,1008.91948
1.3950,86.75792052,49.71205427,1009.459765
1.4000,85.76556929,49.87106399,1010.013575
1.4050,84.75916231,50.03471415,1010.580682
1.4100,83.73697824,50.2028297,1011.161897
1.4150,82.70037226,50.37534962,1011.75698
1.4200,81.64804066,50.55130395,1012.366549
1.4250,80.58129591,50.73028638,1012.990578
1.4300,79.49872865,50.91345786,1013.630094
1.4350,78.40225283,51.09983748,1014.284716
1.4400,77.29105102,51.28869595,1014.954817
1.4450,76.1653245,51.47884053,1015.640908
1.4500,75.02393377,51.67212865,1016.343871
1.4550,73.86874795,51.86692125,1017.06352
1.4600,72.69936219,52.06402491,1017.800587
1.4650,71.51638955,52.26222449,1018.554792
1.4700,70.32046983,52.46113499,1019.326286
1.4750,69.11040755,52.66050762,1020.11563
1.4800,67.88771133,52.85869537,1020.922513
1.4850,66.65331497,53.05779469,1021.747332
1.4900,65.40568009,53.25711952,1022.590945
1.4950,64.14677944,53.45586737,1023.452757
1.5000,62.87650915,53.65302732,1024.332943
1.5050,61.59405466,53.84895395,1025.231895
1.5100,60.3002189,54.0443922,1026.149496
1.5150,58.9968684,54.23866227,1027.085182
1.5200,57.68308251,54.43165405,1028.039221
1.5250,56.3596875,54.62284074,1029.011147
1.5300,55.02646299,54.81291685,1030.001274
1.5350,53.68378057,55.00183218,1031.009351
1.5400,52.33223391,55.1884583,1032.035154
1.5450,50.9716199,55.37389175,1033.078826
1.5500,49.60308582,55.55736124,1034.139798
1.5550,48.22607415,55.73792429,1035.21822
1.5600,46.84008442,55.91654173,1036.314097
1.5650,45.44628819,56.09270174,1037.426806
1.5700,44.04586799,56.26734713,1038.556172
1.5750,42.64100267,56.44000387,1039.701468
1.5800,41.22996301,56.61062915,1040.862678
1.5850,39.81611697,56.7796956,1042.038783
1.5900,38.39919019,56.94716617,1043.229581
1.5950,36.97992601,57.11384476,1044.434861
1.6000,35.55815259,57.2794774,1045.653964
1.6050,34.13631913,57.44435386,1046.886596
1.6100,32.71450158,57.60844818,1048.132589
1.6150,31.29256599,57.77202861,1049.3917
1.6200,29.87220485,57.93606532,1050.663554
1.6250,28.45329363,58.10068039,1051.948169
1.6300,27.0380687,58.26455496,1053.245158
1.6350,25.62587492,58.42900629,1054.554373
1.6400,24.2168989,58.5928407,1055.875798
1.6450,22.81206613,58.75576074,1057.209142
1.6500,21.41119324,58.91772275,1058.55443
1.6550,20.014325,59.07846128,1059.911958
1.6600,18.62326075,59.23767539,1061.281591
1.6650,17.23784067,59.39583176,1062.663109
1.6700,15.85824837,59.55252877,1064.056939
1.6750,14.48560488,59.70716622,1065.462639
1.6800,13.12068973,59.86012796,1066.879844
1.6850,11.76503175,60.01174814,1068.30809
1.6900,10.41849571,60.16124241,1069.74726
1.6950,9.081012608,60.30955655,1071.197197
1.7000,7.754097169,60.45571661,1072.657607
1.7050,6.43759959,60.59976106,1074.128007
1.7100,5.132148914,60.74211696,1075.608191
1.7150,3.837525744,60.88239058,1077.098117
1.7200,2.554895899,61.02303626,1078.597696
1.7250,1.284962779,61.16389581,1080.106866
1.7300,0.02853144126,61.30426053,1081.624774
1.7350,-1.215536509,61.44424988,1083.151586
1.7400,-2.445884436,61.58532009,1084.68722
1.7450,-3.663354002,61.72700171,1086.231607
1.7500,-4.866526072,61.86937151,1087.784387
1.7550,-6.056933175,62.01205195,1089.345718
1.7600,-7.233654847,62.15557406,1090.914939
1.7650,-8.398570615,62.29972977,1092.49275
1.7700,-9.551346048,62.44463057,1094.07888
1.7750,-10.69194342,62.59132752,1095.672852
1.7800,-11.82215453,62.73895527,1097.275377
1.7850,-12.94163912,62.88650402,1098.885899
1.7900,-14.05100291,63.03357724,1100.503515
1.7950,-15.14986879,63.17986155,1102.12827
1.8000,-16.23938916,63.326157,1103.760687
1.8050,-17.31898907,63.47038694,1105.399794
1.8100,-18.3890149,63.6118191,1107.045635
1.8150,-19.45121996,63.74988538,1108.698377
1.8200,-20.50428764,63.88423461,1110.357215
1.8250,-21.55047195,64.01558265,1112.023323
1.8300,-22.58859933,64.1433223,1113.695063
1.8350,-23.61932919,64.26678668,1115.37285
1.8400,-24.64383542,64.38572237,1117.056738
1.8450,-25.66062049,64.5004024,1118.746351
1.8500,-26.67024166,64.61211922,1120.441888
1.8550,-27.67277207,64.72225553,1122.143475
1.8600,-28.66730908,64.82993777,1123.850204
1.8650,-29.6529663,64.93568094,1125.56303
1.8700,-30.6309689,65.03950144,1127.282023
1.8750,-31.60115053,65.14236469,1129.007177
1.8800,-32.56241598,65.24531053,1130.73842
1.8850,-33.51468323,65.34772434,1132.475728
1.8900,-34.45831428,65.44997567,1134.218466
1.8950,-35.39269179,65.55425363,1135.967694
1.9000,-36.31775116,65.66002945,1137.723229
1.9050,-37.23262123,65.7672612,1139.485202
1.9100,-38.13919364,65.87704642,1141.254135
1.9150,-39.03618844,65.98898973,1143.030721
1.9200,-39.92475945,66.10397068,1144.814646
1.9250,-40.80435203,66.22102841,1146.605913
1.9300,-41.67732245,66.34032874,1148.404764
1.9350,-42.54222444,66.46223455,1150.211265
1.9400,-43.39956913,66.58654364,1152.024467
1.9450,-44.2490809,66.71294992,1153.845093
1.9500,-45.09151244,66.84196713,1155.672828
1.9550,-45.9274355,66.97238675,1157.507615
1.9600,-46.75804379,67.10364591,1159.348996
1.9650,-47.58380832,67.23460066,1161.197023
1.9700,-48.40418563,67.36684224,1163.052087
1.9750,-49.2199216,67.50044786,1164.914393
1.9800,-50.02976146,67.63562943,1166.783842
1.9850,-50.83438305,67.77306806,1168.660256
1.9900,-51.63302602,67.91105857,1170.543619
1.9950,-52.42500573,68.04932499,1172.434254
2.0000,-53.21110651,68.18783894,1174.332596
2.0050,-53.99182226,68.32541031,1176.239038
2.0100,-54.76680738,68.46074951,1178.152798
2.0150,-55.53554225,68.59485078,1180.074547
2.0200,-56.29943572,68.72720742,1182.004484
2.0250,-57.05807674,68.85811485,1183.942882
2.0300,-57.80999311,68.98919257,1185.889105
2.0350,-58.55481727,69.12090868,1187.84444
2.0400,-59.29168301,69.25299146,1189.808274
2.0450,-60.01993588,69.38477782,1191.779937
2.0500,-60.74061085,69.51700006,1193.7603
2.0550,-61.45540489,69.6496299,1195.74928
2.0600,-62.16341151,69.78240388,1197.746858
2.0650,-62.86326574,69.91548244,1199.75237
2.0700,-63.55536228,70.04817344,1201.764996
2.0750,-64.23972701,70.17893341,1203.784962
2.0800,-64.9163255,70.30843185,1205.811197
2.0850,-65.58618887,70.43586086,1207.845
2.0900,-66.24885455,70.55946158,1209.885712
2.0950,-66.90517644,70.67885181,1211.933786
2.1000,-67.55484748,70.79397033,1213.988367
2.1050,-68.19814533,70.90535134,1216.049814
2.1100,-68.83416748,71.01309599,1218.118003
2.1150,-69.46121791,71.11679468,1220.192717
2.1200,-70.07990187,71.21754604,1222.273853
2.1250,-70.68873708,71.31345558,1224.36028
2.1300,-71.28831958,71.40411607,1226.452497
2.1350,-71.87853189,71.49037974,1228.550739
2.1400,-72.45870541,71.57337429,1230.654246
2.1450,-73.02865656,71.65148525,1232.762737
2.1500,-73.58855058,71.72262181,1234.875252
2.1550,-74.13841741,71.78724637,1236.991512
2.1600,-74.6769535,71.84611809,1239.111694
2.1650,-75.2061483,71.89857747,1241.235026
2.1700,-75.72522639,71.94496894,1243.361521
2.1750,-76.23447498,71.9860514,1245.491131
2.1800,-76.73343628,72.02211195,1247.623135
2.1850,-77.2220575,72.0527741,1249.757019
2.1900,-77.70015378,72.07804612,1251.892832
2.1950,-78.16919194,72.09738537,1254.029222
2.2000,-78.62911147,72.11082056,1256.165511
2.2050,-79.08096493,72.11865457,1258.301274
2.2100,-79.52463486,72.12098627,1260.435858
2.2150,-79.96192167,72.1179606,1262.568059
2.2200,-80.39263933,72.10702345,1264.697795
2.2250,-80.81851172,72.08956446,1266.824998
2.2300,-81.23770093,72.0661516,1268.948981
2.2350,-81.65039848,72.03855775,1271.069821
2.2400,-82.05703512,72.00814528,1273.187153
2.2450,-82.4564129,71.97610659,1275.300571
2.2500,-82.84691235,71.94163849,1277.409349
2.2550,-83.22869739,71.90549936,1279.513127
2.2600,-83.6002823,71.86621822,1281.610848
2.2650,-83.96182218,71.82387274,1283.702088
2.2700,-84.31505496,71.77771051,1285.786936
2.2750,-84.66111734,71.72775157,1287.865681
2.2800,-85.0021849,71.67279016,1289.938678
2.2850,-85.33931962,71.61164565,1292.005165
2.2900,-85.67227512,71.54630365,1294.064859
2.2950,-86.00168096,71.47575046,1296.117668
2.3000,-86.32770296,71.40197326,1298.163464
2.3050,-86.64887499,71.32595211,1300.201274
2.3100,-86.96467905,71.24978864,1302.2318
2.3150,-87.2753366,71.17372607,1304.254261
2.3200,-87.58001254,71.09648877,1306.267338
2.3250,-87.87894542,71.01953613,1308.271206
2.3300,-88.17262757,70.94146293,1310.266171
2.3350,-88.46165443,70.86316207,1312.251542
2.3400,-88.74651862,70.78392695,1314.227728
2.3450,-89.02710726,70.70422901,1316.196241
2.3500,-89.30325256,70.623565,1318.155537
2.3550,-89.5729129,70.54305562,1320.105869
2.3600,-89.83495245,70.4626082,1322.046964
2.3650,-90.08877867,70.38367485,1323.979356
2.3700,-90.33268233,70.30614192,1325.90381
2.3750,-90.56528124,70.22974085,1327.820096
2.3800,-90.78495125,70.15343233,1329.727288
2.3850,-90.99183903,70.07940442,1331.625375
2.3900,-91.184675,70.00538348,1333.514247
2.3950,-91.36405936,69.93085201,1335.392812
2.4000,-91.52964733,69.85398349,1337.261216
2.4050,-91.68146027,69.77428957,1339.118622
2.4100,-91.81972013,69.69045003,1340.964842
2.4150,-91.94552085,69.60353112,1342.80068
2.4200,-92.05912637,69.51305153,1344.624429
2.4250,-92.16074326,69.41981302,1346.436357
2.4300,-92.24922671,69.32460352,1348.236414
2.4350,-92.32342975,69.22900666,1350.023707
2.4400,-92.3836288,69.13328398,1351.799171
2.4450,-92.43080819,69.03694215,1353.562021
2.4500,-92.46610222,68.94171606,1355.313396
2.4550,-92.48844878,68.84702156,1357.051976
2.4600,-92.49985854,68.75306072,1358.777509
2.4650,-92.49850823,68.65990422,1360.490148
2.4700,-92.48515254,68.56864095,1362.189476
2.4750,-92.45955893,68.4778265,1363.874434
2.4800,-92.42354747,68.38591618,1365.545101
2.4850,-92.37836599,68.29422066,1367.201254
2.4900,-92.32498169,68.20327618,1368.84366
2.4950,-92.26288942,68.11228506,1370.471692
2.5000,-92.19215259,68.02113809,1372.085702
2.5050,-92.11510695,67.92973357,1373.685614
2.5100,-92.03163101,67.83740331,1375.270904
2.5150,-91.94162202,67.74402289,1376.841243
2.5200,-91.84533406,67.6510246,1378.396544
2.5250,-91.74319653,67.55900724,1379.936626
2.5300,-91.63563672,67.46779078,1381.461203
2.5350,-91.52366046,67.3743894,1382.969717
2.5400,-91.4079163,67.27746839,1384.463242
2.5450,-91.29033968,67.17670282,1385.941617
2.5500,-91.17385698,67.07305963,1387.405939
2.5550,-91.05726474,66.96758942,1388.856995
2.5600,-90.94146898,66.86355056,1390.295437
2.5650,-90.82579692,66.75981971,1391.721571
2.5700,-90.70874656,66.65691609,1393.135121
2.5750,-90.58804627,66.55571291,1394.534921
2.5800,-90.46305225,66.45673067,1395.921499
2.5850,-90.33234642,66.3585228,1397.295258
2.5900,-90.19613644,66.26112181,1398.656626
2.5950,-90.05420691,66.16428383,1400.005506
2.6000,-89.90664261,66.06497929,1401.340618
2.6050,-89.75434168,65.96255726,1402.663458
2.6100,-89.59726529,65.85565203,1403.973195
2.6150,-89.43569907,65.74260278,1405.270446
2.6200,-89.26947377,65.62413129,1406.555979
2.6250,-89.09822878,65.49801663,1407.828911
2.6300,-88.92312684,65.36387995,1409.090085
2.6350,-88.74299184,65.22081901,1410.339481
2.6400,-88.55780987,65.0709832,1411.57664
2.6450,-88.36712927,64.91563806,1412.801505
2.6500,-88.17134436,64.75451813,1414.01503
2.6550,-87.96854453,64.58763278,1415.217379
2.6600,-87.75923696,64.4141838,1416.408546
2.6650,-87.54324807,64.23452815,1417.588881
2.6700,-87.31997842,64.04846986,1418.758001
2.6750,-87.09004095,63.85635677,1419.916775
2.6800,-86.85328607,63.65909031,1421.066906
2.6850,-86.60858263,63.45481185,1422.207194
2.6900,-86.35501387,63.2472679,1423.339805
2.6950,-86.09030192,63.03746591,1424.4649
2.7000,-85.81293343,62.82548014,1425.58261
2.7050,-85.52271045,62.61203526,1426.693103
2.7100,-85.22015558,62.39820991,1427.797169
2.7150,-84.90429094,62.18133841,1428.893274
2.7200,-84.57396051,61.96212165,1429.983026
2.7250,-84.23059062,61.73989651,1431.066454
2.7300,-83.87387767,61.51436559,1432.14365
2.7350,-83.5055349,61.28362127,1433.214834
2.7400,-83.12595896,61.04734302,1434.279384
2.7450,-82.73524897,60.80654025,1435.338003
2.7500,-82.33365753,60.56055795,1436.390073
2.7550,-81.92101538,60.3089184,1437.43506
2.7600,-81.49820306,60.05172033,1438.473574
2.7650,-81.06664576,59.79036288,1439.505443
2.7700,-80.62656277,59.52401371,1440.531117
2.7750,-80.17848672,59.25414491,1441.552112
2.7800,-79.72069774,58.98139091,1442.568237
2.7850,-79.25209212,58.7072041,1443.580084
2.7900,-78.77086692,58.43222716,1444.587004
2.7950,-78.27611979,58.15600732,1445.588559
2.8000,-77.76779815,57.87910538,1446.585067
2.8050,-77.24458391,57.60069074,1447.576523
2.8100,-76.70519931,57.32128411,1448.563109
2.8150,-76.15044666,57.03959903,1449.545485
2.8200,-75.58105561,56.75477426,1450.523569
2.8250,-74.996382,56.46426901,1451.497619
2.8300,-74.39746798,56.16835478,1452.468224
2.8350,-73.78550607,55.86645764,1453.436357
2.8400,-73.16008642,55.56045553,1454.401616
2.8450,-72.52212154,55.24920805,1455.363941
2.8500,-71.87153861,54.93127026,1456.32366
2.8550,-71.21013172,54.60617074,1457.280588
2.8600,-70.53993321,54.2720683,1458.23596
2.8650,-69.86366166,53.93047514,1459.189763
2.8700,-69.1841983,53.58019428,1460.142496
2.8750,-68.50468049,53.2223919,1461.095647
2.8800,-67.82639757,52.85717409,1462.048577
2.8850,-67.15026643,52.48716692,1463.002044
2.8900,-66.47966136,52.11208702,1463.955534
2.8950,-65.81671567,51.73387959,1464.909403
2.9000,-65.16264776,51.35503511,1465.864066
2.9050,-64.51811658,50.97789241,1466.819636
2.9100,-63.88368282,50.60413801,1467.775765
2.9150,-63.25874541,50.23742086,1468.731842
2.9200,-62.64364772,49.87777086,1469.686858
2.9250,-62.03867423,49.52838029,1470.640918
2.9300,-61.44306487,49.19043111,1471.592491
2.9350,-60.85632588,48.86565893,1472.541648
2.9400,-60.27888378,48.55423814,1473.488102
2.9450,-59.71088568,48.25547564,1474.430984
2.9500,-59.15152207,47.96951754,1475.369848
2.9550,-58.60160935,47.69556198,1476.302917
2.9600,-58.06104771,47.43497091,1477.23045
2.9650,-57.52869281,47.18734139,1478.151744
2.9700,-57.00540536,46.952579,1479.066482
2.9750,-56.49036666,46.73244865,1479.974152
2.9800,-55.98337385,46.52529208,1480.873578
2.9850,-55.4826199,46.33126373,1481.765091
2.9900,-54.98838188,46.14865909,1482.647037
2.9950,-54.50091217,45.97799451,1483.51956
3.0000,-54.02193367,45.81860372,1484.382719
3.0050,-53.54928171,45.66962548,1485.236411
3.0100,-53.08263832,45.53022643,1486.079829
3.0150,-52.62219227,45.4028567,1486.91397
3.0200,-52.16841765,45.28529421,1487.738449
3.0250,-51.72076544,45.17809963,1488.552467
3.0300,-51.2792037,45.08161832,1489.356501
3.0350,-50.84430245,44.99610757,1490.150333
3.0400,-50.41608671,44.92039276,1490.933731
3.0450,-49.99462254,44.85427472,1491.706376
3.0500,-49.5792748,44.79876081,1492.46798
3.0550,-49.16967992,44.75369259,1493.219191
3.0600,-48.76533523,44.7183207,1493.959561
3.0650,-48.36479693,44.69312718,1494.68823
3.0700,-47.96925061,44.67722224,1495.404995
3.0750,-47.57747609,44.67013094,1496.109246
3.0800,-47.19000779,44.67116697,1496.800821
3.0850,-46.80714632,44.6781264,1497.479358
3.0900,-46.42981008,44.68953013,1498.145034
3.0950,-46.05836737,44.70734285,1498.79928
3.1000,-45.69236314,44.72953845,1499.441118
3.1050,-45.3305766,44.75705428,1500.071659
3.1100,-44.97424593,44.78815031,1500.690525
3.1150,-44.62184901,44.82251489,1501.297951
3.1200,-44.27249877,44.86024774,1501.8944
3.1250,-43.92749739,44.90121217,1502.480513
3.1300,-43.58610856,44.94476619,1503.056633
3.1350,-43.24717844,44.99156413,1503.622742
3.1400,-42.91206955,45.04001129,1504.179755
3.1450,-42.58038095,45.09076626,1504.727939
3.1500,-42.25198635,45.14417502,1505.268195
3.1550,-41.92885671,45.19961212,1505.800889
3.1600,-41.60963026,45.25686558,1506.326275
3.1650,-41.29674483,45.31425746,1506.845319
3.1700,-40.9911859,45.3733785,1507.35821
3.1750,-40.69224851,45.43223402,1507.865117
3.1800,-40.40265213,45.49155004,1508.366968
3.1850,-40.12438832,45.55063478,1508.864379
3.1900,-39.85734009,45.61051525,1509.358111
3.1950,-39.60122993,45.6725435,1509.848669
3.2000,-39.35585248,45.73504198,1510.336135
3.2050,-39.12307265,45.79822972,1510.820128
3.2100,-38.90385692,45.86260329,1511.301719
3.2150,-38.69880832,45.92724743,1511.781039
3.2200,-38.50662352,45.99416803,1512.25864
3.2250,-38.32939692,46.06203436,1512.734901
3.2300,-38.16405517,46.13199418,1513.210569
3.2350,-38.01103904,46.20314193,1513.684251
3.2400,-37.86937494,46.27526073,1514.155977
3.2450,-37.73645801,46.34866048,1514.625345
3.2500,-37.61195462,46.4239476,1515.091581
3.2550,-37.49439688,46.50073169,1515.555497
3.2600,-37.3826809,46.57867144,1516.016987
3.2650,-37.27722263,46.65751711,1516.475316
3.2700,-37.17474364,46.73668321,1516.930291
3.2750,-37.07344155,46.81489466,1517.38063
3.2800,-36.97165,46.89286713,1517.826468
3.2850,-36.86909754,46.96960788,1518.267037
3.2900,-36.76521316,47.04480597,1518.70258
3.2950,-36.65948172,47.11666564,1519.132745
3.3000,-36.54994201,47.18550531,1519.55674
3.3050,-36.43811398,47.25074398,1519.975151
3.3100,-36.32327499,47.31077566,1520.387718
3.3150,-36.20476999,47.36471903,1520.794104
3.3200,-36.08235836,47.41325574,1521.1946
3.3250,-35.95421688,47.45564993,1521.58879
3.3300,-35.8203916,47.49082069,1521.976227
3.3350,-35.6801319,47.51860901,1522.356641
3.3400,-35.53336821,47.53868525,1522.730089
3.3450,-35.37910046,47.55126844,1523.097064
3.3500,-35.21867351,47.55519822,1523.457789
3.3550,-35.05260864,47.55031053,1523.812677
3.3600,-34.88004006,47.5366267,1524.16168
3.3650,-34.70274109,47.5130338,1524.505268
3.3700,-34.51895805,47.48015543,1524.842872
3.3750,-34.32913724,47.43675071,1525.174879
3.3800,-34.13319417,47.38304937,1525.501264
3.3850,-33.93225182,47.31976792,1525.822592
3.3900,-33.72691195,47.24632293,1526.138872
3.3950,-33.51741522,47.16164489,1526.449511
3.4000,-33.30478321,47.06652263,1526.755858
3.4050,-33.08990194,46.96082353,1527.057042
3.4100,-32.87169327,46.84447346,1527.35371
3.4150,-32.65084821,46.71993661,1527.64624
3.4200,-32.42767199,46.58509019,1527.935091
3.4250,-32.20147865,46.44194892,1528.21977
3.4300,-31.97355018,46.28917908,1528.500694
3.4350,-31.74442125,46.12627475,1528.779217
3.4400,-31.51349221,45.95323117,1529.054762
3.4450,-31.2819549,45.76988955,1529.328485
3.4500,-31.05028071,45.5772434,1529.600351
3.4550,-30.81820921,45.37632082,1529.87102
3.4600,-30.58834931,45.16789331,1530.140946
3.4650,-30.35827724,44.95318595,1530.409691
3.4700,-30.12932599,44.73100427,1530.676737
3.4750,-29.90253658,44.50519649,1530.94265
3.4800,-29.67778348,44.27530173,1531.207148
3.4850,-29.45521915,44.04439202,1531.470166
3.4900,-29.23610108,43.81201365,1531.731307
3.4950,-29.02112839,43.5781883,1531.990274
3.5000,-28.81029868,43.34558854,1532.246992
3.5050,-28.60457186,43.11530879,1532.501121
3.5100,-28.40375302,42.88756215,1532.751477
3.5150,-28.20887059,42.66318928,1532.998214
3.5200,-28.0204643,42.44292658,1533.240498
3.5250,-27.83821762,42.22716797,1533.478206
3.5300,-27.66409251,42.01567766,1533.710515
3.5350,-27.49769338,41.81087915,1533.938539
3.5400,-27.33703131,41.61206593,1534.161049
3.5450,-27.1831434,41.42029096,1534.378145
3.5500,-27.03355938,41.23570422,1534.589346
3.5550,-26.88670712,41.05910182,1534.793201
3.5600,-26.74172407,40.89016033,1534.989401
3.5650,-26.59728359,40.72735272,1535.177654
3.5700,-26.45420328,40.57155146,1535.358296
3.5750,-26.31195498,40.42221317,1535.531918
3.5800,-26.16983621,40.27847639,1535.69894
3.5850,-26.02641581,40.13975584,1535.859119
3.5900,-25.88156571,40.0061653,1536.012785
3.5950,-25.73437956,39.87637748,1536.159843
3.6000,-25.58421789,39.74856169,1536.300153
3.6050,-25.43064635,39.62200447,1536.433382
3.6100,-25.27261416,39.4969697,1536.560003
3.6150,-25.1114005,39.37216432,1536.680477
3.6200,-24.94722902,39.24526949,1536.794869
3.6250,-24.78232293,39.11643109,1536.904434
3.6300,-24.6172778,38.98423248,1537.009862
3.6350,-24.4524971,38.84910273,1537.111693
3.6400,-24.28856515,38.71105454,1537.21109
3.6450,-24.12621422,38.56961936,1537.308362
3.6500,-23.96415263,38.42418285,1537.402953
3.6550,-23.80411544,38.27464939,1537.496462
3.6600,-23.64698228,38.12033671,1537.588738
3.6650,-23.49346316,37.96183072,1537.680826
3.6700,-23.3437598,37.79794315,1537.773163
3.6750,-23.19898291,37.629957,1537.866007
3.6800,-23.05865663,37.45821191,1537.959731
3.6850,-22.9232815,37.28225103,1538.054227
3.6900,-22.7915256,37.10345042,1538.149136
3.6950,-22.66364991,36.92221453,1538.245362
3.7000,-22.53982051,36.74000714,1538.343192
3.7050,-22.41975593,36.55704743,1538.442201
3.7100,-22.30480441,36.37425927,1538.542942
3.7150,-22.19298964,36.19217549,1538.64486
3.7200,-22.08572449,36.01293729,1538.747865
3.7250,-21.98329642,35.83570557,1538.851766
3.7300,-21.88496518,35.66318436,1538.956874
3.7350,-21.79203579,35.49582994,1539.061749
3.7400,-21.70473492,35.33444367,1539.167185
3.7450,-21.62262457,35.17955652,1539.271602
3.7500,-21.54610532,35.0315772,1539.37554
3.7550,-21.47541904,34.89116348,1539.478291
3.7600,-21.40930224,34.75881112,1539.579345
3.7650,-21.34931336,34.63647446,1539.678606
3.7700,-21.29367639,34.52376968,1539.775987
3.7750,-21.24374379,34.42145123,1539.871462
3.7800,-21.19966132,34.32968494,1539.964486
3.7850,-21.16202609,34.24787611,1540.054767
3.7900,-21.13039,34.17734667,1540.142498
3.7950,-21.10576214,34.11808162,1540.227066
3.8000,-21.09000755,34.07011555,1540.308427
3.8050,-21.08228672,34.03391845,1540.386862
3.8100,-21.08280969,34.00974574,1540.462266
3.8150,-21.09068158,33.99767763,1540.533059
3.8200,-21.10702687,33.99715921,1540.599385
3.8250,-21.13078442,34.00853801,1540.659975
3.8300,-21.16131317,34.03290738,1540.715115
3.8350,-21.19847586,34.0686351,1540.76395
3.8400,-21.24306593,34.11565024,1540.806034
3.8450,-21.29591092,34.17336344,1540.842034
3.8500,-21.35703501,34.2419339,1540.871674
3.8550,-21.42703161,34.31953744,1540.89559
3.8600,-21.50524976,34.40593274,1540.913143
3.8650,-21.59190399,34.50202948,1540.925087
3.8700,-21.6868003,34.60428991,1540.930125
3.8750,-21.78963132,34.71253649,1540.92894
3.8800,-21.90016589,34.82567101,1540.920276
3.8850,-22.01844145,34.94334566,1540.904893
3.8900,-22.14410922,35.0638567,1540.882348
3.8950,-22.27698661,35.18697472,1540.852731
3.9000,-22.41850248,35.31214415,1540.816275
3.9050,-22.56874659,35.43937081,1540.774037
3.9100,-22.72882739,35.56743045,1540.726037
3.9150,-22.89651928,35.69639017,1540.672383
3.9200,-23.07207787,35.82707349,1540.61368
3.9250,-23.25371162,35.95925316,1540.549952
3.9300,-23.44223689,36.09142,1540.481068
3.9350,-23.63754353,36.22277941,1540.407468
3.9400,-23.83860236,36.35373339,1540.328654
3.9450,-24.04768346,36.48265243,1540.244862
3.9500,-24.26354019,36.61054269,1540.156869
3.9550,-24.48502648,36.73682903,1540.063439
3.9600,-24.71250507,36.86281707,1539.965126
3.9650,-24.9447075,36.98636069,1539.861122
3.9700,-25.18108599,37.10949355,1539.752219
3.9750,-25.42130184,37.23117283,1539.638141
3.9800,-25.66654573,37.35213104,1539.519233
3.9850,-25.91501731,37.47220849,1539.395661
3.9900,-26.16758244,37.59151505,1539.267529
3.9950,-26.42302435,37.71026922,1539.134298
4.0000,-26.68115549,37.82743563,1538.995538
4.0050,-26.94067205,37.94383604,1538.851038
4.0100,-27.20143524,38.05996655,1538.700833
4.0150,-27.46620532,38.17457038,1538.545349
4.0200,-27.73324648,38.28825827,1538.384558
4.0250,-28.00221242,38.40182487,1538.218402
4.0300,-28.27308371,38.51408124,1538.046473
4.0350,-28.54530189,38.62624686,1537.869063
4.0400,-28.81846892,38.73951127,1537.685818
4.0450,-29.0931457,38.85342118,1537.497387
4.0500,-29.36936567,38.96943602,1537.302836
4.0550,-29.64659425,39.08690375,1537.1027
4.0600,-29.92533334,39.20608519,1536.896754
4.0650,-30.20448521,39.32678607,1536.684557
4.0700,-30.4854743,39.45169654,1536.466732
4.0750,-30.7672317,39.57858031,1536.242688
4.0800,-31.04968437,39.70842032,1536.012651
4.0850,-31.33240384,39.84053411,1535.776194
4.0900,-31.6139535,39.97610426,1535.532974
4.0950,-31.89502958,40.11424846,1535.283116
4.1000,-32.17488401,40.2558787,1535.027007
4.1050,-32.45512767,40.39780858,1534.763248
4.1100,-32.73421831,40.54317102,1534.492683
4.1150,-33.013727,40.69042455,1534.215891
4.1200,-33.29282242,40.83944424,1533.932259
4.1250,-33.57196989,40.99108435,1533.641893
4.1300,-33.85100936,41.14410296,1533.34405
4.1350,-34.13078295,41.29779525,1533.038813
4.1400,-34.4107057,41.45416226,1532.726652
4.1450,-34.68932208,41.61159846,1532.406365
4.1500,-34.96786779,41.76933427,1532.078416
4.1550,-35.24707122,41.92893957,1531.742741
4.1600,-35.52797296,42.08919372,1531.399815
4.1650,-35.81103126,42.24903577,1531.049456
4.1700,-36.09584963,42.40937938,1530.692081
4.1750,-36.38338908,42.57102216,1530.327185
4.1800,-36.67397148,42.73335657,1529.955544
4.1850,-36.96918636,42.89720652,1529.577344
4.1900,-37.26896115,43.06229998,1529.19198
4.1950,-37.57342591,43.22828343,1528.799507
4.2000,-37.88101727,43.39654162,1528.400853
4.2050,-38.1923885,43.56648111,1527.995219
4.2100,-38.50703536,43.73887036,1527.582604
4.2150,-38.82641224,43.91417204,1527.162945
4.2200,-39.14985256,44.09137728,1526.735167
4.2250,-39.4791684,44.27056636,1526.299531
4.2300,-39.81312363,44.45256601,1525.855744
4.2350,-40.15227945,44.63615303,1525.403278
4.2400,-40.49732645,44.82210393,1524.942197
4.2450,-40.8467441,45.01065406,1524.472314
4.2500,-41.20173608,45.20075174,1523.992353
4.2550,-41.56347968,45.39355264,1523.502712
4.2600,-41.93019778,45.58738456,1523.002977
4.2650,-42.30236977,45.78380331,1522.49295
4.2700,-42.67862277,45.98201252,1521.971565
4.2750,-43.05846764,46.18236753,1521.438009
4.2800,-43.44148024,46.38453774,1520.892244
4.2850,-43.82771877,46.58881369,1520.333603
4.2900,-44.21580747,46.79485595,1519.761686
4.2950,-44.60794919,47.00197397,1519.176412
4.3000,-45.0028974,47.2103079,1518.577185
4.3050,-45.40255977,47.41933066,1517.965294
4.3100,-45.80645886,47.62810717,1517.340035
4.3150,-46.21420792,47.83765197,1516.701487
4.3200,-46.62602194,48.04877827,1516.049557
4.3250,-47.04151636,48.26152497,1515.38456
4.3300,-47.46106868,48.47705475,1514.706193
4.3350,-47.88299218,48.69561201,1514.013812
4.3400,-48.30772603,48.91667537,1513.307654
4.3450,-48.7348532,49.1404602,1512.587165
4.3500,-49.16395792,49.36608584,1511.852922
4.3550,-49.59525833,49.59415539,1511.104688
4.3600,-50.02930728,49.82414378,1510.342159
4.3650,-50.46586051,50.05690907,1509.566475
4.3700,-50.90607657,50.29086438,1508.77854
4.3750,-51.35034654,50.5263256,1507.97811
4.3800,-51.79837855,50.76465896,1507.16558
4.3850,-52.25031997,51.00551819,1506.341724
4.3900,-52.70633573,51.24896532,1505.505944
4.3950,-53.16651232,51.49606421,1504.659199
4.4000,-53.63010501,51.74624619,1503.801079
4.4050,-54.09632883,52.00105315,1502.932424
4.4100,-54.56639389,52.25787319,1502.052976
4.4150,-55.03939462,52.51803629,1501.162624
4.4200,-55.51620624,52.78087252,1500.262356
4.4250,-55.99577025,53.04668729,1499.353228
4.4300,-56.47838118,53.31404761,1498.43574
4.4350,-56.96394083,53.58449234,1497.509993
4.4400,-57.45366557,53.85667315,1496.577047
4.4450,-57.94717853,54.13229939,1495.636932
4.4500,-58.4449314,54.41108154,1494.690122
4.4550,-58.94647597,54.69194743,1493.736723
4.4600,-59.45065374,54.97593699,1492.776756
4.4650,-59.95638766,55.26320185,1491.809922
4.4700,-60.46340529,55.55476741,1490.836176
4.4750,-60.97154088,55.84848202,1489.855443
4.4800,-61.48065454,56.14518441,1488.866943
4.4850,-61.98948372,56.44360244,1487.870563
4.4900,-62.49719802,56.74411437,1486.866897
4.4950,-63.00400697,57.04628036,1485.856092
4.5000,-63.51056896,57.34872089,1484.837232
4.5050,-64.01559262,57.65050014,1483.810096
4.5100,-64.51975961,57.95168379,1482.774837
4.5150,-65.02291565,58.25182999,1481.731882
4.5200,-65.5250537,58.54970499,1480.680796
4.5250,-66.02632278,58.84543631,1479.62218
4.5300,-66.52711049,59.13956085,1478.555689
4.5350,-67.02796692,59.43084881,1477.481168
4.5400,-67.52885648,59.71871802,1476.398612
4.5450,-68.03067494,60.00308702,1475.307531
4.5500,-68.53354916,60.284075,1474.208918
4.5550,-69.03585507,60.56086037,1473.101579
4.5600,-69.53657952,60.83394873,1471.985408
4.5650,-70.03574618,61.10338618,1470.860876
4.5700,-70.5339206,61.36773722,1469.727231
4.5750,-71.03164709,61.627891,1468.585929
4.5800,-71.52812982,61.88339857,1467.43615
4.5850,-72.02367763,62.13552803,1466.279125
4.5900,-72.51898341,62.383338,1465.115255
4.5950,-73.01267246,62.62846219,1463.94523
4.6000,-73.50556159,62.87176386,1462.770176
4.6050,-73.99577251,63.11497477,1461.589436
4.6100,-74.48358427,63.35813914,1460.40229
4.6150,-74.96708812,63.60048925,1459.209779
4.6200,-75.44575462,63.84323528,1458.011631
4.6250,-75.91927292,64.08549233,1456.807697
4.6300,-76.38694586,64.32723009,1455.598507
4.6350,-76.85062371,64.56756938,1454.384186
4.6400,-77.3086152,64.80528126,1453.164652
4.6450,-77.76178168,65.04083388,1451.941214
4.6500,-78.20916498,65.27468165,1450.713503
4.6550,-78.6517768,65.50754965,1449.481968
4.6600,-79.08802976,65.73936477,1448.247737
4.6650,-79.51899902,65.97064291,1447.010984
4.6700,-79.9419075,66.2011302,1445.770293
4.6750,-80.35729663,66.43089938,1444.525723
4.6800,-80.7640422,66.65866001,1443.277892
4.6850,-81.16160671,66.88515611,1442.026
4.6900,-81.55067809,67.11001242,1440.771159
4.6950,-81.92879108,67.33176047,1439.511958
4.7000,-82.29592142,67.55132836,1438.249463
4.7050,-82.65160054,67.7686673,1436.984293
4.7100,-82.99326492,67.98465818,1435.716296
4.7150,-83.32217418,68.19932988,1434.44669
4.7200,-83.63854396,68.41363016,1433.175836
4.7250,-83.94185091,68.62687599,1431.903051
4.7300,-84.23377617,68.84129768,1430.628563
4.7350,-84.51380216,69.05604101,1429.353017
4.7400,-84.78169806,69.27192237,1428.075344
4.7450,-85.03823409,69.48996871,1426.796217
4.7500,-85.28163358,69.71004618,1425.514849
4.7550,-85.51343274,69.93282981,1424.231281
4.7600,-85.73464832,70.15834568,1422.945247
4.7650,-85.94567368,70.38572406,1421.656412
4.7700,-86.14860184,70.61521954,1420.364835
4.7750,-86.34309387,70.84756319,1419.070709
4.7800,-86.53020966,71.08231378,1417.774384
4.7850,-86.71077109,71.31824348,1416.475199
4.7900,-86.88807511,71.5549665,1415.17366
4.7950,-87.0626805,71.79265965,1413.868482
4.8000,-87.2367652,72.03193825,1412.560895
4.8050,-87.4109225,72.27264817,1411.251021
4.8100,-87.58609207,72.5142949,1409.937878
4.8150,-87.76352258,72.75647707,1408.62219
4.8200,-87.94294015,72.99967324,1407.303483
4.8250,-88.12444785,73.24433788,1405.982026
4.8300,-88.30813648,73.48834382,1404.657492
4.8350,-88.49271624,73.73377969,1403.330154
4.8400,-88.67841863,73.9801722,1401.999998
4.8450,-88.86361365,74.22695742,1400.667388
4.8500,-89.04894842,74.4730256,1399.332549
4.8550,-89.23614624,74.71814619,1397.996276
4.8600,-89.42649807,74.96296365,1396.658316
4.8650,-89.61993071,75.20627609,1395.318674
4.8700,-89.81800704,75.44903617,1393.977301
4.8750,-90.01977882,75.69027628,1392.633414
4.8800,-90.22516866,75.93081572,1391.288229
4.8850,-90.43279202,76.1705656,1389.941539
4.8900,-90.64119591,76.40998851,1388.593323
4.8950,-90.8503606,76.65005324,1387.243027
4.9000,-91.05938783,76.88912608,1385.889484
4.9050,-91.26873765,77.1256817,1384.532764
4.9100,-91.47872554,77.36045018,1383.173459
4.9150,-91.69110233,77.59224987,1381.809931
4.9200,-91.90530787,77.8177446,1380.442427
4.9250,-92.12140645,78.03818586,1379.071411
4.9300,-92.33934928,78.25292445,1377.697503
4.9350,-92.55913482,78.462403,1376.321234
4.9400,-92.78212003,78.66798225,1374.941879
4.9450,-93.00711067,78.86959563,1373.558864
4.9500,-93.23526569,79.06813183,1372.172869
4.9550,-93.46388189,79.26212459,1370.783279
4.9600,-93.69318441,79.45326917,1369.389537
4.9650,-93.9207126,79.63805034,1367.990161
4.9700,-94.14614204,79.8183313,1366.585634
4.9750,-94.36830631,79.99265932,1365.176244
4.9800,-94.58803172,80.1603632,1363.760327
4.9850,-94.8052182,80.32115169,1362.338691
4.9900,-95.01861661,80.4741116,1360.910663
4.9950,-95.22823238,80.62080495,1359.476379
5.0000,-95.43458883,80.76007399,1358.03521
5.0050,-95.63520797,80.89366497,1356.587045
5.0100,-95.83199236,81.02130892,1355.131086
5.0150,-96.02233912,81.14384445,1353.666562
5.0200,-96.20523756,81.26204021,1352.193317
5.0250,-96.38031267,81.37633298,1350.71104
5.0300,-96.54580993,81.48689869,1349.219483
5.0350,-96.70129683,81.595634,1347.71831
5.0400,-96.84638608,81.70157357,1346.20752
5.0450,-96.98077386,81.80474883,1344.687276
5.0500,-97.10558821,81.90557142,1343.157342
5.0550,-97.21904787,82.00498414,1341.617709
5.0600,-97.32014237,82.10286132,1340.067993
5.0650,-97.4081851,82.20052817,1338.509283
5.0700,-97.48139507,82.29870013,1336.941641
5.0750,-97.54038206,82.39683011,1335.36466
5.0800,-97.58544395,82.49553343,1333.777725
5.0850,-97.61732939,82.59517822,1332.181547
5.0900,-97.63410003,82.69777378,1330.575883
5.0950,-97.63685531,82.80190152,1328.961453
5.1000,-97.62426453,82.90812604,1327.338881
5.1050,-97.59830936,83.01646117,1325.707932
5.1100,-97.55970387,83.12648919,1324.070821
5.1150,-97.50799639,83.23650766,1322.42597
5.1200,-97.44443093,83.3465117,1320.775255
5.1250,-97.36911385,83.4540151,1319.118278
5.1300,-97.28314894,83.56051282,1317.456082
5.1350,-97.18791061,83.66445892,1315.788962
5.1400,-97.08319797,83.76688122,1314.118107
5.1450,-96.97054376,83.86715429,1312.44437
5.1500,-96.8501907,83.96590404,1310.766765
5.1550,-96.72133665,84.06430755,1309.085694
5.1600,-96.58483735,84.15980986,1307.401339
5.1650,-96.44019639,84.25479289,1305.714518
5.1700,-96.2873314,84.34740261,1304.025763
5.1750,-96.12644606,84.4389951,1302.335382
5.1800,-95.95881809,84.52787566,1300.643865
5.1850,-95.78470884,84.6137377,1298.950438
5.1900,-95.60649593,84.69587959,1297.255082
5.1950,-95.42373861,84.7722924,1295.558615
5.2000,-95.23775045,84.8434728,1293.860849
5.2050,-95.04935764,84.90835818,1292.162842
5.2100,-94.85845024,84.96604519,1290.464388
5.2150,-94.6652241,85.01791872,1288.765792
5.2200,-94.47112867,85.06525041,1287.06743
5.2250,-94.27655938,85.10627618,1285.368832
5.2300,-94.08208718,85.14162945,1283.668435
5.2350,-93.88755021,85.17145765,1281.966751
5.2400,-93.6920484,85.19514914,1280.263936
5.2450,-93.4949203,85.21319517,1278.560867
5.2500,-93.29665158,85.22482655,1276.857142
5.2550,-93.09852235,85.23104875,1275.154115
5.2600,-92.89973867,85.23151763,1273.450652
5.2650,-92.70060223,85.22706349,1271.748337
5.2700,-92.50113631,85.21738656,1270.047349
5.2750,-92.30036386,85.20463729,1268.348364
5.2800,-92.09725644,85.19001462,1266.6514
5.2850,-91.89074959,85.17403797,1264.956663
5.2900,-91.68069229,85.15842339,1263.264757
5.2950,-91.46647939,85.14318379,1261.575555
5.3000,-91.2470942,85.1288179,1259.889063
5.3050,-91.02316605,85.11609068,1258.20514
5.3100,-90.79401442,85.10456418,1256.524492
5.3150,-90.5606076,85.09431551,1254.84696
5.3200,-90.32209416,85.08463839,1253.172081
5.3250,-90.07937171,85.07592273,1251.500185
5.3300,-89.83302456,85.06843206,1249.832243
5.3350,-89.58067239,85.06113182,1248.167406
5.3400,-89.32305829,85.05371749,1246.506916
5.3450,-89.05977852,85.04565356,1244.849481
5.3500,-88.78988539,85.03795606,1243.194735
5.3550,-88.51377172,85.02975917,1241.542363
5.3600,-88.23260748,85.02285251,1239.89243
5.3650,-87.94645041,85.01730893,1238.24356
5.3700,-87.65545904,85.01302673,1236.595985
5.3750,-87.35925934,85.01246793,1234.949493
5.3800,-87.05802203,85.0150284,1233.304504
5.3850,-86.75019398,85.02261313,1231.660539
5.3900,-86.4357554,85.03423613,1230.016884
5.3950,-86.11438025,85.05043497,1228.374831
5.4000,-85.78537757,85.07116944,1226.732665
5.4050,-85.44740415,85.09665551,1225.09161
5.4100,-85.0997578,85.12712272,1223.451026
5.4150,-84.74247703,85.16329585,1221.811644
5.4200,-84.37539658,85.20567967,1220.172713
5.4250,-83.99835066,85.25436518,1218.534634
5.4300,-83.61088104,85.30938572,1216.897764
5.4350,-83.21337766,85.37212232,1215.262077
5.4400,-82.80516228,85.44134169,1213.627285
5.4450,-82.38613826,85.51779416,1211.993115
5.4500,-81.95643722,85.60184217,1210.361366
5.4550,-81.51618964,85.69085444,1208.731356
5.4600,-81.06568608,85.78577066,1207.103508
5.4650,-80.60553741,85.88270894,1205.477516
5.4700,-80.13625063,85.98268863,1203.853359
5.4750,-79.65757204,86.08365694,1202.231823
5.4800,-79.16908488,86.1859833,1200.612658
5.4850,-78.67040084,86.28815624,1198.995826
5.4900,-78.16067232,86.38996935,1197.381913
5.4950,-77.63912477,86.49042068,1195.770565
5.5000,-77.10612277,86.58928874,1194.161853
5.5050,-76.56212705,86.68729072,1192.555476
5.5100,-76.00686448,86.78581084,1190.952303
5.5150,-75.44111592,86.88316447,1189.352596
5.5200,-74.86371449,86.97912509,1187.755446
5.5250,-74.27521726,87.07399956,1186.160965
5.5300,-73.67564966,87.16696274,1184.570225
5.5350,-73.06457701,87.25732012,1182.982701
5.5400,-72.44232054,87.34422429,1181.399146
5.5450,-71.81000591,87.42572838,1179.819726
5.5500,-71.16676318,87.50089931,1178.244834
5.5550,-70.5128053,87.56900434,1176.673729
5.5600,-69.84946533,87.62925269,1175.10799
5.5650,-69.1764246,87.68307905,1173.547302
5.5700,-68.49452701,87.73040748,1171.991811
5.5750,-67.80419046,87.76985451,1170.441003
5.5800,-67.10625771,87.80124415,1168.896241
5.5850,-66.40117049,87.82437479,1167.356519
5.5900,-65.68910164,87.83812643,1165.821311
5.5950,-64.97020839,87.84201367,1164.29121
5.6000,-64.24503842,87.83635873,1162.766159
5.6050,-63.51369289,87.81962458,1161.245785
5.6100,-62.77585454,87.79267681,1159.72979
5.6150,-62.03179885,87.7555302,1158.218896
5.6200,-61.2822446,87.70825172,1156.713964
5.6250,-60.52643974,87.6529404,1155.214968
5.6300,-59.76326059,87.58929845,1153.720865
5.6350,-58.99556565,87.51901315,1152.232901
5.6400,-58.22206447,87.44336367,1150.749772
5.6450,-57.44356301,87.36339396,1149.271953
5.6500,-56.66038662,87.27982603,1147.799973
5.6550,-55.8727624,87.19376608,1146.334561
5.6600,-55.08052115,87.1045539,1144.875367
5.6650,-54.28457053,87.01235755,1143.422735
5.6700,-53.48585971,86.91855952,1141.977121
5.6750,-52.68445319,86.82188132,1140.538872
5.6800,-51.8803772,86.72319453,1139.10794
5.6850,-51.07436125,86.62270586,1137.685167
5.6900,-50.26719412,86.52019723,1136.270635
5.6950,-49.4585853,86.41913828,1134.86451
5.7000,-48.65032501,86.31649362,1133.467033
5.7050,-47.84154451,86.21374762,1132.078023
5.7100,-47.03244648,86.10909999,1130.697125
5.7150,-46.22280261,86.0039016,1129.32481
5.7200,-45.41342554,85.8975443,1127.961309
5.7250,-44.6041398,85.78934061,1126.606676
5.7300,-43.79414851,85.67984112,1125.260768
5.7350,-42.98161719,85.56774682,1123.923246
5.7400,-42.16774209,85.45286899,1122.594644
5.7450,-41.35157875,85.33606964,1121.274677
5.7500,-40.53196109,85.21725427,1119.963725
5.7550,-39.70899442,85.09702153,1118.662898
5.7600,-38.88163746,84.97434481,1117.371862
5.7650,-38.04899979,84.85201987,1116.091458
5.7700,-37.21034325,84.73037528,1114.821849
5.7750,-36.36568263,84.60891669,1113.56269
5.7800,-35.51384457,84.48848092,1112.313732
5.7850,-34.656374,84.37008384,1111.076012
5.7900,-33.79189747,84.25343933,1109.848352
5.7950,-32.92152704,84.13873949,1108.630741
5.8000,-32.04513203,84.02701043,1107.423477
5.8050,-31.16163807,83.91640721,1106.22561
5.8100,-30.27226211,83.80651324,1105.037718
5.8150,-29.37679362,83.69687057,1103.859469
5.8200,-28.47759098,83.58709935,1102.691809
5.8250,-27.57462669,83.4777574,1101.534597
5.8300,-26.66928236,83.36708975,1100.387941
5.8350,-25.76338619,83.25454613,1099.252108
5.8400,-24.85666933,83.14059777,1098.126552
5.8450,-23.94921501,83.02704476,1097.010816
5.8500,-23.04137454,82.91244586,1095.904817
5.8550,-22.13222243,82.79789335,1094.808477
5.8600,-21.2223629,82.68389496,1093.721789
5.8650,-20.31291248,82.5696259,1092.644594
5.8700,-19.4034082,82.45496907,1091.576751
5.8750,-18.49518171,82.3413222,1090.518921
5.8800,-17.58784346,82.22808737,1089.470372
5.8850,-16.68155778,82.1153875,1088.432004
5.8900,-15.7765413,82.00449733,1087.404143
5.8950,-14.87327453,81.89537406,1086.386711
5.9000,-13.9722367,81.7869661,1085.379592
5.9050,-13.07447071,81.68010362,1084.383575
5.9100,-12.17908281,81.57400239,1083.398095
5.9150,-11.28724292,81.46933964,1082.423279
5.9200,-10.397764,81.36664575,1081.458175
5.9250,-9.511132603,81.26501462,1080.502418
5.9300,-8.629719474,81.16411453,1079.556371
5.9350,-7.751715292,81.06306428,1078.619114
5.9400,-6.877380273,80.9637431,1077.690553
5.9450,-6.006815014,80.8652645,1076.770497
5.9500,-5.140626315,80.76716964,1075.858678
5.9550,-4.278687451,80.66937861,1074.954409
5.9600,-3.420591466,80.57132676,1074.057464
5.9650,-2.566546726,80.47396627,1073.167914
5.9700,-1.7167789,80.37531833,1072.285744
5.9750,-0.8715892439,80.27562827,1071.411091
5.9800,-0.03132752991,80.17463057,1070.543691
5.9850,0.8047133213,80.07203142,1069.682854
5.9900,1.636537091,79.96840408,1068.829488
5.9950,2.463863124,79.86115382,1067.982766
6.0000,3.288002223,79.75214133,1067.143052
6.0050,4.108566717,79.64112776,1066.31028
6.0100,4.925109843,79.52875711,1065.485119
6.0150,5.737928867,79.41345865,1064.667152
6.0200,6.548040171,79.29614099,1063.856604
6.0250,7.355809693,79.17624077,1063.053409
6.0300,8.160877143,79.05356323,1062.25786
6.0350,8.964115427,78.92893366,1061.470599
6.0400,9.766050259,78.80183845,1060.690902
6.0450,10.56682493,78.6706046,1059.919677
6.0500,11.36674005,78.53644302,1059.15638
6.0550,12.16754027,78.39870751,1058.400664
6.0600,12.96911336,78.25902402,1057.653151
6.0650,13.77251948,78.11582857,1056.913414
6.0700,14.57657395,77.96867659,1056.181908
6.0750,15.38247683,77.81824273,1055.458573
6.0800,16.18952892,77.66378052,1054.743548
6.0850,16.9985899,77.50493983,1054.036507
6.0900,17.80854975,77.34257983,1053.338277
6.0950,18.61996541,77.17684196,1052.648639
6.1000,19.43171318,77.00507327,1051.967637
6.1050,20.24311933,76.82978385,1051.295649
6.1100,21.05441274,76.64966036,1050.632328
6.1150,21.86557598,76.46526058,1049.977362
6.1200,22.67784066,76.27548641,1049.330134
6.1250,23.49023091,76.08132463,1048.690794
6.1300,24.30213693,75.88245114,1048.05923
6.1350,25.11445577,75.67946428,1047.435087
6.1400,25.92575394,75.47128306,1046.818398
6.1450,26.73495168,75.2573299,1046.209166
6.1500,27.54122136,75.03970567,1045.607484
6.1550,28.34252854,74.81560462,1045.013409
6.1600,29.13913373,74.58627844,1044.427011
6.1650,29.92918501,74.35233505,1043.848541
6.1700,30.71204954,74.11200091,1043.277712
6.1750,31.48884512,73.86467427,1042.713739
6.1800,32.25695008,73.61116876,1042.157498
6.1850,33.01696284,73.35220677,1041.608258
6.1900,33.76828897,73.08639029,1041.065946
6.1950,34.5099453,72.81597958,1040.530926
6.2000,35.24241512,72.540908,1040.003411
6.2050,35.96519639,72.26095402,1039.48271
6.2100,36.67623759,71.9766401,1038.969401
6.2150,37.37597983,71.68739102,1038.463282
6.2200,38.06461474,71.39384689,1037.964093
6.2250,38.74019659,71.09477954,1037.472158
6.2300,39.40376083,70.79189056,1036.987181
6.2350,40.0545913,70.48519336,1036.508957
6.2400,40.6913576,70.17442699,1036.037851
6.2450,41.31358167,69.8601042,1035.573706
6.2500,41.92216939,69.54295375,1035.116286
6.2550,42.51570897,69.22220383,1034.665299
6.2600,43.09426378,68.90089084,1034.22108
6.2650,43.65854456,68.57704094,1033.782848
6.2700,44.20962264,68.25230405,1033.349933
6.2750,44.7480485,67.9263387,1032.921824
6.2800,45.27445227,67.59956976,1032.498578
6.2850,45.78835963,67.27242337,1032.080303
6.2900,46.29116533,66.94379429,1031.66637
6.2950,46.78296902,66.61365032,1031.256571
6.3000,47.26438944,66.28223054,1030.850791
6.3050,47.73553345,65.94921671,1030.449275
6.3100,48.19810918,65.61536573,1030.051282
6.3150,48.6536863,65.28147705,1029.657075
6.3200,49.10259408,64.94607766,1029.265849
6.3250,49.54669804,64.61167673,1028.877953
6.3300,49.98730695,64.27732411,1028.492729
6.3350,50.42475165,63.94349044,1028.110173
6.3400,50.86041506,63.61054589,1027.730297
6.3450,51.29579232,63.28071946,1027.352775
6.3500,51.73382144,62.95186653,1026.976474
6.3550,52.17262761,62.62538424,1026.601984
6.3600,52.61276548,62.30056391,1026.228935
6.3650,53.05526537,61.97701362,1025.856527
6.3700,53.50129633,61.65597895,1025.484904
6.3750,53.94958223,61.33757097,1025.114174
6.3800,54.40214484,61.02229278,1024.743921
6.3850,54.85986001,60.70978823,1024.373734
6.3900,55.3221338,60.39952247,1024.003324
6.3950,55.78920236,60.09239507,1023.632896
6.4000,56.26052561,59.79025292,1023.262909
6.4050,56.73720608,59.4914807,1022.892959
6.4100,57.21966036,59.19536589,1022.522591
6.4150,57.70657924,58.90262269,1022.152334
6.4200,58.19726661,58.61337292,1021.782378
6.4250,58.69242746,58.32672288,1021.41261
6.4300,59.19194691,58.04258239,1021.043028
6.4350,59.69555938,57.76119598,1020.674023
6.4400,60.20230811,57.48222662,1020.305904
6.4450,60.7128084,57.20565927,1019.938383
6.4500,61.22686487,56.93093131,1019.571905
6.4550,61.74520067,56.65883948,1019.206222
6.4600,62.26677944,56.3873476,1018.841558
6.4650,62.79247752,56.11630228,1018.477975
6.4700,63.32164641,55.84802666,1018.11596
6.4750,63.85427016,55.58196389,1017.755777
6.4800,64.39174603,55.31767035,1017.396871
6.4850,64.93399479,55.05544865,1017.039771
6.4900,65.47958126,54.79489075,1016.684597
6.4950,66.02911218,54.53449041,1016.331112
6.5000,66.58210553,54.27498502,1015.979239
6.5050,67.13770777,54.01571279,1015.629535
6.5100,67.69654845,53.75578804,1015.281775
6.5150,68.25870884,53.49543972,1014.935929
6.5200,68.82214387,53.23386025,1014.592541
6.5250,69.38825719,52.97168805,1014.251585
6.5300,69.95810391,52.70833557,1013.912846
6.5350,70.53167036,52.44298596,1013.576406
6.5400,71.10703896,52.17630417,1013.242905
6.5450,71.68661695,51.9072167,1012.91188
6.5500,72.26809686,51.6361401,1012.583931
6.5550,72.85324494,51.36413462,1012.259205
6.5600,73.44066357,51.0877937,1011.937486
6.5650,74.02946405,50.81004632,1011.619607
6.5700,74.61962301,50.52931134,1011.305317
6.5750,75.20991875,50.24689255,1010.995348
6.5800,75.80045276,49.96277292,1010.689731
6.5850,76.39020918,49.67512832,1010.388241
6.5900,76.97725998,49.38587773,1010.091375
6.5950,77.56236206,49.09629951,1009.799298
6.6000,78.14562249,48.80577735,1009.511499
6.6050,78.72692622,48.51468278,1009.228011
6.6100,79.30501464,48.22209112,1008.948806
6.6150,79.87876028,47.9283748,1008.673827
6.6200,80.44833711,47.6347096,1008.403457
6.6250,81.01225347,47.34074942,1008.137505
6.6300,81.56926007,47.04718479,1007.87626
6.6350,82.11791525,46.75363156,1007.619484
6.6400,82.65669685,46.46202048,1007.367604
6.6450,83.18564259,46.17133816,1007.120217
6.6500,83.70141809,45.88195747,1006.878176
6.6550,84.2051004,45.59445256,1006.641265
6.6600,84.69640152,45.30931542,1006.409326
6.6650,85.17400605,45.0275081,1006.182848
6.6700,85.63656189,44.74855956,1005.961855
6.6750,86.08532679,44.47368699,1005.746354
6.6800,86.51741843,44.20262828,1005.536551
6.6850,86.93069277,43.93579912,1005.333124
6.6900,87.3256539,43.67571993,1005.136247
6.6950,87.70231161,43.42078364,1004.945562
6.7000,88.06085798,43.17110818,1004.760922
6.7050,88.40163033,42.9262636,1004.582155
6.7100,88.7231356,42.68722698,1004.409556
6.7150,89.02805898,42.45376222,1004.242576
6.7200,89.31596544,42.22481618,1004.080996
6.7250,89.58703194,42.00012927,1003.924668
6.7300,89.84377824,41.7798831,1003.772855
6.7350,90.08562535,41.56326865,1003.625265
6.7400,90.31518691,41.35150056,1003.481362
6.7450,90.5326563,41.14298021,1003.340903
6.7500,90.74029482,40.93739686,1003.202894
6.7550,90.93754945,40.73583396,1003.067576
6.7600,91.1275741,40.53891323,1002.933984
6.7650,91.31100444,40.34492749,1002.80133
6.7700,91.48987766,40.15348899,1002.669049
6.7750,91.66419328,39.96468277,1002.536896
6.7800,91.83549202,39.77888306,1002.404504
6.7850,92.00402043,39.59566069,1002.271379
6.7900,92.17160234,39.41503238,1002.137239
6.7950,92.3383807,39.23659284,1002.001809
6.8000,92.50532042,39.06042608,1001.86502
6.8050,92.67456649,38.88628152,1001.726357
6.8100,92.84621281,38.715563,1001.586141
6.8150,93.02113008,38.54621855,1001.443943
6.8200,93.20100602,38.37898311,1001.299725
6.8250,93.38593293,38.21217728,1001.153201
6.8300,93.57636362,38.04538319,1001.004474
6.8350,93.77147833,37.87934381,1000.853902
6.8400,93.97363617,37.71286887,1000.701141
6.8450,94.18194328,37.54534695,1000.546475
6.8500,94.39774086,37.3761131,1000.38984
6.8550,94.62157228,37.20453234,1000.231167
6.8600,94.8535479,37.03184417,1000.071054
6.8650,95.09548294,36.85643016,999.9089835
6.8700,95.34522629,36.67858288,999.7459382
6.8750,95.60392807,36.49782696,999.5815858
6.8800,95.87132994,36.31504068,999.4163625
6.8850,96.14770227,36.13069365,999.2506466
6.8900,96.43365298,35.94424572,999.084382
6.8950,96.72709956,35.75553337,998.9182205
6.9000,97.02663031,35.56576611,998.7526707
6.9050,97.3309337,35.37425376,998.5880365
6.9100,97.64021054,35.18334007,998.4247388
6.9150,97.9526435,34.99325274,998.2634041
6.9200,98.26552714,34.80509897,998.1047457
6.9250,98.57840594,34.6188876,997.948902
6.9300,98.89147216,34.43663819,997.7962069
6.9350,99.20356757,34.25837944,997.6469709
6.9400,99.51447383,34.08400256,997.5013755
6.9450,99.82271102,33.91509998,997.3600044
6.9500,100.1277339,33.75225528,997.2229498
6.9550,100.4297945,33.59631192,997.0901116
6.9600,100.7270731,33.44824408,996.962223
6.9650,101.019101,33.30833796,996.839394
6.9700,101.3058608,33.17764425,996.7217486
6.9750,101.5863512,33.05560944,996.6093323
6.9800,101.861512,32.94271142,996.502267
6.9850,102.1323163,32.84003606,996.400313
6.9900,102.3986509,32.74660271,996.303388
6.9950,102.6602515,32.6632714,996.2117368
7.0000,102.9180351,32.58953995,996.1250005
7.0050,103.170326,32.52724557,996.0437193
7.0100,103.4196206,32.47680741,995.9674075
7.0150,103.663736,32.43647984,995.8963136
7.0200,103.9042659,32.40972209,995.8304016
7.0250,104.1397909,32.3950827,995.7696847
7.0300,104.3685367,32.39295666,995.7144725
7.0350,104.5914337,32.40302195,995.6644031
7.0400,104.8063513,32.42434898,995.6195581
7.0450,105.0123495,32.45804886,995.5801457
7.0500,105.2079725,32.5040869,995.5463519
7.0550,105.3940371,32.56141525,995.5176049
7.0600,105.5669168,32.6296261,995.4944315
7.0650,105.7285829,32.70988266,995.4765274
7.0700,105.8760281,32.79999623,995.4640569
7.0750,106.0095302,32.90095712,995.4568602
7.0800,106.1278799,33.01201833,995.454988
7.0850,106.231309,33.13095279,995.457948
7.0900,106.3189249,33.25890557,995.4658671
7.0950,106.3916268,33.39431108,995.4782657
7.1000,106.4495725,33.53662124,995.4948206
7.1050,106.4933529,33.68628723,995.5154536
7.1100,106.5225587,33.84080697,995.5396967
7.1150,106.5370207,34.00090679,995.5676512
7.1200,106.5370767,34.16488959,995.5989547
7.1250,106.5235773,34.33339375,995.6334851
7.1300,106.4949223,34.50577126,995.6714229
7.1350,106.4518077,34.68082232,995.7125981
7.1400,106.395281,34.85802008,995.7566651
7.1450,106.3239713,35.03724658,995.8037815
7.1500,106.2384005,35.21848009,995.8540017
7.1550,106.1372661,35.399665,995.9072703
7.1600,106.0207219,35.58116996,995.9636375
7.1650,105.88731,35.76034487,996.0231408
7.1700,105.7386296,35.93839435,996.0855864
7.1750,105.5736979,36.1143136,996.1513101
7.1800,105.3921283,36.28659094,996.2202508
7.1850,105.193925,36.45580301,996.292581
7.1900,104.9776219,36.62033123,996.3685672
7.1950,104.7445189,36.77903618,996.4479288
7.2000,104.4958194,36.93245219,996.5309541
7.2050,104.2313721,37.08003313,996.6177637
7.2100,103.9511821,37.22007756,996.7085223
7.2150,103.6568207,37.35322438,996.8031924
7.2200,103.3491024,37.47769964,996.9016579
7.2250,103.027995,37.59489805,997.0044916
7.2300,102.694441,37.70275334,997.1114848
7.2350,102.3499225,37.8020422,997.2227341
7.2400,101.9947313,37.89178798,997.3382317
7.2450,101.6297804,37.97225672,997.4581398
7.2500,101.2560561,38.04515948,997.5828195
7.2550,100.8742059,38.10919102,997.7121704
7.2600,100.4839281,38.16459692,997.846365
7.2650,100.0855567,38.21313942,997.9859292
7.2700,99.68071334,38.25474782,998.1306174
7.2750,99.26743338,38.2907029,998.2811833
7.2800,98.84576429,38.32228881,998.4377982
7.2850,98.41554206,38.35008853,998.6007344
7.2900,97.97643343,38.3753283,998.7702728
7.2950,97.52621338,38.39840042,998.9470404
7.3000,97.06525295,38.42131725,999.1312852
7.3050,96.59296829,38.44350732,999.3230296
7.3100,96.10661099,38.4655336,999.5229936
7.3150,95.60589253,38.48927161,999.7313637
7.3200,95.08969462,38.51370845,999.9484118
7.3250,94.55874389,38.53995496,1000.174143
7.3300,94.01122895,38.56932803,1000.409154
7.3350,93.44707646,38.60153056,1000.653736
7.3400,92.86598078,38.63851841,1000.908296
7.3450,92.26850417,38.67928281,1001.172677
7.3500,91.65476527,38.72419528,1001.447108
7.3550,91.02411321,38.77271243,1001.731835
7.3600,90.37680266,38.82577006,1002.02711
7.3650,89.71146492,38.88351455,1002.333358
7.3700,89.02825238,38.94625604,1002.650671
7.3750,88.32671798,39.01304491,1002.978997
7.3800,87.60709598,39.08365376,1003.318264
7.3850,86.86912209,39.15982264,1003.669136
7.3900,86.11224147,39.23997706,1004.031524
7.3950,85.33627924,39.32517944,1004.40561
7.4000,84.54028108,39.41510871,1004.791854
7.4050,83.72265934,39.50951236,1005.190525
7.4100,82.88493987,39.60845383,1005.601495
7.4150,82.02582055,39.7115902,1006.02495
7.4200,81.14418807,39.81927682,1006.461268
7.4250,80.23885495,39.9304754,1006.910795
7.4300,79.31099178,40.04422993,1007.373163
7.4350,78.36019044,40.16156951,1007.848494
7.4400,77.38548163,40.27992693,1008.337072
7.4450,76.38823946,40.4003581,1008.839217
7.4500,75.36759232,40.52039745,1009.35465
7.4550,74.32377561,40.64158007,1009.884044
7.4600,73.25741517,40.76113146,1010.4271
7.4650,72.16919874,40.88173251,1010.984581
7.4700,71.0594032,41.0011218,1011.556632
7.4750,69.9282337,41.11953771,1012.14339
7.4800,68.77650169,41.23794239,1012.745209
7.4850,67.60505962,41.35460334,1013.362047
7.4900,66.41576619,41.47083514,1013.994081
7.4950,65.20778931,41.58654933,1014.641638
7.5000,63.98195763,41.70084923,1015.304764
7.5050,62.73906495,41.81472448,1015.983368
7.5100,61.48064756,41.92915316,1016.677285
7.5150,60.20639908,42.04314533,1017.386565
7.5200,58.91749989,42.15844274,1018.111138
7.5250,57.61538569,42.27452889,1018.850544
7.5300,56.30037265,42.39314447,1019.604805
7.5350,54.97145086,42.51333814,1020.374293
7.5400,53.63113942,42.63746449,1021.158749
7.5450,52.27942665,42.76554562,1021.958036
7.5500,50.91628578,42.89607798,1022.77184
7.5550,49.5416129,43.03180392,1023.600495
7.5600,48.15785262,43.17268716,1024.443669
7.5650,46.7652946,43.31840697,1025.300792
7.5700,45.36410277,43.46959628,1026.172242
7.5750,43.95695942,43.62714194,1027.057445
7.5800,42.54445384,43.79031625,1027.956287
7.5850,41.12789403,43.95969654,1028.868659
7.5900,39.70734719,44.13407056,1029.794476
7.5950,38.28580888,44.31537325,1030.733397
7.6000,36.8637501,44.50322306,1031.685204
7.6050,35.44175912,44.69753892,1032.64976
7.6100,34.02187359,44.89899903,1033.626741
7.6150,32.60502808,45.10764282,1034.616103
7.6200,31.19171204,45.32322955,1035.617645
7.6250,29.7816897,45.54533578,1036.631443
7.6300,28.37823149,45.77439782,1037.656417
7.6350,26.97981527,46.00871234,1038.692443
7.6400,25.58987839,46.24798424,1039.738458
7.6450,24.2070028,46.49205834,1040.794585
7.6500,22.83136775,46.73976486,1041.860471
7.6550,21.4628894,46.99186748,1042.935875
7.6600,20.10288641,47.24645789,1044.020037
7.6650,18.75148738,47.50230683,1045.112323
7.6700,17.40938948,47.75849282,1046.212545
7.6750,16.07761346,48.0155507,1047.320203
7.6800,14.75620443,48.27219393,1048.435392
7.6850,13.44441645,48.52685703,1049.557681
7.6900,12.14345931,48.77962784,1050.686952
7.6950,10.8529856,49.02853596,1051.82327
7.7000,9.573282068,49.27295917,1052.966057
7.7050,8.305146595,49.51042793,1054.114841
7.7100,7.047458237,49.7419078,1055.270571
7.7150,5.802212325,49.96664715,1056.432527
7.7200,4.568643249,50.18380047,1057.600545
7.7250,3.347243506,50.39362917,1058.774964
7.7300,2.137857754,50.59655777,1059.955868
7.7350,0.9420068666,50.79096928,1061.142927
7.7400,-0.2404281378,50.97784802,1062.336217
7.7450,-1.410680078,51.15742115,1063.535862
7.7500,-2.56842331,51.3291154,1064.741646
7.7550,-3.715207465,51.49422959,1065.953748
7.7600,-4.850212324,51.65262587,1067.170979
7.7650,-5.974586635,51.803963,1068.393481
7.7700,-7.089436772,51.94780367,1069.620889
7.7750,-8.193931111,52.08386226,1070.85284
7.7800,-9.28925321,52.21275086,1072.089827
7.7850,-10.37528281,52.33534497,1073.331332
7.7900,-11.45344279,52.45248396,1074.577458
7.7950,-12.52190771,52.56447653,1075.827446
7.8000,-13.5820084,52.67185014,1077.081532
7.8050,-14.63339974,52.77505164,1078.339428
7.8100,-15.67745287,52.87483959,1079.601258
7.8150,-16.7132397,52.97099339,1080.866521
7.8200,-17.74143636,53.06383521,1082.135397
7.8250,-18.76253001,53.15426893,1083.408321
7.8300,-19.7755739,53.24152111,1084.684945
7.8350,-20.7800901,53.32785202,1085.965129
7.8400,-21.77509427,53.41254129,1087.248684
7.8450,-22.759993,53.49589634,1088.535521
7.8500,-23.73369257,53.57989024,1089.825858
7.8550,-24.69524609,53.6634397,1091.119715
7.8600,-25.64454029,53.74801198,1092.416852
7.8650,-26.57987374,53.83490533,1093.717414
7.8700,-27.50227247,53.92380735,1095.021591
7.8750,-28.40960086,54.01609658,1096.32871
7.8800,-29.30270494,54.11151086,1097.639476
7.8850,-30.18205237,54.21079568,1098.95349
7.8900,-31.04645954,54.31534855,1100.270706
7.8950,-31.8974952,54.42509753,1101.591154
7.9000,-32.73454246,54.53938799,1102.914337
7.9050,-33.5571386,54.65956838,1104.240516
7.9100,-34.36638016,54.78445392,1105.56954
7.9150,-35.16211184,54.9149368,1106.901403
7.9200,-35.94578639,55.05048548,1108.236373
7.9250,-36.71577208,55.1925561,1109.573772
7.9300,-37.47324235,55.3395946,1110.914057
7.9350,-38.21739195,55.49264359,1112.256841
7.9400,-38.95125874,55.65022014,1113.602892
7.9450,-39.67333344,55.81182836,1114.951877
7.9500,-40.38544365,55.97802893,1116.304279
7.9550,-41.08609282,56.14704719,1117.659531
7.9600,-41.77697961,56.31958983,1119.01803
7.9650,-42.45895074,56.49399727,1120.380494
7.9700,-43.13153307,56.67175841,1121.745981
7.9750,-43.79600901,56.85044442,1123.115887
7.9800,-44.4531863,57.02885074,1124.489524
7.9850,-45.10324887,57.20800673,1125.866997
7.9900,-45.74627571,57.38770073,1127.247943
7.9950,-46.38224357,57.56795332,1128.632668
8.0000,-47.01254253,57.74773371,1130.021739
8.0050,-47.63713401,57.92907067,1131.41503
8.0100,-48.25744192,58.11017915,1132.812097
8.0150,-48.87485292,58.2914474,1134.213744
8.0200,-49.48878737,58.47285533,1135.619958
8.0250,-50.10124084,58.654493,1137.030522
8.0300,-50.71249184,58.83629681,1138.44587
8.0350,-51.32455174,59.01834104,1139.866199
8.0400,-51.93742983,59.20079463,1141.29109
8.0450,-52.5516698,59.38339967,1142.720795
8.0500,-53.16701832,59.56804903,1144.155266
8.0550,-53.78213243,59.75400396,1145.59499
8.0600,-54.39824283,59.94078846,1147.041095
8.0650,-55.01475029,60.12909853,1148.492649
8.0700,-55.6315846,60.31997584,1149.949793
8.0750,-56.24876308,60.5131878,1151.412433
8.0800,-56.86684329,60.70719628,1152.880227
8.0850,-57.4856727,60.90329595,1154.353102
8.0900,-58.10373542,61.10027241,1155.83022
8.0950,-58.72273318,61.29883278,1157.312406
8.1000,-59.34160082,61.49848774,1158.798558
8.1050,-59.95999318,61.69907623,1160.288721
8.1100,-60.57701199,61.89988232,1161.783197
8.1150,-61.19257034,62.10134348,1163.281825
8.1200,-61.80542663,62.30356771,1164.783137
8.1250,-62.41375167,62.50487104,1166.286152
8.1300,-63.01808684,62.70681424,1167.792116
8.1350,-63.6172534,62.9078084,1169.299873
8.1400,-64.21183395,63.10861926,1170.810054
8.1450,-64.80198042,63.30838976,1172.32237
8.1500,-65.38747148,63.50680214,1173.836098
8.1550,-65.9677251,63.70450996,1175.351666
8.1600,-66.54144649,63.90143722,1176.8693
8.1650,-67.1089374,64.09692291,1178.388217
8.1700,-67.6673581,64.29192752,1179.908352
8.1750,-68.21867912,64.4850198,1181.429844
8.1800,-68.76192554,64.67770804,1182.951964
8.1850,-69.29658219,64.8695824,1184.475147
8.1900,-69.82323108,65.05993389,1185.998943
8.1950,-70.34019571,65.24919158,1187.52323
8.2000,-70.84810779,65.43672017,1189.048541
8.2050,-71.34732912,65.6220104,1190.574629
8.2100,-71.83655373,65.80669332,1192.101424
8.2150,-72.31601416,65.98899118,1193.628423
8.2200,-72.78556438,66.16820735,1195.1555
8.2250,-73.24684885,66.34418949,1196.683194
8.2300,-73.69896334,66.51666235,1198.210852
8.2350,-74.14243349,66.68567722,1199.738349
8.2400,-74.57692371,66.85125421,1201.266107
8.2450,-75.00299391,67.01406465,1202.793812
8.2500,-75.4202668,67.17262971,1204.321283
8.2550,-75.83070096,67.32781356,1205.849602
8.2600,-76.23292159,67.4797032,1207.378629
8.2650,-76.62631295,67.62825561,1208.907888
8.2700,-77.01089385,67.77337243,1210.438043
8.2750,-77.38647005,67.91452919,1211.968311
8.2800,-77.75311842,68.05320698,1213.499974
8.2850,-78.11096703,68.18876371,1215.032598
8.2900,-78.46041995,68.31909892,1216.566412
8.2950,-78.80451152,68.44545653,1218.102457
8.3000,-79.14164965,68.56929485,1219.639905
8.3050,-79.47429342,68.68760634,1221.179215
8.3100,-79.80334185,68.80139973,1222.719939
8.3150,-80.12856432,68.91037534,1224.262486
8.3200,-80.45028711,69.0153194,1225.806931
8.3250,-80.76737419,69.11649015,1227.352551
8.3300,-81.08078828,69.21419691,1228.899409
8.3350,-81.39091029,69.30792207,1230.447876
8.3400,-81.69841643,69.39655121,1231.996825
8.3450,-82.00233164,69.47999295,1233.546149
8.3500,-82.30322941,69.55795834,1235.096377
8.3550,-82.60277398,69.6286208,1236.647255
8.3600,-82.89980409,69.69592214,1238.199096
8.3650,-83.19450748,69.75781153,1239.751503
8.3700,-83.48621443,69.81596115,1241.303836
8.3750,-83.77651988,69.8695181,1242.856048
8.3800,-84.06509076,69.92007706,1244.408478
8.3850,-84.35313744,69.96628414,1245.96095
8.3900,-84.64080907,70.00897864,1247.512984
8.3950,-84.92719495,70.04923114,1249.065007
8.4000,-85.21228032,70.08734287,1250.616972
8.4050,-85.49435535,70.12357474,1252.168375
8.4100,-85.7737004,70.15885173,1253.718628
8.4150,-86.05076509,70.19365994,1255.267864
8.4200,-86.3250186,70.22761718,1256.816814
8.4250,-86.59779239,70.26210662,1258.365846
8.4300,-86.86924657,70.2965837,1259.913256
8.4350,-87.13877604,70.33169441,1261.460173
8.4400,-87.40679696,70.36637888,1263.006334
8.4450,-87.67321203,70.40051316,1264.551791
8.4500,-87.93679434,70.43491536,1266.096646
8.4550,-88.19756664,70.4699589,1267.640259
8.4600,-88.45591284,70.50476005,1269.182506
8.4650,-88.71064057,70.54015427,1270.723314
8.4700,-88.96220631,70.57759617,1272.263348
8.4750,-89.21057866,70.61747246,1273.802801
8.4800,-89.45359459,70.66057219,1275.341536
8.4850,-89.69019801,70.70713335,1276.879068
8.4900,-89.91927415,70.75806662,1278.415661
8.4950,-90.14120904,70.81204777,1279.951102
8.5000,-90.35607105,70.86995265,1281.485897
8.5050,-90.5624538,70.93283181,1283.020239
8.5100,-90.76055693,70.99950615,1284.553588
8.5150,-90.95054754,71.07078432,1286.086919
8.5200,-91.13266997,71.14800659,1287.619697
8.5250,-91.30536543,71.22950785,1289.15062
8.5300,-91.47011834,71.31460944,1290.679627
8.5350,-91.6264536,71.40281682,1292.207327
8.5400,-91.7746788,71.49263684,1293.732368
8.5450,-91.91532581,71.58243399,1295.254897
8.5500,-92.0482634,71.6704617,1296.774059
8.5550,-92.17286184,71.75502578,1298.288927
8.5600,-92.2885233,71.83512993,1299.799327
8.5650,-92.396936,71.90909906,1301.305791
8.5700,-92.49805209,71.97548484,1302.806922
8.5750,-92.59230281,72.03534935,1304.303524
8.5800,-92.68008871,72.08864948,1305.795596
8.5850,-92.76128657,72.1336543,1307.282699
8.5900,-92.83682739,72.17049228,1308.764967
8.5950,-92.90376773,72.19801156,1310.241008
8.6000,-92.96239443,72.21585497,1311.710717
8.6050,-93.01124224,72.22401698,1313.174518
8.6100,-93.05014296,72.22362814,1314.632019
8.6150,-93.07895756,72.21521188,1316.082799
8.6200,-93.09807917,72.19796994,1317.527266
8.6250,-93.10755524,72.17323141,1318.966611
8.6300,-93.10778202,72.14154957,1320.400646
8.6350,-93.0985648,72.10280725,1321.829019
8.6400,-93.07852651,72.05882284,1323.25323
8.6450,-93.0489478,72.00763885,1324.671477
8.6500,-93.01109939,71.94948097,1326.08549
8.6550,-92.96467314,71.88446501,1327.494733
8.6600,-92.91196834,71.81024416,1328.898851
8.6650,-92.85388569,71.72774003,1330.298868
8.6700,-92.79059955,71.63491969,1331.695522
8.6750,-92.72179989,71.53259833,1333.088815
8.6800,-92.6476017,71.42004419,1334.477598
8.6850,-92.56734499,71.29834807,1335.86258
8.6900,-92.48160046,71.16859423,1337.244326
8.6950,-92.39139584,71.03017437,1338.622463
8.7000,-92.29874881,70.88423101,1339.998146
8.7050,-92.20440791,70.73204406,1341.37131
8.7100,-92.10877016,70.57460984,1342.742501
8.7150,-92.01017328,70.41190821,1344.11072
8.7200,-91.90860294,70.24475551,1345.476365
8.7250,-91.80330549,70.07293749,1346.838693
8.7300,-91.69430811,69.89616355,1348.197815
8.7350,-91.58311398,69.71525707,1349.554037
8.7400,-91.47151327,69.52957643,1350.906238
8.7450,-91.36085151,69.34183141,1352.255694
8.7500,-91.25178799,69.15104911,1353.602408
8.7550,-91.14627195,68.95883359,1354.946942
8.7600,-91.04322264,68.76575098,1356.289692
8.7650,-90.94314389,68.57192481,1357.629976
8.7700,-90.84694442,68.37654688,1358.967444
8.7750,-90.75272639,68.18201257,1360.301789
8.7800,-90.66090279,67.98823858,1361.633422
8.7850,-90.57277325,67.79671715,1362.962159
8.7900,-90.48784888,67.60714945,1364.288539
8.7950,-90.40569352,67.42227028,1365.612427
8.8000,-90.3270898,67.24247455,1366.934505
8.8050,-90.25295135,67.06737623,1368.254707
8.8100,-90.18175386,66.89762675,1369.572927
8.8150,-90.1127318,66.7334794,1370.888543
8.8200,-90.04548108,66.57443313,1372.201608
8.8250,-89.98031799,66.42155361,1373.513548
8.8300,-89.91466544,66.27399015,1374.823541
8.8350,-89.84888414,66.13268676,1376.13168
8.8400,-89.78224679,65.99756433,1377.437883
8.8450,-89.71216687,65.86961418,1378.74201
8.8500,-89.6372973,65.74940992,1380.043698
8.8550,-89.55755962,65.63515246,1381.342176
8.8600,-89.47406904,65.5263592,1382.637401
8.8650,-89.38524022,65.42394886,1383.927697
8.8700,-89.29190047,65.3259825,1385.213716
8.8750,-89.19419323,65.23176976,1386.49501
8.8800,-89.09203837,65.14056099,1387.770452
8.8850,-88.98554122,65.05220623,1389.039451
8.8900,-88.87410834,64.96708932,1390.302277
8.8950,-88.75840631,64.88436836,1391.558388
8.9000,-88.63955334,64.80434053,1392.808628
8.9050,-88.51650534,64.72912824,1394.051951
8.9100,-88.38829564,64.65733078,1395.288519
8.9150,-88.25558623,64.58964092,1396.518118
8.9200,-88.11713023,64.52740699,1397.740215
8.9250,-87.97286737,64.46787473,1398.952622
8.9300,-87.82158834,64.41153397,1400.155864
8.9350,-87.66339313,64.35874247,1401.350399
8.9400,-87.4998132,64.30950765,1402.536262
8.9450,-87.33019083,64.26346092,1403.714578
8.9500,-87.15331838,64.22021773,1404.883351
8.9550,-86.96885685,64.18071864,1406.042324
8.9600,-86.77477747,64.14540825,1407.191982
8.9650,-86.57169086,64.11200261,1408.331923
8.9700,-86.35982095,64.08142219,1409.46175
8.9750,-86.13894468,64.0535094,1410.581437
8.9800,-85.90879808,64.02868793,1411.69114
8.9850,-85.67094152,64.00603016,1412.79125
8.9900,-85.42453694,63.98374838,1413.881786
8.9950,-85.16927218,63.96313633,1414.962146
9.0000,-84.9051498,63.94227042,1416.030938
9.0050,-84.63363428,63.92230691,1417.089573
9.0100,-84.35574532,63.90108451,1418.137876
9.0150,-84.07371797,63.88046721,1419.17766
9.0200,-83.78886182,63.86102926,1420.209456
9.0250,-83.50216438,63.84406535,1421.234186
9.0300,-83.2139908,63.82972376,1422.252622
9.0350,-82.92473273,63.81789697,1423.263958
9.0400,-82.63322674,63.8081769,1424.268315
9.0450,-82.33905008,63.79996355,1425.265558
9.0500,-82.04335436,63.79413165,1426.255292
9.0550,-81.74551417,63.78987126,1427.237491
9.0600,-81.44716462,63.78692707,1428.212099
9.0650,-81.14952843,63.78491994,1429.18039
9.0700,-80.85218827,63.78449796,1430.142072
9.0750,-80.55668856,63.78469951,1431.097622
9.0800,-80.26288433,63.78509757,1432.047424
9.0850,-79.96928526,63.78733014,1432.992723
9.0900,-79.67471377,63.79203095,1433.932608
9.0950,-79.37972948,63.79765254,1434.866665
9.1000,-79.08165767,63.80559263,1435.794279
9.1050,-78.7805793,63.81428621,1436.714629
9.1100,-78.47828563,63.82462652,1437.628678
9.1150,-78.17476637,63.83589748,1438.536
9.1200,-77.86921377,63.84724635,1439.436445
9.1250,-77.56131249,63.85742691,1440.329735
9.1300,-77.25115337,63.86850506,1441.217313
9.1350,-76.93952428,63.88020858,1442.098139
9.1400,-76.62520627,63.89253437,1442.972078
9.1450,-76.30889094,63.90451929,1443.839237
9.1500,-75.99192221,63.91599171,1444.699122
9.1550,-75.67465316,63.92790398,1445.55231
9.1600,-75.35707023,63.93849398,1446.398153
9.1650,-75.04010577,63.94863372,1447.237486
9.1700,-74.72383373,63.95836867,1448.069753
9.1750,-74.40797596,63.96848205,1448.894707
9.1800,-74.0902075,63.97891145,1449.711501
9.1850,-73.77148057,63.98963876,1450.521401
9.1900,-73.45153968,64.00030675,1451.32267
9.1950,-73.13128167,64.01098465,1452.116426
9.2000,-72.81073204,64.0226454,1452.900953
9.2050,-72.49048523,64.03462171,1453.676133
9.2100,-72.16914118,64.04756112,1454.441987
9.2150,-71.84560084,64.0601728,1455.198467
9.2200,-71.51973914,64.07228182,1455.945441
9.2250,-71.19088453,64.08590847,1456.683713
9.2300,-70.85921825,64.09900673,1457.412305
9.2350,-70.52341024,64.11248051,1458.130834
9.2400,-70.18176478,64.12610884,1458.838896
9.2450,-69.83522945,64.14035165,1459.536717
9.2500,-69.48427951,64.1542664,1460.224552
9.2550,-69.12984061,64.16754216,1460.902847
9.2600,-68.77365765,64.17895384,1461.571411
9.2650,-68.41459642,64.18910959,1462.23049
9.2700,-68.05372291,64.19682162,1462.880576
9.2750,-67.69137305,64.20174847,1463.521851
9.2800,-67.32905711,64.20246908,1464.154803
9.2850,-66.96618288,64.19983132,1464.779301
9.2900,-66.60437932,64.19420086,1465.395236
9.2950,-66.24295404,64.184917,1466.003525
9.3000,-65.88166867,64.17349962,1466.605275
9.3050,-65.52068604,64.15885291,1467.20002
9.3100,-65.15982695,64.14205651,1467.788622
9.3150,-64.79911316,64.1225637,1468.370782
9.3200,-64.43779797,64.09976256,1468.94581
9.3250,-64.07514777,64.07437932,1469.514646
9.3300,-63.71186185,64.04582841,1470.07758
9.3350,-63.34743044,64.01514494,1470.635522
9.3400,-62.98219499,63.98299604,1471.189593
9.3450,-62.61538068,63.9485214,1471.738319
9.3500,-62.24688915,63.91200958,1472.283915
9.3550,-61.87535184,63.871771,1472.825932
9.3600,-61.50076641,63.83021174,1473.364564
9.3650,-61.12158102,63.78729517,1473.900129
9.3700,-60.73832543,63.7436479,1474.433103
9.3750,-60.34873988,63.69888131,1474.963675
9.3800,-59.95508027,63.65392679,1475.492039
9.3850,-59.55743132,63.60723816,1476.017505
9.3900,-59.15638573,63.55957386,1476.54116
9.3950,-58.75340081,63.51080426,1477.0635
9.4000,-58.34915454,63.46056759,1477.58414
9.4050,-57.94477571,63.41073447,1478.105105
9.4100,-57.53884639,63.36127908,1478.625315
9.4150,-57.13197745,63.3134748,1479.145148
9.4200,-56.72361835,63.26794693,1479.664914
9.4250,-56.31399578,63.22685539,1480.18427
9.4300,-55.90372271,63.18874008,1480.70311
9.4350,-55.49108756,63.15332882,1481.221543
9.4400,-55.077361,63.12082137,1481.739276
9.4450,-54.66241301,63.09123561,1482.255918
9.4500,-54.24508262,63.06428961,1482.771651
9.4550,-53.82634166,63.03928453,1483.286209
9.4600,-53.40662331,63.01770842,1483.79939
9.4650,-52.98511514,62.99751026,1484.310407
9.4700,-52.56259425,62.97956433,1484.819425
9.4750,-52.13960895,62.96250703,1485.325049
9.4800,-51.71862069,62.94531172,1485.828975
9.4850,-51.29916438,62.92893464,1486.329678
9.4900,-50.8807374,62.91316068,1486.828666
9.4950,-50.46420916,62.89955125,1487.324636
9.5000,-50.04695903,62.8868968,1487.818581
9.5050,-49.63001919,62.87572282,1488.310291
9.5100,-49.21292424,62.86522342,1488.799335
9.5150,-48.79648019,62.85716921,1489.286291
9.5200,-48.38103517,62.85030887,1489.770678
9.5250,-47.96577326,62.84492579,1490.253143
9.5300,-47.55105864,62.84082381,1490.734016
9.5350,-47.13714058,62.83747066,1491.213258
9.5400,-46.72525774,62.8342483,1491.691407
9.5450,-46.31373699,62.83194863,1492.168393
9.5500,-45.90272836,62.82898347,1492.643743
9.5550,-45.49118712,62.82490172,1493.116959
9.5600,-45.07803597,62.81942256,1493.588562
9.5650,-44.66460057,62.81115748,1494.057666
9.5700,-44.24981338,62.79931228,1494.523727
9.5750,-43.83457443,62.78389431,1494.987314
9.5800,-43.41648195,62.76553551,1495.447857
9.5850,-42.99637694,62.74355488,1495.90454
9.5900,-42.57320276,62.71791539,1496.357935
9.5950,-42.14889306,62.68725541,1496.807315
9.6000,-41.72291146,62.65202744,1497.252668
9.6050,-41.29411613,62.61179207,1497.69368
9.6100,-40.86335587,62.56621626,1498.128924
9.6150,-40.43040493,62.51456101,1498.558853
9.6200,-39.99593158,62.45771485,1498.983672
9.6250,-39.55962003,62.39443945,1499.402314
9.6300,-39.12160082,62.32597679,1499.815994
9.6350,-38.68077805,62.25171414,1500.224432
9.6400,-38.2368824,62.17189151,1500.627684
9.6450,-37.79151946,62.08753777,1501.026563
9.6500,-37.34345112,61.99806898,1501.420378
9.6550,-36.89369623,61.90672794,1501.809703
9.6600,-36.4409192,61.8119566,1502.194588
9.6650,-35.98556902,61.71516097,1502.575206
9.6700,-35.52683739,61.61466038,1502.951021
9.6750,-35.065626,61.5112374,1503.322154
9.6800,-34.60019587,61.40440194,1503.688352
9.6850,-34.13123481,61.29459332,1504.050386
9.6900,-33.66066402,61.1802571,1504.407591
9.6950,-33.18735312,61.06338186,1504.761247
9.7000,-32.71160052,60.94301053,1505.110854
9.7050,-32.2314317,60.82031827,1505.456113
9.7100,-31.74894669,60.69400096,1505.797979
9.7150,-31.26433842,60.56529975,1506.137079
9.7200,-30.77755759,60.43474108,1506.473071
9.7250,-30.28861063,60.30191889,1506.805925
9.7300,-29.79751567,60.16839851,1507.135649
9.7350,-29.30474557,60.03407371,1507.462414
9.7400,-28.81001261,59.90037503,1507.786846
9.7450,-28.31435675,59.76689192,1508.108782
9.7500,-27.81859158,59.63485394,1508.428983
9.7550,-27.32205546,59.50424387,1508.74705
9.7600,-26.82233721,59.37549097,1509.063407
9.7650,-26.31961692,59.24830031,1509.37813
9.7700,-25.8137426,59.12199085,1509.69101
9.7750,-25.30306293,58.99720822,1510.003047
9.7800,-24.78788882,58.87428293,1510.313587
9.7850,-24.26813757,58.75132937,1510.622683
9.7900,-23.74510866,58.62894596,1510.930391
9.7950,-23.21623498,58.50558393,1511.237366
9.8000,-22.6835282,58.38136302,1511.543827
9.8050,-22.14562578,58.25602297,1511.850752
9.8100,-21.6033318,58.13016382,1512.158558
9.8150,-21.05533909,58.00247809,1512.466613
9.8200,-20.50187764,57.87259851,1512.775892
9.8250,-19.94521027,57.74054954,1513.086494
9.8300,-19.38467435,57.60561456,1513.398293
9.8350,-18.82213019,57.46763604,1513.712055
9.8400,-18.25645314,57.32682514,1514.027704
9.8450,-17.6888766,57.18234522,1514.345624
9.8500,-17.11805239,57.03547957,1514.666555
9.8550,-16.54629283,56.88498661,1514.991023
9.8600,-15.97594555,56.73092545,1515.318657
9.8650,-15.40736187,56.57536387,1515.650796
9.8700,-14.84209008,56.41816243,1515.987716
9.8750,-14.28045008,56.25959949,1516.329044
9.8800,-13.72554701,56.10019655,1516.675256
9.8850,-13.17676454,55.94118118,1517.026816
9.8900,-12.63612863,55.78152405,1517.382389
9.8950,-12.10366105,55.62335268,1517.741973
9.9000,-11.58008868,55.46747572,1518.105486
9.9050,-11.06768457,55.31347785,1518.472451
9.9100,-10.56660275,55.16324475,1518.843264
9.9150,-10.07828806,55.01754955,1519.217178
9.9200,-9.602625083,54.87564901,1519.593738
9.9250,-9.142329002,54.73915952,1519.973603
9.9300,-8.69730602,54.60883384,1520.355367
9.9350,-8.268662968,54.48515221,1520.738268
9.9400,-7.856741959,54.36904863,1521.122044
9.9450,-7.461169609,54.26129356,1521.506278
9.9500,-7.083579838,54.16127712,1521.889968
9.9550,-6.722720152,54.06995472,1522.273278
9.9600,-6.380316107,53.98853064,1522.656076
9.9650,-6.055883005,53.91682057,1523.037368
9.9700,-5.750938378,53.85686252,1523.417075
9.9750,-5.464726699,53.80877566,1523.794652
9.9800,-5.197400368,53.77331318,1524.1698
9.9850,-4.948668357,53.75009507,1524.541768
9.9900,-4.717189168,53.74108055,1524.911334
9.9950,-4.503063605,53.74578182,1525.277042
10.0000,-4.304731265,53.76467876,1525.63893
10.0050,-4.123564979,53.79645917,1525.995814
10.0100,-3.957919278,53.84195614,1526.347457
10.0150,-3.80697296,53.90079537,1526.693303
10.0200,-3.671244141,53.97211867,1527.033088
10.0250,-3.549559084,54.05623896,1527.366299
10.0300,-3.44094838,54.15306906,1527.692476
10.0350,-3.346121105,54.26063908,1528.010264
10.0400,-3.262910773,54.37741759,1528.319493
10.0450,-3.191326832,54.50406245,1528.619569
10.0500,-3.131104766,54.63936121,1528.90978
10.0550,-3.080108995,54.78227975,1529.18974
10.0600,-3.040359132,54.9317444,1529.458709
10.0650,-3.011327693,55.08803478,1529.717164
10.0700,-2.991716102,55.25032965,1529.965051
10.0750,-2.982249677,55.41733253,1530.201834
10.0800,-2.983921895,55.58806925,1530.427161
10.0850,-2.995267541,55.76244187,1530.641036
10.0900,-3.01652545,55.93906964,1530.842794
10.0950,-3.048342444,56.11908185,1531.033409
10.1000,-3.08962927,56.30084367,1531.212067
10.1050,-3.140225383,56.48381384,1531.378392
10.1100,-3.200533374,56.66839267,1531.532801
10.1150,-3.270862651,56.85376034,1531.675445
10.1200,-3.350462611,57.04094889,1531.805936
10.1250,-3.437983714,57.22911818,1531.924003
10.1300,-3.534218217,57.41844825,1532.03038
10.1350,-3.637152279,57.60977717,1532.124657
10.1400,-3.747428237,57.80190567,1532.20697
10.1450,-3.865230366,57.99567953,1532.277915
10.1500,-3.991841821,58.19109508,1532.338185
10.1550,-4.125981167,58.39057248,1532.387743
10.1600,-4.266360939,58.59345653,1532.426354
10.1650,-4.41250524,58.7993309,1532.453623
10.1700,-4.565520323,59.0085524,1532.469595
10.1750,-4.725209854,59.22229661,1532.474399
10.1800,-4.890204093,59.44067971,1532.468248
10.1850,-5.062069741,59.66281783,1532.450946
10.1900,-5.240360124,59.88946286,1532.423329
10.1950,-5.426184268,60.12105112,1532.38593
10.2000,-5.618559107,60.35634714,1532.337665
10.2050,-5.818116116,60.59689386,1532.279555
10.2100,-6.024995289,60.84191107,1532.211462
10.2150,-6.237599071,61.09238061,1532.133618
10.2200,-6.457856679,61.34859255,1532.04661
10.2250,-6.684658707,61.61027431,1531.949887
10.2300,-6.917572017,61.87690157,1531.843417
10.2350,-7.156333921,62.14943358,1531.7279
10.2400,-7.402071003,62.42799646,1531.60361
10.2450,-7.653517434,62.71233725,1531.470457
10.2500,-7.910105357,63.00357273,1531.328845
10.2550,-8.1722616,63.29983219,1531.177988
10.2600,-8.439480921,63.60162862,1531.018224
10.2650,-8.712026192,63.9091109,1530.849733
10.2700,-8.988790935,64.22181067,1530.672707
10.2750,-9.270814189,64.54053976,1530.48775
10.2800,-9.557331444,64.8654349,1530.294161
10.2850,-9.848509968,65.19550197,1530.091842
10.2900,-10.14348405,65.53144169,1529.880623
10.2950,-10.44208272,65.87313023,1529.660946
10.3000,-10.74534686,66.22070996,1529.433026
10.3050,-11.05323916,66.57360049,1529.19764
10.3100,-11.36680222,66.93241973,1528.954779
10.3150,-11.68518028,67.29451646,1528.70352
10.3200,-12.00863766,67.66256422,1528.444312
10.3250,-12.33872079,68.03473677,1528.177709
10.3300,-12.67526827,68.41024124,1527.90347
10.3350,-13.01671515,68.79018146,1527.622032
10.3400,-13.3652258,69.17372235,1527.332688
10.3450,-13.71948318,69.55966997,1527.035636
10.3500,-14.08022091,69.94764509,1526.731584
10.3550,-14.44766437,70.33860089,1526.420347
10.3600,-14.82081012,70.7311806,1526.102068
10.3650,-15.20064259,71.12467558,1525.776925
10.3700,-15.58687523,71.51881718,1525.444739
10.3750,-15.9794064,71.91346188,1525.10615
10.3800,-16.37696193,72.30839712,1524.761155
10.3850,-16.78046592,72.7036022,1524.410324
10.3900,-17.18876399,73.0989118,1524.053881
10.3950,-17.60198674,73.49280764,1523.690374
10.4000,-18.01899515,73.88516866,1523.320022
10.4050,-18.44127908,74.27599182,1522.943325
10.4100,-18.86703185,74.66353053,1522.560084
10.4150,-19.29691478,75.04815796,1522.170473
10.4200,-19.73106726,75.42892078,1521.775248
10.4250,-20.16974128,75.80608206,1521.374529
10.4300,-20.61138333,76.17933425,1520.968101
10.4350,-21.05623609,76.54730966,1520.556298
10.4400,-21.5044944,76.91203068,1520.139898
10.4450,-21.95594415,77.27088109,1519.718236
10.4500,-22.41025474,77.62498804,1519.291655
10.4550,-22.86659105,77.97296867,1518.860091
10.4600,-23.32510025,78.31476762,1518.424195
10.4650,-23.78470638,78.64982592,1517.983809
10.4700,-24.24442414,78.97881688,1517.539805
10.4750,-24.70368495,79.29986944,1517.091887
10.4800,-25.16379924,79.61263809,1516.640721
10.4850,-25.62331313,79.91792832,1516.186591
10.4900,-26.08219806,80.21605849,1515.729417
10.4950,-26.5394109,80.50582647,1515.269315
10.5000,-26.99664969,80.78737882,1514.807329
10.5050,-27.45226607,81.06150345,1514.343526
10.5100,-27.90608924,81.32753153,1513.877941
10.5150,-28.35803544,81.58537329,1513.41103
10.5200,-28.80764898,81.83608921,1512.942173
10.5250,-29.25470737,82.0786876,1512.471564
10.5300,-29.70085946,82.3137492,1511.998996
10.5350,-30.14617063,82.53889908,1511.524848
10.5400,-30.5884934,82.75571179,1511.048171
10.5450,-31.0291664,82.96438989,1510.569009
10.5500,-31.46819108,83.16466426,1510.087039
10.5550,-31.90571417,83.35779959,1509.60249
10.5600,-32.34236554,83.54285792,1509.114981
10.5650,-32.77816506,83.72079366,1508.624952
10.5700,-33.21271447,83.89239793,1508.13201
10.5750,-33.64656434,84.05769804,1507.636565
10.5800,-34.08048448,84.21754122,1507.139485
10.5850,-34.51389039,84.3724235,1506.640211
10.5900,-34.94809545,84.52226798,1506.139335
10.5950,-35.38124209,84.66801001,1505.635858
10.6000,-35.81397716,84.80990309,1505.130448
10.6050,-36.24529146,84.94858372,1504.621949
10.6100,-36.67390101,85.08299529,1504.110045
10.6150,-37.10168507,85.21492342,1503.594937
10.6200,-37.52749325,85.34231943,1503.076425
10.6250,-37.95173098,85.4656996,1502.554328
10.6300,-38.3759538,85.58505169,1502.028979
10.6350,-38.79989204,85.70029226,1501.500346
10.6400,-39.22438675,85.81133662,1500.968338
10.6450,-39.64866631,85.9196832,1500.433253
10.6500,-40.07364311,86.02416369,1499.894516
10.6550,-40.49942343,86.12531518,1499.352186
10.6600,-40.92616432,86.22202214,1498.806231
10.6650,-41.35354814,86.31665569,1498.256362
10.6700,-41.78272807,86.4080614,1497.702007
10.6750,-42.2138935,86.49598466,1497.142184
10.6800,-42.64726485,86.58035811,1496.576995
10.6850,-43.0821468,86.66074944,1496.006162
10.6900,-43.51795463,86.7388367,1495.429963
10.6950,-43.95643092,86.81429342,1494.849081
10.7000,-44.39803701,86.88874594,1494.262998
10.7050,-44.84125671,86.96123252,1493.671194
10.7100,-45.28764197,87.03253457,1493.074161
10.7150,-45.73534843,87.10262179,1492.471872
10.7200,-46.18473047,87.17271146,1491.863665
10.7250,-46.6356319,87.24211844,1491.250086
10.7300,-47.08817342,87.31102789,1490.6311
10.7350,-47.54179618,87.37976711,1490.006014
10.7400,-47.99626679,87.44734891,1489.374553
10.7450,-48.45141996,87.5145968,1488.736683
10.7500,-48.90777212,87.58084274,1488.092144
10.7550,-49.36685532,87.64433656,1487.441059
10.7600,-49.82751628,87.70710481,1486.783648
10.7650,-50.29039643,87.76827995,1486.119487
10.7700,-50.75559312,87.82693025,1485.447564
10.7750,-51.22263379,87.88487607,1484.768841
10.7800,-51.69091626,87.942618,1484.082694
10.7850,-52.1613151,88.000135,1483.389656
10.7900,-52.63244228,88.0574085,1482.690116
10.7950,-53.10521687,88.11489498,1481.983481
10.8000,-53.57868994,88.17369796,1481.269794
10.8050,-54.05248954,88.23246116,1480.548406
10.8100,-54.52658467,88.29336166,1479.820051
10.8150,-55.00191845,88.35640186,1479.084478
10.8200,-55.47779656,88.4202296,1478.341759
10.8250,-55.95446877,88.48619394,1477.591843
10.8300,-56.42986435,88.55381379,1476.835245
10.8350,-56.90412351,88.62432416,1476.071141
10.8400,-57.37954965,88.69750091,1475.300074
10.8450,-57.85463779,88.77316154,1474.522521
10.8500,-58.32834806,88.85309336,1473.737902
10.8550,-58.80063854,88.93521658,1472.946092
10.8600,-59.26991778,89.02113841,1472.146994
10.8650,-59.73560962,89.11094439,1471.340838
10.8700,-60.19872225,89.20388992,1470.527714
10.8750,-60.65792689,89.29896667,1469.706885
10.8800,-61.11233958,89.39608387,1468.878634
10.8850,-61.56221984,89.49664332,1468.043831
10.8900,-62.00669461,89.59993453,1467.202026
10.8950,-62.44709773,89.70620108,1466.354435
10.9000,-62.88274421,89.81447125,1465.500401
10.9050,-63.31327765,89.9252427,1464.640964
10.9100,-63.73927459,90.03812256,1463.776217
10.9150,-64.15907348,90.15387491,1462.906758
10.9200,-64.57275512,90.27237635,1462.032891
10.9250,-64.97835107,90.39445169,1461.154635
10.9300,-65.37498308,90.5181827,1460.271299
10.9350,-65.76385801,90.64431285,1459.383941
10.9400,-66.14408135,90.7727572,1458.492752
10.9450,-66.51603389,90.90223288,1457.597241
10.9500,-66.87879717,91.03265657,1456.696449
10.9550,-67.23239484,91.16378398,1455.791059
10.9600,-67.57819942,91.29544831,1454.881253
10.9650,-67.91716003,91.42573667,1453.966319
10.9700,-68.24954346,91.55392696,1453.046746
10.9750,-68.57623629,91.68025263,1452.122795
10.9800,-68.89794166,91.80428503,1451.194299
10.9850,-69.21621468,91.92656704,1450.261598
10.9900,-69.53230765,92.04687878,1449.323993
10.9950,-69.84600108,92.16598058,1448.38207
11.0000,-70.15705372,92.28384707,1447.436063
11.0050,-70.46568048,92.40130603,1446.485728
11.0100,-70.77139472,92.52076047,1445.531489
11.0150,-71.07523156,92.64130896,1444.572381
11.0200,-71.37831293,92.76375762,1443.60931
11.0250,-71.67893496,92.88809167,1442.641422
11.0300,-71.97851478,93.01503181,1441.668961
11.0350,-72.27773054,93.14459028,1440.691881
11.0400,-72.57587929,93.2763183,1439.709397
11.0450,-72.87281898,93.41073205,1438.721368
11.0500,-73.16772849,93.54895892,1437.728149
11.0550,-73.46030444,93.69052718,1436.72928
11.0600,-73.75085554,93.83517815,1435.724385
11.0650,-74.04055876,93.98402163,1434.714013
11.0700,-74.32808238,94.13839144,1433.698123
11.0750,-74.61482206,94.29727362,1432.675986
11.0800,-74.90115511,94.45965064,1431.64732
11.0850,-75.18520649,94.6267295,1430.611113
11.0900,-75.46830474,94.79859844,1429.566776
11.0950,-75.74997838,94.97355236,1428.514043
11.1000,-76.02956346,95.15229218,1427.452988
11.1050,-76.30821657,95.33484571,1426.382939
11.1100,-76.58554636,95.51974228,1425.304063
11.1150,-76.86199967,95.70780962,1424.215383
11.1200,-77.13690084,95.89947344,1423.11725
11.1250,-77.4116085,96.09464104,1422.009709
11.1300,-77.68560667,96.29388474,1420.892213
11.1350,-77.9582352,96.49801013,1419.765121
11.1400,-78.22905227,96.70578919,1418.628181
11.1450,-78.49723736,96.91857747,1417.481131
11.1500,-78.76334528,97.13425403,1416.324306
11.1550,-79.0265862,97.35400898,1415.157278
11.1600,-79.28671169,97.57719608,1413.979942
11.1650,-79.54388621,97.80309632,1412.791127
11.1700,-79.79679108,98.03146828,1411.591447
11.1750,-80.04538304,98.26146137,1410.380697
11.1800,-80.28988661,98.49272294,1409.158672
11.1850,-80.52955592,98.72444722,1407.925409
11.1900,-80.76470049,98.95606756,1406.681661
11.1950,-80.99443357,99.18609763,1405.426894
11.2000,-81.21872042,99.4147576,1404.162016
11.2050,-81.43685385,99.64125129,1402.886921
11.2100,-81.6479416,99.86591192,1401.602087
11.2150,-81.85165121,100.0879703,1400.307427
11.2200,-82.04733857,100.3066988,1399.002906
11.2250,-82.23592654,100.5214294,1397.68906
11.2300,-82.41798606,100.7331656,1396.366734
11.2350,-82.59230411,100.9404529,1395.035561
11.2400,-82.7588485,101.1418343,1393.695351
11.2450,-82.91894484,101.33712,1392.346825
11.2500,-83.07161879,101.527723,1390.990793
11.2550,-83.21679302,101.7110555,1389.627486
11.2600,-83.35553959,101.8884518,1388.257576
11.2650,-83.48604186,102.0595106,1386.882029
11.2700,-83.60854829,102.2261898,1385.500647
11.2750,-83.72432725,102.3866527,1384.113576
11.2800,-83.83240215,102.5420515,1382.721572
11.2850,-83.9326091,102.6920636,1381.32439
11.2900,-84.02466795,102.8355087,1379.922303
11.2950,-84.10796796,102.9710031,1378.514605
11.3000,-84.18332603,103.098907,1377.101844
11.3050,-84.25172088,103.2189549,1375.684208
11.3100,-84.3128472,103.3303081,1374.261541
11.3150,-84.36739329,103.4343017,1372.834922
11.3200,-84.41458888,103.5303742,1371.404845
11.3250,-84.45471866,103.6189051,1369.970768
11.3300,-84.48724337,103.7012111,1368.53352
11.3350,-84.51207695,103.7784575,1367.093082
11.3400,-84.53012563,103.8509677,1365.64995
11.3450,-84.53940652,103.9196996,1364.205018
11.3500,-84.54124371,103.9838873,1362.757109
11.3550,-84.53340714,104.0467336,1361.307091
11.3600,-84.51735945,104.1076797,1359.854325
11.3650,-84.49139597,104.1668261,1358.398962
11.3700,-84.45690478,104.2234986,1356.940529
11.3750,-84.41410436,104.2778249,1355.479406
11.3800,-84.36238294,104.330647,1354.015838
11.3850,-84.30507883,104.3802416,1352.550334
11.3900,-84.24194564,104.4264268,1351.082964
11.3950,-84.17363959,104.4708772,1349.61482
11.4000,-84.10210443,104.5126591,1348.144629
11.4050,-84.02807688,104.5541046,1346.674165
11.4100,-83.95129393,104.595286,1345.20254
11.4150,-83.87153715,104.6363176,1343.730623
11.4200,-83.78857533,104.6784766,1342.258249
11.4250,-83.70120624,104.7222871,1340.785895
11.4300,-83.61047396,104.7668599,1339.313402
11.4350,-83.51644653,104.8128478,1337.840418
11.4400,-83.41849381,104.861541,1336.367519
11.4450,-83.31821201,104.9118922,1334.894639
11.4500,-83.21535291,104.9642041,1333.422068
11.4550,-83.1104473,105.0192107,1331.949712
11.4600,-83.00446236,105.076763,1330.478222
11.4650,-82.89789123,105.1378384,1329.008157
11.4700,-82.79204198,105.2021901,1327.540072
11.4750,-82.68712499,105.2711305,1326.073762
11.4800,-82.58257927,105.345251,1324.609187
11.4850,-82.47768528,105.4256815,1323.146625
11.4900,-82.37134263,105.5124819,1321.685551
11.4950,-82.26415972,105.6053409,1320.225703
11.5000,-82.15575576,105.7055528,1318.766533
11.5050,-82.04628145,105.8122312,1317.307332
11.5100,-81.93648766,105.9237828,1315.847692
11.5150,-81.82675562,106.04028,1314.387352
11.5200,-81.71966982,106.1600972,1312.926059
11.5250,-81.61517983,106.2823616,1311.463072
11.5300,-81.51381914,106.4066187,1309.998589
11.5350,-81.41561832,106.5337039,1308.53259
11.5400,-81.32208883,106.6630888,1307.06499
11.5450,-81.23126201,106.794936,1305.596253
11.5500,-81.14278201,106.9276874,1304.126424
11.5550,-81.05686243,107.0632756,1302.654929
11.5600,-80.97136163,107.2013225,1301.180813
11.5650,-80.88725785,107.3414647,1299.703445
11.5700,-80.80341618,107.4827049,1298.223638
11.5750,-80.71921906,107.626223,1296.741744
11.5800,-80.6331196,107.7710507,1295.257848
11.5850,-80.54552416,107.9182604,1293.771566
11.5900,-80.45601648,108.0675766,1292.283214
11.5950,-80.36397874,108.2203248,1290.793949
11.6000,-80.27039782,108.3760776,1289.303884
11.6050,-80.17330406,108.5348998,1287.81348
11.6100,-80.07257759,108.6956137,1286.322952
11.6150,-79.96667268,108.858419,1284.83229
11.6200,-79.85358584,109.0212261,1283.341063
11.6250,-79.73374536,109.1853955,1281.850277
11.6300,-79.60541301,109.3492714,1280.359208
11.6350,-79.46948978,109.5118266,1278.868874
11.6400,-79.32412026,109.6735892,1277.379243
11.6450,-79.17042899,109.8343432,1275.88999
11.6500,-79.00777484,109.9930791,1274.401375
11.6550,-78.83658711,110.1491702,1272.912948
11.6600,-78.65612679,110.3010319,1271.42505
11.6650,-78.46712713,110.4490242,1269.937688
11.6700,-78.26937963,110.5945308,1268.451352
11.6750,-78.06286398,110.7356407,1266.965853
11.6800,-77.84844322,110.8725522,1265.480767
11.6850,-77.62490324,111.0056992,1263.996872
11.6900,-77.39333952,111.1347411,1262.513668
11.6950,-77.15277299,111.2594782,1261.030742
11.7000,-76.90309927,111.3801334,1259.548396
11.7050,-76.64330712,111.4962115,1258.065233
11.7100,-76.37362517,111.608239,1256.582087
11.7150,-76.09508098,111.7161024,1255.098389
11.7200,-75.80875963,111.8199923,1253.614901
11.7250,-75.51401439,111.9187836,1252.131337
11.7300,-75.21098809,112.0157213,1250.649152
11.7350,-74.90040411,112.1097693,1249.16735
11.7400,-74.58431653,112.1993361,1247.686195
11.7450,-74.26233138,112.2850376,1246.205124
11.7500,-73.93529857,112.3677256,1244.724624
11.7550,-73.60348664,112.4466125,1243.244388
11.7600,-73.26739604,112.5223075,1241.763524
11.7650,-72.92807465,112.5943348,1240.282609
11.7700,-72.58379785,112.6633302,1238.800387
11.7750,-72.23571384,112.7283762,1237.316866
11.7800,-71.88447696,112.7903029,1235.831042
11.7850,-71.53151103,112.8482151,1234.343044
11.7900,-71.17768121,112.9024383,1232.852142
11.7950,-70.82426989,112.954031,1231.358525
11.8000,-70.47226386,113.0014759,1229.862065
11.8050,-70.12357864,113.0470208,1228.362811
11.8100,-69.77730626,113.0916628,1226.859931
11.8150,-69.43363887,113.1339797,1225.354155
11.8200,-69.08958388,113.1758284,1223.8439
11.8250,-68.74492208,113.2170074,1222.330021
11.8300,-68.39901604,113.2569171,1220.811873
11.8350,-68.05194901,113.2941792,1219.288765
11.8400,-67.70165168,113.3299988,1217.761126
11.8450,-67.34831784,113.3629644,1216.228141
11.8500,-66.99084338,113.3936591,1214.689744
11.8550,-66.62905461,113.4206058,1213.146711
11.8600,-66.26212275,113.4436771,1211.599982
11.8650,-65.88954861,113.4623496,1210.050646
11.8700,-65.50995508,113.4764224,1208.497377
11.8750,-65.12194632,113.4846617,1206.941944
11.8800,-64.72614379,113.4874825,1205.383058
11.8850,-64.32063319,113.4832066,1203.822285
11.8900,-63.9052359,113.4719256,1202.260118
11.8950,-63.47833258,113.4534035,1200.696155
11.9000,-63.03891008,113.426552,1199.130328
11.9050,-62.58747061,113.3915886,1197.563073
11.9100,-62.12409293,113.3479224,1195.994144
11.9150,-61.64969171,113.294184,1194.424313
11.9200,-61.16523671,113.2316083,1192.853751
11.9250,-60.67282719,113.1581179,1191.283239
11.9300,-60.1732283,113.0737736,1189.712425
11.9350,-59.66634487,112.9772169,1188.14196
11.9400,-59.15333589,112.8674261,1186.572834
11.9450,-58.63550208,112.7438494,1185.004946
11.9500,-58.11199123,112.6081853,1183.439286
11.9550,-57.58377366,112.4589826,1181.876312
11.9600,-57.04975011,112.2978945,1180.316511
11.9650,-56.50958496,112.1246032,1178.760162
11.9700,-55.96365549,111.9381788,1177.207949
11.9750,-55.41091265,111.7416648,1175.660715
11.9800,-54.85051962,111.5340737,1174.118392
11.9850,-54.28243616,111.3153156,1172.580665
11.9900,-53.70642515,111.0869684,1171.04896
11.9950,-53.12248638,110.8496501,1169.522795
12.0000,-52.53080613,110.6041954,1168.003852
12.0050,-51.93257263,110.3495197,1166.492979
12.0100,-51.32868782,110.0872465,1164.989731
12.0150,-50.71761332,109.8179251,1163.494461
12.0200,-50.09926408,109.5411028,1162.006639
12.0250,-49.47503996,109.2592974,1160.526244
12.0300,-48.84534337,108.9708481,1159.052966
12.0350,-48.21130038,108.6775121,1157.587564
12.0400,-47.57206224,108.3803358,1156.129145
12.0450,-46.92766739,108.0795096,1154.677139
12.0500,-46.27767388,107.7763327,1153.230366
12.0550,-45.62335035,107.4718127,1151.789311
12.0600,-44.96468354,107.1658421,1150.354876
12.0650,-44.30143803,106.859279,1148.926999
12.0700,-43.63567549,106.5537108,1147.505771
12.0750,-42.96733643,106.2497337,1146.091204
12.0800,-42.29702505,105.947849,1144.683292
12.0850,-41.62352623,105.6486326,1143.28086
12.0900,-40.94654844,105.3527426,1141.883658
12.0950,-40.26448471,105.0605768,1140.491256
12.1000,-39.57575463,104.774762,1139.103191
12.1050,-38.87954981,104.4941316,1137.719009
12.1100,-38.17515128,104.2193141,1136.338423
12.1150,-37.46136011,103.952046,1134.959958
12.1200,-36.73882643,103.6925029,1133.584694
12.1250,-36.00583594,103.4408613,1132.211562
12.1300,-35.26067888,103.1979565,1130.840144
12.1350,-34.50116924,102.9643527,1129.469832
12.1400,-33.72730367,102.7388014,1128.101249
12.1450,-32.93823035,102.5214684,1126.733805
12.1500,-32.13352506,102.3116575,1125.367586
12.1550,-31.31247107,102.1092656,1124.002213
12.1600,-30.47392439,101.9132074,1122.636892
12.1650,-29.61691376,101.7235588,1121.271385
12.1700,-28.74206785,101.5395441,1119.906625
12.1750,-27.84835145,101.3592039,1118.540888
12.1800,-26.93577626,101.1819176,1117.175454
12.1850,-26.00272703,101.0066149,1115.809506
12.1900,-25.05068026,100.8330098,1114.443914
12.1950,-24.08029801,100.6592014,1113.078915
12.2000,-23.09212969,100.484528,1111.715339
12.2050,-22.08739409,100.3067513,1110.353867
12.2100,-21.06704461,100.1254605,1108.9957
12.2150,-20.03336609,99.9401469,1107.641729
12.2200,-18.98794802,99.7488027,1106.292939
12.2250,-17.93068002,99.55197708,1104.950111
12.2300,-16.86373735,99.34837166,1103.613963
12.2350,-15.78765462,99.13936159,1102.285577
12.2400,-14.70497743,98.92335545,1100.965104
12.2450,-13.61636965,98.70225717,1099.653404
12.2500,-12.52442913,98.47478792,1098.351164
12.2550,-11.4301289,98.24078548,1097.058602
12.2600,-10.33543582,98.00048975,1095.776544
12.2650,-9.242554261,97.75463196,1094.506198
12.2700,-8.153202752,97.50199877,1093.247904
12.2750,-7.068626029,97.24190476,1092.001197
12.2800,-5.990894094,96.97518572,1090.767988
12.2850,-4.921176297,96.70259321,1089.548599
12.2900,-3.86120668,96.42437431,1088.343206
12.2950,-2.812597246,96.14019675,1087.152255
12.3000,-1.776108801,95.85026482,1085.975228
12.3050,-0.7510117085,95.55675348,1084.811785
12.3100,0.2619136681,95.25874799,1083.662098
12.3150,1.262318784,94.95757866,1082.526097
12.3200,2.250158766,94.65448498,1081.403349
12.3250,3.224768138,94.34894097,1080.294175
12.3300,4.187681556,94.04174557,1079.197102
12.3350,5.139301742,93.7342762,1078.112321
12.3400,6.080634819,93.42634374,1077.039799
12.3450,7.011616924,93.11804761,1075.979305
12.3500,7.931276155,92.80799692,1074.930863
12.3550,8.839024238,92.49775411,1073.894827
12.3600,9.735355589,92.18760586,1072.870259
12.3650,10.61908803,91.87804407,1071.856783
12.3700,11.49213181,91.56895865,1070.853814
12.3750,12.35469736,91.26056407,1069.861273
12.3800,13.20669831,90.95257636,1068.879639
12.3850,14.04795961,90.64599074,1067.908679
12.3900,14.88001418,90.34192939,1066.948065
12.3950,15.70431969,90.04160538,1065.997749
12.4000,16.52104004,89.74384035,1065.057889
12.4050,17.33199916,89.44896541,1064.128275
12.4100,18.13784663,89.15649714,1063.209059
12.4150,18.93950397,88.86619135,1062.30045
12.4200,19.73755942,88.57663568,1061.401583
12.4250,20.53255984,88.28787656,1060.513355
12.4300,21.32561975,87.99892417,1059.63535
12.4350,22.1177385,87.70887617,1058.76767
12.4400,22.90981583,87.41707482,1057.909406
12.4450,23.70368699,87.12358264,1057.060541
12.4500,24.50029602,86.82729513,1056.220194
12.4550,25.30174041,86.52758182,1055.388158
12.4600,26.1086486,86.22272697,1054.56364
12.4650,26.92218318,85.91298011,1053.746704
12.4700,27.74360906,85.59579148,1052.936267
12.4750,28.57329889,85.27255439,1052.132861
12.4800,29.41087198,84.94099171,1051.33591
12.4850,30.25469844,84.60164614,1050.545619
12.4900,31.1056083,84.25295245,1049.761747
12.4950,31.96331024,83.89461465,1048.983822
12.5000,32.82587514,83.52659819,1048.212317
12.5050,33.69319174,83.15015284,1047.447529
12.5100,34.5651148,82.76468926,1046.688597
12.5150,35.44158419,82.37161651,1045.936147
12.5200,36.32242662,81.97133025,1045.19001
12.5250,37.20533777,81.56320258,1044.450391
12.5300,38.08955145,81.14891983,1043.718349
12.5350,38.97361208,80.72863807,1042.99358
12.5400,39.85841098,80.30421925,1042.276176
12.5450,40.74375114,79.87533997,1041.566341
12.5500,41.62841779,79.44219024,1040.864155
12.5550,42.51086608,79.00694921,1040.170527
12.5600,43.38995895,78.56931419,1039.485592
12.5650,44.26541795,78.12967482,1038.808895
12.5700,45.13613298,77.69027499,1038.141278
12.5750,46.0018233,77.25210599,1037.482988
12.5800,46.86178347,76.81734124,1036.833557
12.5850,47.7172095,76.38503477,1036.192363
12.5900,48.56670633,75.95620931,1035.559939
12.5950,49.41056944,75.53157517,1034.935945
12.6000,50.2492255,75.11218148,1034.320206
12.6050,51.08132819,74.69865059,1033.713191
12.6100,51.90814895,74.29149458,1033.113921
12.6150,52.72737878,73.89074646,1032.522921
12.6200,53.53970013,73.49751604,1031.939782
12.6250,54.34549987,73.11249835,1031.364404
12.6300,55.14356424,72.73631476,1030.796949
12.6350,55.93423061,72.36828628,1030.236957
12.6400,56.71583924,72.0099418,1029.684791
12.6450,57.48859733,71.66108412,1029.140561
12.6500,58.25198039,71.32338426,1028.604626
12.6550,59.00595122,70.99512926,1028.07629
12.6600,59.75059299,70.67630292,1027.555249
12.6650,60.48719675,70.366724,1027.041416
12.6700,61.21612323,70.0667898,1026.534812
12.6750,61.93762371,69.77575375,1026.034798
12.6800,62.65236435,69.49563292,1025.541425
12.6850,63.36136935,69.22569447,1025.054373
12.6900,64.06526254,68.96525573,1024.57367
12.6950,64.76294531,68.71207508,1024.099078
12.7000,65.45491183,68.46624769,1023.630316
12.7050,66.1423976,68.22783014,1023.16718
12.7100,66.8257611,67.99748248,1022.709495
12.7150,67.50352586,67.77256485,1022.257203
12.7200,68.17754086,67.55285252,1021.80995
12.7250,68.84892541,67.33758207,1021.366982
12.7300,69.51644477,67.125159,1020.928507
12.7350,70.18017606,66.91523489,1020.494236
12.7400,70.84233578,66.70733287,1020.063922
12.7450,71.50254109,66.50017347,1019.637238
12.7500,72.16038649,66.29319445,1019.214752
12.7550,72.81716037,66.08574196,1018.795659
12.7600,73.47329321,65.87835214,1018.380327
12.7650,74.129466,65.66923672,1017.968343
12.7700,74.78585922,65.46034196,1017.56028
12.7750,75.44361131,65.25010938,1017.155457
12.7800,76.10185491,65.03872807,1016.754364
12.7850,76.76195365,64.82514054,1016.356774
12.7900,77.42487959,64.60905218,1015.962067
12.7950,78.08927089,64.39180122,1015.571263
12.8000,78.75594419,64.17167569,1015.183716
12.8050,79.42512928,63.9496236,1014.799358
12.8100,80.09607814,63.72619763,1014.418771
12.8150,80.76785262,63.50127612,1014.041766
12.8200,81.44027233,63.27482324,1013.668196
12.8250,82.11270767,63.0475734,1013.298372
12.8300,82.78565949,62.82037334,1012.931882
12.8350,83.45807386,62.59308402,1012.568833
12.8400,84.12951241,62.36512247,1012.208962
12.8450,84.79814953,62.13778019,1011.852752
12.8500,85.46470045,61.90942624,1011.49958
12.8550,86.12903981,61.68209759,1011.149613
12.8600,86.79080163,61.4558649,1010.802884
12.8650,87.44964117,61.23097843,1010.459212
12.8700,88.10532461,61.00595721,1010.118213
12.8750,88.75748247,60.78199507,1009.780065
12.8800,89.40635274,60.55737299,1009.444646
12.8850,90.05087189,60.33335549,1009.112105
12.8900,90.69349284,60.10918566,1008.781624
12.8950,91.33400371,59.88469175,1008.453022
12.9000,91.972248,59.6585647,1008.126045
12.9050,92.60820438,59.42983412,1007.800263
12.9100,93.24166195,59.19786659,1007.475731
12.9150,93.87367162,58.96259798,1007.152144
12.9200,94.50301224,58.72340498,1006.829741
12.9250,95.13045343,58.47971703,1006.508138
12.9300,95.75634016,58.23141414,1006.187513
12.9350,96.38083083,57.97855822,1005.86784
12.9400,97.00470004,57.71886465,1005.548797
12.9450,97.62654985,57.45258378,1005.230649
12.9500,98.24749015,57.17875362,1004.913047
12.9550,98.86630195,56.89729654,1004.59649
12.9600,99.48365393,56.6074849,1004.280818
12.9650,100.0984962,56.30790865,1003.965966
12.9700,100.7088016,55.99993715,1003.652666
12.9750,101.3134639,55.68445489,1003.341463
12.9800,101.9127783,55.35881911,1003.031928
12.9850,102.5058908,55.02326184,1002.724491
12.9900,103.0936564,54.67826592,1002.418813
12.9950,103.6761944,54.32455209,1002.115081
13.0000,104.2521066,53.96133952,1001.813736
13.0050,104.8213787,53.58977821,1001.515209
13.0100,105.3831557,53.20831291,1001.219587
13.0150,105.9377203,52.81894544,1000.927416
13.0200,106.4839121,52.42260906,1000.639155
13.0250,107.0197851,52.01860305,1000.355201
13.0300,107.5455978,51.608867,1000.075777
13.0350,108.0594122,51.19341954,999.8014843
13.0400,108.5592382,50.77339713,999.5329293
13.0450,109.0418498,50.34871743,999.2706962
13.0500,109.5074293,49.92138748,999.0150324
13.0550,109.9536601,49.49174561,998.7664724
13.0600,110.3797289,49.06151771,998.5255226
13.0650,110.7830481,48.63233825,998.2927041
13.0700,111.1637527,48.20536312,998.0680361
13.0750,111.5200929,47.78129837,997.8519926
13.0800,111.8533833,47.36127316,997.6442803
13.0850,112.1615772,46.94677132,997.4452978
13.0900,112.4447088,46.53926771,997.2551839
13.0950,112.702121,46.13838218,997.0735455
13.1000,112.9345945,45.7475194,996.9007371
13.1050,113.1418318,45.36515915,996.7363117
13.1100,113.3243929,44.9926443,996.5801825
13.1150,113.4850192,44.63026709,996.4317347
13.1200,113.6248108,44.2783262,996.2906584
13.1250,113.746441,43.93703703,996.1562945
13.1300,113.8516031,43.60528456,996.0281241
13.1350,113.9429904,43.28360924,995.905752
13.1400,114.023653,42.97297161,995.7887808
13.1450,114.0954027,42.67067118,995.6765066
13.1500,114.1597893,42.37817306,995.5689589
13.1550,114.2210505,42.09349813,995.4649863
13.1600,114.2803794,41.81558933,995.3641463
13.1650,114.3398035,41.54408724,995.2662852
13.1700,114.4020688,41.27964739,995.1710223
13.1750,114.4676918,41.01964661,995.0778316
13.1800,114.5381566,40.76433226,994.986355
13.1850,114.6149277,40.51279675,994.8962749
13.1900,114.6977522,40.26421911,994.8073915
13.1950,114.7876848,40.01942822,994.7197768
13.2000,114.8855938,39.77865584,994.6332724
13.2050,114.9917168,39.5417336,994.5477743
13.2100,115.1058429,39.30955509,994.4634162
13.2150,115.2285059,39.08133399,994.3799327
13.2200,115.3594336,38.85826893,994.2976152
13.2250,115.4970197,38.63893614,994.2164715
13.2300,115.6398771,38.42350189,994.1365757
13.2350,115.7861886,38.21204622,994.0582872
13.2400,115.9339428,38.00548488,993.9820272
13.2450,116.0813025,37.80463948,993.908126
13.2500,116.2260538,37.61035333,993.8371305
13.2550,116.3681667,37.42247998,993.7689351
13.2600,116.5055392,37.24220364,993.7040444
13.2650,116.6356222,37.07205466,993.6433506
13.2700,116.7582108,36.9100387,993.5865912
13.2750,116.8743018,36.75622583,993.5335752
13.2800,116.9811561,36.61303679,993.4851479
13.2850,117.0773397,36.47949886,993.4414298
13.2900,117.1589157,36.35707165,993.4034461
13.2950,117.2259706,36.24683058,993.3714429
13.3000,117.2767796,36.14918389,993.3457238
13.3050,117.3100743,36.06432174,993.3265704
13.3100,117.3253807,35.99278469,993.3141161
13.3150,117.3222408,35.93527679,993.3085151
13.3200,117.2984722,35.89073843,993.3100709
13.3250,117.254849,35.8607488,993.3188315
13.3300,117.1902851,35.84440046,993.3349413
13.3350,117.1063393,35.84222975,993.3582118
13.3400,117.0023961,35.85345561,993.3886038
13.3450,116.8804956,35.87919194,993.4261779
13.3500,116.7407433,35.91782963,993.4706029
13.3550,116.5839072,35.96999439,993.5220904
13.3600,116.4104453,36.03389725,993.5802207
13.3650,116.2225254,36.10878972,993.6447395
13.3700,116.0193855,36.19410004,993.715796
13.3750,115.801745,36.28909319,993.7932377
13.3800,115.5693195,36.3939977,993.8773386
13.3850,115.3226524,36.50764383,993.9678435
13.3900,115.0620462,36.62995356,994.0647555
13.3950,114.7881194,36.75981643,994.1681102
13.4000,114.5007211,36.89603937,994.277786
13.4050,114.2022769,37.0382544,994.3935546
13.4100,113.8920734,37.18596356,994.5154981
13.4150,113.5696362,37.33831882,994.6437636
13.4200,113.2349363,37.49509496,994.7786083
13.4250,112.887757,37.65606811,994.9201769
13.4300,112.5294195,37.82113712,995.0685307
13.4350,112.1598188,37.98902354,995.2235789
13.4400,111.777887,38.15948401,995.3857591
13.4450,111.3847968,38.33362648,995.5551669
13.4500,110.9800171,38.51034783,995.7318587
13.4550,110.5622166,38.6890259,995.9163589
13.4600,110.132343,38.87035829,996.1087825
13.4650,109.6899603,39.05343221,996.309177
13.4700,109.2345735,39.2371785,996.5175851
13.4750,108.7665274,39.42266033,996.7343495
13.4800,108.2862548,39.60984848,996.9596355
13.4850,107.7922678,39.79876949,997.193906
13.4900,107.2856197,39.98849905,997.437149
13.4950,106.7654773,40.18008608,997.689719
13.5000,106.2316919,40.37408257,997.9519782
13.5050,105.683148,40.56971713,998.2241078
13.5100,105.1203465,40.76784585,998.5063453
13.5150,104.5414679,40.96791697,998.7989081
13.5200,103.9469124,41.16913345,999.1014587
13.5250,103.3354577,41.37344525,999.4144281
13.5300,102.7060753,41.57996779,999.7381862
13.5350,102.0581792,41.7896747,1000.072778
13.5400,101.3910695,42.00350868,1000.418286
13.5450,100.7041984,42.22092403,1000.774749
13.5500,99.99764265,42.44242118,1001.142069
13.5550,99.27068938,42.66823955,1001.520274
13.5600,98.52187802,42.9000393,1001.909846
13.5650,97.75224786,43.13723077,1002.310435
13.5700,96.96088728,43.38081502,1002.722054
13.5750,96.1464368,43.63162687,1003.145123
13.5800,95.30933633,43.88822462,1003.579259
13.5850,94.45070569,44.15308692,1004.024413
13.5900,93.57045156,44.42527112,1004.48064
13.5950,92.66934279,44.70591394,1004.947651
13.6000,91.7483319,44.99416733,1005.425221
13.6050,90.80709516,45.28972373,1005.913209
13.6100,89.8450773,45.59333742,1006.41202
13.6150,88.86304997,45.90325698,1006.921216
13.6200,87.86295137,46.22129278,1007.440833
13.6250,86.84497178,46.54606524,1007.970817
13.6300,85.81021725,46.87777784,1008.511168
13.6350,84.75879755,47.21564237,1009.061802
13.6400,83.69246143,47.56065848,1009.622642
13.6450,82.61065088,47.91117303,1010.193642
13.6500,81.51442292,48.26709922,1010.774853
13.6550,80.40397468,48.62844912,1011.366034
13.6600,79.27962868,48.99574746,1011.967739
13.6650,78.14169321,49.36741901,1012.57962
13.6700,76.99137527,49.74219455,1013.201542
13.6750,75.8292583,50.11991669,1013.833377
13.6800,74.65844185,50.50039394,1014.474537
13.6850,73.48000473,50.88353907,1015.125157
13.6900,72.29331833,51.26667396,1015.785258
13.6950,71.10116392,51.65088054,1016.454414
13.7000,69.90499834,52.03550388,1017.132414
13.7050,68.70375922,52.42033568,1017.819716
13.7100,67.49949124,52.80458656,1018.516198
13.7150,66.29368974,53.18580823,1019.221095
13.7200,65.0869994,53.5646943,1019.934727
13.7250,63.87998699,53.94022975,1020.657075
13.7300,62.67355557,54.31063133,1021.387937
13.7350,61.46824926,54.67657465,1022.127807
