type,name,time_units,begin_time,frequency,count,units
signal_3d,"Noraxon MyoMotion-Trajectories-Radial styloid process RT","s",0.0000,200,5108,"mm"

time,x,y,z
0.0000,173.1595022,79.88268156,990.485946
0.0050,173.123508,79.92078458,990.4984877
0.0100,173.0875143,79.95888911,990.5110363
0.0150,173.0515213,79.99699514,990.523592
0.0200,173.0048835,80.03493744,990.5370724
0.0250,172.9463915,80.07188583,990.5513909
0.0300,172.8749305,80.10698176,990.5664492
0.0350,172.7895204,80.13937532,990.5821415
0.0400,172.6893494,80.16825991,990.5983595
0.0450,172.5737995,80.19290034,990.6149971
0.0500,172.4424605,80.21265736,990.6319557
0.0550,172.2951409,80.2270109,990.6491492
0.0600,172.1318782,80.23557855,990.6665078
0.0650,171.9529422,80.23812631,990.6839797
0.0700,171.7588321,80.23457394,990.7015303
0.0750,171.5502754,80.22499423,990.7191405
0.0800,171.3282298,80.20960519,990.7368021
0.0850,171.0938841,80.18875942,990.7545136
0.0900,170.8486504,80.16293252,990.7722768
0.0950,170.5941536,80.13270747,990.7900942
0.1000,170.3322197,80.09875522,990.8079657
0.1050,170.0648648,80.06181339,990.8258848
0.1100,169.7942842,80.02266487,990.8438333
0.1150,169.5228363,79.98211826,990.8617773
0.1200,169.2530214,79.94099026,990.8796635
0.1250,168.9874585,79.90008854,990.8974164
0.1300,168.7288545,79.86019324,990.9149375
0.1350,168.4799537,79.82203599,990.9321056
0.1400,168.2434704,79.78627277,990.9487779
0.1450,168.0220155,79.75345327,990.9647907
0.1500,167.8180234,79.7239985,990.9799629
0.1550,167.5223124,79.67590353,991.0014724
0.1600,167.2461938,79.62925322,991.0213431
0.1650,166.991672,79.58319291,991.0392933
0.1700,166.7603102,79.53872284,991.0552136
0.1750,166.5521648,79.49500516,991.0690158
0.1800,166.3695357,79.45159681,991.0802366
0.1850,166.2110777,79.40826295,991.089042
0.1900,166.076347,79.365432,991.0954519
0.1950,165.9669226,79.32177302,991.0989518
0.2000,165.8798248,79.27823019,991.1000376
0.2050,165.8144131,79.23410018,991.0986321
0.2100,165.7694569,79.18963601,991.0948809
0.2150,165.7424504,79.1446176,991.0891163
0.2200,165.7311609,79.09847434,991.0813175
0.2250,165.7339071,79.05150593,991.0718403
0.2300,165.7467302,79.00417283,991.0612302
0.2350,165.7692038,78.95560217,991.0492027
0.2400,165.7986731,78.90750635,991.0363669
0.2450,165.8328147,78.85859366,991.0228033
0.2500,165.8689947,78.80865182,991.0087314
0.2550,165.9057289,78.75787807,990.9944096
0.2600,165.9410661,78.70607961,990.9799551
0.2650,165.9741948,78.65301887,990.9655941
0.2700,166.0033279,78.59836395,990.9512267
0.2750,166.0271913,78.54103918,990.9368622
0.2800,166.0460324,78.48241067,990.9226558
0.2850,166.0596808,78.42014147,990.9082558
0.2900,166.0683804,78.35637998,990.8940317
0.2950,166.0703294,78.28900722,990.8797208
0.3000,166.0663779,78.21749777,990.8651741
0.3050,166.0562234,78.14220502,990.8505229
0.3100,166.0393976,78.06237271,990.835495
0.3150,166.0175874,77.9779482,990.8199439
0.3200,165.9908165,77.88804906,990.8037915
0.3250,165.9595451,77.79260844,990.7869373
0.3300,165.9227332,77.69164253,990.769424
0.3350,165.8830041,77.58594212,990.7511793
0.3400,165.8387034,77.4765506,990.7326076
0.3450,165.7900808,77.36302544,990.7135243
0.3500,165.7375019,77.24570673,990.6939479
0.3550,165.6813724,77.12569884,990.6741781
0.3600,165.6201318,77.0019633,990.654076
0.3650,165.5560232,76.87607702,990.6337065
0.3700,165.4896995,76.74890181,990.61309
0.3750,165.4218762,76.62078806,990.5924176
0.3800,165.3516923,76.49316099,990.5719649
0.3850,165.2805836,76.36650241,990.5518346
0.3900,165.2082098,76.24085764,990.5321357
0.3950,165.1364479,76.11650513,990.5126468
0.4000,165.0657786,75.99261541,990.4931156
0.4050,164.9958904,75.87181087,990.4741727
0.4100,164.9282363,75.75208851,990.4551714
0.4150,164.8633721,75.63557011,990.436643
0.4200,164.8019895,75.52143565,990.4183663
0.4250,164.7435568,75.41059045,990.4005035
0.4300,164.6894815,75.30259941,990.3829107
0.4350,164.6405394,75.19725437,990.365481
0.4400,164.596403,75.09507489,990.3482264
0.4450,164.556472,74.99726204,990.3316152
0.4500,164.5227037,74.90346017,990.3152131
0.4550,164.4935237,74.81385624,990.2993062
0.4600,164.4689464,74.72818662,990.2838982
0.4650,164.4483367,74.64717291,990.2690796
0.4700,164.4324339,74.57061809,990.2546944
0.4750,164.4208193,74.49739679,990.2404774
0.4800,164.4128965,74.42827385,990.2268025
0.4850,164.4087631,74.36326011,990.2134498
0.4900,164.4084536,74.30124374,990.2001777
0.4950,164.4104562,74.24373792,990.1875915
0.5000,164.4160639,74.18895608,990.1750153
0.5050,164.423504,74.13858549,990.1630456
0.5100,164.4324092,74.09070754,990.1513281
0.5150,164.4438503,74.04624464,990.1399133
0.5200,164.4565968,74.00390122,990.1287006
0.5250,164.4703585,73.96383615,990.1178114
0.5300,164.4851872,73.92422269,990.1067985
0.5350,164.5017348,73.88629697,990.0959987
0.5400,164.5185334,73.84761374,990.0850465
0.5450,164.5354665,73.80899623,990.0740694
0.5500,164.55307,73.77084132,990.0631197
0.5550,164.5710928,73.73229238,990.0521429
0.5600,164.5894207,73.69299482,990.0410381
0.5650,164.6081219,73.6534219,990.0297343
0.5700,164.6277142,73.6131476,990.0183203
0.5750,164.6486156,73.57289365,990.0068234
0.5800,164.6709423,73.53159096,989.9949221
0.5850,164.6947193,73.49038009,989.9829494
0.5900,164.7203559,73.44971361,989.9710042
0.5950,164.7489405,73.40893886,989.9586525
0.6000,164.7801754,73.36858802,989.9460958
0.6050,164.8143033,73.32967067,989.9335623
0.6100,164.8524747,73.29076683,989.9206975
0.6150,164.8945062,73.25203894,989.9075268
0.6200,164.9404453,73.21378178,989.8940181
0.6250,164.9897571,73.17744145,989.8806955
0.6300,165.0436714,73.14218564,989.8672709
0.6350,165.1003585,73.10772933,989.8539064
0.6400,165.1606327,73.07404143,989.8403951
0.6450,165.2254428,73.04242038,989.827003
0.6500,165.2936435,73.01194156,989.8136852
0.6550,165.3650091,72.98322189,989.8006418
0.6600,165.439467,72.9564033,989.7877432
0.6650,165.5162351,72.93110007,989.7751738
0.6700,165.5951349,72.90727656,989.7628313
0.6750,165.6753133,72.88551787,989.7510098
0.6800,165.7575864,72.86448609,989.7393332
0.6850,165.8403707,72.84562545,989.7282007
0.6900,165.9240802,72.82779992,989.7172677
0.6950,166.0074194,72.81125557,989.7065538
0.7000,166.0901691,72.79723806,989.6965206
0.7050,166.1724976,72.78448548,989.6867188
0.7100,166.254151,72.7739147,989.6773715
0.7150,166.3332222,72.76363793,989.6681861
0.7200,166.409256,72.75392472,989.659291
0.7250,166.4841554,72.74398166,989.6502067
0.7300,166.5559494,72.73353696,989.6412005
0.7350,166.6249628,72.72240376,989.6320986
0.7400,166.6916191,72.70888131,989.6226534
0.7450,166.7570732,72.69222213,989.6124085
0.7500,166.8188363,72.67146026,989.6016643
0.7550,166.8790251,72.64602322,989.5899584
0.7600,166.9375571,72.61593042,989.5774592
0.7650,166.9948809,72.57897418,989.5634384
0.7700,167.0513164,72.5358443,989.5482374
0.7750,167.1072983,72.48701479,989.5318368
0.7800,167.1622818,72.43166108,989.5140645
0.7850,167.2184212,72.36960332,989.4946503
0.7900,167.274835,72.30083148,989.4737912
0.7950,167.3326346,72.22596628,989.4513194
0.8000,167.3910023,72.14463723,989.4274377
0.8050,167.4502886,72.05559958,989.401747
0.8100,167.5106493,71.96054606,989.3746547
0.8150,167.5706745,71.85918944,989.3463142
0.8200,167.6314817,71.75220849,989.3166402
0.8250,167.6910426,71.64141436,989.2863352
0.8300,167.7503076,71.52710704,989.2552871
0.8350,167.8081509,71.40826463,989.2235034
0.8400,167.8647975,71.28763927,989.1915247
0.8450,167.9200985,71.16462517,989.1592261
0.8500,167.9738141,71.03960208,989.1268691
0.8550,168.0245472,70.91312042,989.0946655
0.8600,168.0717117,70.78613985,989.0629719
0.8650,168.1142505,70.65939859,989.0320335
0.8700,168.1510125,70.53295537,989.0019801
0.8750,168.1807637,70.40795649,988.9732537
0.8800,168.2027469,70.28518366,988.9461363
0.8850,168.2154218,70.16435557,988.9206044
0.8900,168.2166748,70.04718655,988.8972875
0.8950,168.2062447,69.93291526,988.876121
0.9000,168.1824611,69.82257076,988.8573486
0.9050,168.1451209,69.71448881,988.8407672
0.9100,168.0924006,69.6111805,988.826984
0.9150,168.0230594,69.51030397,988.8157193
0.9200,167.9364167,69.41358043,988.8072043
0.9250,167.8330516,69.31868045,988.8008893
0.9300,167.7126234,69.22723855,988.7971603
0.9350,167.5733081,69.13977483,988.7962336
0.9400,167.4160582,69.05447717,988.797852
0.9450,167.2403101,68.97061306,988.8016314
0.9500,167.0470734,68.88951021,988.8078273
0.9550,166.8357813,68.81035496,988.8161838
0.9600,166.6080046,68.73270211,988.8265978
0.9650,166.3644037,68.65646718,988.8387603
0.9700,166.1052584,68.58203009,988.8528223
0.9750,165.8319686,68.50988602,988.8685861
0.9800,165.5456405,68.43915653,988.8858074
0.9850,165.2473841,68.36961308,988.9042171
0.9900,164.9375396,68.30305989,988.9241458
0.9950,164.6166693,68.23855818,988.945586
1.0000,164.2877566,68.17476741,988.9676404
1.0050,163.9505286,68.11316024,988.9907794
1.0100,163.6059915,68.05350668,989.0148398
1.0150,163.2557857,67.99687114,989.0397474
1.0200,162.9015264,67.94185466,989.0650683
1.0250,162.5426133,67.88990893,989.0913597
1.0300,162.1803444,67.83971363,989.118091
1.0350,161.8157637,67.7925829,989.1456389
1.0400,161.4498727,67.74848757,989.1737381
1.0450,161.0833055,67.70699918,989.2024739
1.0500,160.7163133,67.66828559,989.2319191
1.0550,160.3496258,67.63268651,989.2621838
1.0600,159.983875,67.59965387,989.2930407
1.0650,159.6185562,67.56950863,989.3248824
1.0700,159.253445,67.54189208,989.3577185
1.0750,158.8883697,67.51746926,989.3917691
1.0800,158.5248539,67.49530813,989.4268277
1.0850,158.1603082,67.4764951,989.4635884
1.0900,157.7958661,67.46158581,989.5019479
1.0950,157.429267,67.44886767,989.542052
1.1000,157.0612164,67.43988698,989.5841569
1.1050,156.6904836,67.43496625,989.628505
1.1100,156.3170418,67.43428678,989.675101
1.1150,155.9409337,67.43744301,989.723947
1.1200,155.5616055,67.44494186,989.7753049
1.1250,155.1789695,67.45638093,989.8290407
1.1300,154.7931097,67.47181708,989.8852713
1.1350,154.4025084,67.49158221,989.9441963
1.1400,154.0065302,67.51524189,990.0059392
1.1450,153.605784,67.54424368,990.0706837
1.1500,153.2004789,67.57723295,990.1381111
1.1550,152.7899945,67.61558741,990.2086327
1.1600,152.373853,67.65802438,990.2821284
1.1650,151.9521158,67.70393717,990.3584491
1.1700,151.523102,67.75432122,990.4381406
1.1750,151.0876603,67.80791102,990.52087
1.1800,150.6447528,67.86497236,990.6070161
1.1850,150.1939391,67.92503742,990.6966291
1.1900,149.736893,67.98643746,990.78928
1.1950,149.2707794,68.05118159,990.885798
1.2000,148.79665,68.11862029,990.9861165
1.2050,148.3137272,68.18899461,991.090506
1.2100,147.8206993,68.26030106,991.1990096
1.2150,147.3163937,68.33481136,991.3122598
1.2200,146.8002095,68.41157378,991.4305927
1.2250,146.2716599,68.49100744,991.5542595
1.2300,145.7294996,68.57216161,991.6833739
1.2350,145.1741972,68.65417893,991.8179574
1.2400,144.6053503,68.73837234,991.9584563
1.2450,144.0231972,68.82446581,992.1051314
1.2500,143.4269683,68.91150038,992.2579059
1.2550,142.8177678,68.99901924,992.4168077
1.2600,142.1954987,69.08723344,992.5821436
1.2650,141.5593357,69.17703934,992.7543384
1.2700,140.9107387,69.26755721,992.9331322
1.2750,140.2489936,69.3576763,993.1186229
1.2800,139.5750988,69.44943805,993.3111542
1.2850,138.8871182,69.54270364,993.511227
1.2900,138.1861034,69.63694529,993.7187025
1.2950,137.4718834,69.73208677,993.9336654
1.3000,136.7435336,69.83056787,994.1570061
1.3050,136.000244,69.93141378,994.3887926
1.3100,135.2420297,70.03449968,994.6290457
1.3150,134.4694074,70.14067064,994.8781434
1.3200,133.6813157,70.25149219,995.1367695
1.3250,132.8781498,70.3651099,995.404624
1.3300,132.0597735,70.48504779,995.68235
1.3350,131.2245684,70.60934619,995.9699154
1.3400,130.3729578,70.73993192,996.26792
1.3450,129.5031347,70.87691141,996.5767568
1.3500,128.61689,71.02049112,996.8963377
1.3550,127.7138585,71.17086682,997.226836
1.3600,126.7927641,71.32819447,997.5684893
1.3650,125.8545893,71.49324413,997.9216979
1.3700,124.8996979,71.66548785,998.2861276
1.3750,123.9274915,71.84409584,998.6620344
1.3800,122.9373978,72.02997357,999.0498982
1.3850,121.9298153,72.22097225,999.4493784
1.3900,120.9041095,72.41790576,999.8611065
1.3950,119.8620527,72.62036401,1000.284836
1.4000,118.8029646,72.82817253,1000.720823
1.4050,117.7286987,73.04081825,1001.168859
1.4100,116.6375015,73.25809357,1001.62964
1.4150,115.530781,73.47986488,1002.103008
1.4200,114.4071727,73.70512714,1002.589366
1.4250,113.2679977,73.93343572,1003.088713
1.4300,112.1117872,74.16598788,1003.602042
1.4350,110.9405149,74.40166875,1004.128943
1.4400,109.7533592,74.63972161,1004.669794
1.4450,108.5503952,74.87897179,1005.224834
1.4500,107.3304549,75.12136271,1005.795143
1.4550,106.0953776,75.36519313,1006.380397
1.4600,104.8445589,75.61159868,1006.981546
1.4650,103.5786513,75.85928357,1007.598345
1.4700,102.2981433,76.10804173,1008.230983
1.4750,101.001851,76.35757827,1008.880051
1.4800,99.69123835,76.60623269,1009.545181
1.4850,98.36724296,76.85613284,1010.226941
1.4900,97.02826001,77.10651473,1010.92594
1.4950,95.67626559,77.35668407,1011.641914
1.5000,94.31104914,77.60568825,1012.374963
1.5050,92.93180122,77.85383583,1013.125499
1.5100,91.53926495,78.10200297,1013.893602
1.5150,90.13546505,78.34931708,1014.678826
1.5200,88.71936371,78.59580545,1015.481491
1.5250,87.29186886,78.84085364,1016.301247
1.5300,85.85275916,79.08513259,1017.138438
1.5350,84.40242981,79.32857951,1017.992919
1.5400,82.94138081,79.57023348,1018.864629
1.5450,81.46952148,79.81102878,1019.753741
1.5500,79.98798869,80.05031582,1020.659947
1.5550,78.4961206,80.28725195,1021.583398
1.5600,76.99333942,80.52298796,1022.524334
1.5650,75.48082446,80.75708769,1023.482336
1.5700,73.95981342,80.99053869,1024.457476
1.5750,72.43245188,81.22294255,1025.449133
1.5800,70.89698986,81.45429861,1026.45736
1.5850,69.35696507,81.68499759,1027.481387
1.5900,67.81210058,81.91499432,1028.521019
1.5950,66.26320551,82.14505258,1029.576135
1.6000,64.71012787,82.37493997,1030.646178
1.6050,63.155391,82.60482073,1031.730808
1.6100,61.59902129,82.83483241,1032.830052
1.6150,60.04094827,83.06517088,1033.943689
1.6200,58.48284046,83.29692786,1035.071514
1.6250,56.92455768,83.53022978,1036.213535
1.6300,55.36837499,83.76369176,1037.369349
1.6350,53.8137356,83.99851201,1038.538804
1.6400,52.26072676,84.23359046,1039.721875
1.6450,50.71033338,84.46859375,1040.918333
1.6500,49.16237803,84.70340266,1042.12811
1.6550,47.6168531,84.9377618,1043.351445
1.6600,46.07559871,85.17129544,1044.588177
1.6650,44.53840114,85.40451538,1045.838088
1.6700,43.00535764,85.63714322,1047.101677
1.6750,41.47766149,85.86846971,1048.378476
1.6800,39.95605532,86.09904554,1049.668338
1.6850,38.4419883,86.32934269,1050.970912
1.6900,36.93538205,86.55849855,1052.28607
1.6950,35.43623538,86.78745861,1053.613782
1.7000,33.94606842,87.01517568,1054.953671
1.7050,32.46478548,87.24166818,1056.305327
1.7100,30.99307502,87.46728831,1057.668535
1.7150,29.5307033,87.69164244,1059.04325
1.7200,28.07895671,87.91706869,1060.429403
1.7250,26.63853895,88.14339107,1061.826916
1.7300,25.21032241,88.36977788,1063.234866
1.7350,23.79317023,88.59633411,1064.653411
1.7400,22.38848529,88.8244489,1066.082449
1.7450,20.99547884,89.05368139,1067.522035
1.7500,19.61558811,89.28395876,1068.971624
1.7550,18.24721266,89.51506404,1070.431534
1.7600,16.89141906,89.74734389,1071.901033
1.7650,15.54624416,89.98076061,1073.380975
1.7700,14.21217086,90.21521643,1074.870981
1.7750,12.88932693,90.45170163,1076.370603
1.7800,11.57580013,90.68947267,1077.880588
1.7850,10.27198616,90.92751092,1079.40044
1.7900,8.97735708,91.16542686,1080.929369
1.7950,7.692332049,91.4027967,1082.46731
1.8000,6.415852234,91.64035179,1084.014803
1.8050,5.148452872,91.87599169,1085.570795
1.8100,3.889903001,92.10885151,1087.135273
1.8150,2.638354201,92.33851819,1088.708521
1.8200,1.395238428,92.56460379,1090.28981
1.8250,0.1582448509,92.78781613,1091.880241
1.8300,-1.071291667,93.00750788,1093.478292
1.8350,-2.294074972,93.22300683,1095.084322
1.8400,-3.511283602,93.43401281,1096.698309
1.8450,-4.721317622,93.6407062,1098.319852
1.8500,-5.924754933,93.84427987,1099.948984
1.8550,-7.121604572,94.04608144,1101.585842
1.8600,-8.310914342,94.2451435,1103.229428
1.8650,-9.491892289,94.44204891,1104.880697
1.8700,-10.66579586,94.63674843,1106.539594
1.8750,-11.83249712,94.83036564,1108.2063
1.8800,-12.99082878,95.02398611,1109.880879
1.8850,-14.14088773,95.21714893,1111.563361
1.8900,-15.28302045,95.41038578,1113.253365
1.8950,-16.41657469,95.6058899,1114.951993
1.9000,-17.5414695,95.80313302,1116.659086
1.9050,-18.65687153,96.00210302,1118.374791
1.9100,-19.76465051,96.20380729,1120.09953
1.9150,-20.86356469,96.40774432,1121.833818
1.9200,-21.95462233,96.61471469,1123.577362
1.9250,-23.03720511,96.82368098,1125.330112
1.9300,-24.11368865,97.03484107,1127.092345
1.9350,-25.18251405,97.24854302,1128.864199
1.9400,-26.24409206,97.46454388,1130.644751
1.9450,-27.29818674,97.68245524,1132.43457
1.9500,-28.34534871,97.90278453,1134.233491
1.9550,-29.38613426,98.12417267,1136.041242
1.9600,-30.42167415,98.34617042,1137.857573
1.9650,-31.45244161,98.56752659,1139.682369
1.9700,-32.47779326,98.78984623,1141.516108
1.9750,-33.49845254,99.0131627,1143.358935
1.9800,-34.51309659,99.23753252,1145.210562
1.9850,-35.52227624,99.46357829,1147.070803
1.9900,-36.52533059,99.68955433,1148.939492
1.9950,-37.52158484,99.91515164,1150.816884
2.0000,-38.51183415,100.140284,1152.703305
2.0050,-39.49662777,100.363766,1154.599106
2.0100,-40.47562213,100.5842537,1156.503409
2.0150,-41.44843313,100.802836,1158.416925
2.0200,-42.41648752,101.0190799,1160.339944
2.0250,-43.37945219,101.2333351,1162.272767
2.0300,-44.33575747,101.4473206,1164.214962
2.0350,-45.2851286,101.661597,1166.167897
2.0400,-46.22665887,101.8759379,1168.131049
2.0450,-47.15970655,102.0896307,1170.103668
2.0500,-48.08532893,102.3034809,1172.08672
2.0550,-49.00524218,102.5174793,1174.080143
2.0600,-49.91847213,102.7313812,1176.083988
2.0650,-50.82354643,102.9453142,1178.097603
2.0700,-51.72080148,103.1585237,1180.120102
2.0750,-52.61031391,103.3693966,1182.151575
2.0800,-53.49190326,103.578492,1184.190854
2.0850,-54.36673254,103.7849982,1186.239158
2.0900,-55.23432673,103.9872385,1188.295958
2.0950,-56.09562563,104.184846,1190.361685
2.1000,-56.95024157,104.3776801,1192.435401
2.1050,-57.79841643,104.5662236,1194.5174
2.1100,-58.63933386,104.7505462,1196.607462
2.1150,-59.47127427,104.9302751,1198.705439
2.1200,-60.2948608,105.1064366,1200.811103
2.1250,-61.1085135,105.2771831,1202.92344
2.1300,-61.9129285,105.4420774,1205.042854
2.1350,-62.70798767,105.6019675,1207.169573
2.1400,-63.49287583,105.7580518,1209.30301
2.1450,-64.26749919,105.9087555,1211.442908
2.1500,-65.03197607,106.0520379,1213.588407
2.1550,-65.78640348,106.1883096,1215.739117
2.1600,-66.52940504,106.3182985,1217.895196
2.1650,-67.26299308,106.4413078,1220.0558
2.1700,-67.9864577,106.5577608,1222.221047
2.1750,-68.69998693,106.668412,1224.390919
2.1800,-69.40312823,106.7735547,1226.564707
2.1850,-70.09580337,106.8728093,1228.741901
2.1900,-70.77771423,106.9662078,1230.922625
2.1950,-71.4503518,107.0531706,1233.10546
2.2000,-72.11356463,107.1337157,1235.289735
2.2050,-72.76837599,107.208073,1237.474909
2.2100,-73.41459843,107.2762906,1239.660257
2.2150,-74.05395605,107.3384961,1241.84456
2.2200,-74.68642726,107.3921298,1244.027672
2.2250,-75.31363655,107.4386258,1246.209621
2.2300,-75.93376394,107.4786152,1248.389817
2.2350,-76.54697409,107.5138588,1250.568318
2.2400,-77.15352376,107.54582,1252.744971
2.2450,-77.7520792,107.5758135,1254.919607
2.2500,-78.34118508,107.6030428,1257.091469
2.2550,-78.92078136,107.62831,1259.26032
2.2600,-79.48944329,107.6500477,1261.424909
2.2650,-80.0471194,107.668214,1263.584637
2.2700,-80.5956775,107.6819369,1265.739335
2.2750,-81.13610848,107.6911964,1267.889232
2.2800,-81.67072101,107.6947541,1270.034582
2.2850,-82.20056636,107.6913282,1272.174424
2.2900,-82.72519855,107.6827858,1274.308267
2.2950,-83.24541265,107.6681145,1276.435968
2.3000,-83.76125026,107.6493697,1278.557518
2.3050,-84.27113163,107.6276545,1280.67216
2.3100,-84.77439515,107.6052003,1282.78083
2.3150,-85.27107431,107.582169,1284.882586
2.3200,-85.76045146,107.5572485,1286.976
2.3250,-86.24257156,107.5319171,1289.061264
2.3300,-86.71810714,107.5046751,1291.138458
2.3350,-87.18750598,107.4763969,1293.206828
2.3400,-87.65137398,107.4463472,1295.266685
2.3450,-88.10965623,107.4150427,1297.319589
2.3500,-88.5620632,107.3819985,1299.364003
2.3550,-89.00658092,107.3482761,1301.400025
2.3600,-89.44222539,107.3136824,1303.427145
2.3650,-89.86843523,107.2797164,1305.44595
2.3700,-90.28367172,107.2463527,1307.457347
2.3750,-90.68646261,107.2134824,1309.4614
2.3800,-91.07511273,107.1801888,1311.457404
2.3850,-91.44956046,107.1485932,1313.445186
2.3900,-91.80877376,107.1163617,1315.424489
2.3950,-92.15322404,107.0830837,1317.394411
2.4000,-92.48260629,107.0469426,1319.355094
2.4050,-92.79692331,107.0074406,1321.305656
2.4100,-93.09643153,106.9632838,1323.245942
2.4150,-93.38229045,106.9153833,1325.176409
2.4200,-93.65466523,106.8632238,1327.095241
2.4250,-93.91389712,106.8075469,1329.002558
2.4300,-94.15884099,106.7491408,1330.898278
2.4350,-94.38829621,106.6895321,1332.781349
2.4400,-94.60260776,106.6289549,1334.652616
2.4450,-94.80289601,106.5668629,1336.511162
2.4500,-94.99036594,106.5049741,1338.358063
2.4550,-95.16388595,106.4426879,1340.19192
2.4600,-95.32548563,106.3802453,1342.012535
2.4650,-95.47327058,106.3178385,1343.820285
2.4700,-95.60782724,106.2565687,1345.614719
2.4750,-95.72894028,106.1950089,1347.394785
2.4800,-95.8385273,106.131568,1349.160436
2.4850,-95.93766626,106.0675714,1350.911413
2.4900,-96.02751736,106.003455,1352.648251
2.4950,-96.10742796,105.9384912,1354.370412
2.5000,-96.17759092,105.872571,1356.078239
2.5050,-96.24020394,105.8056725,1357.771771
2.5100,-96.29504275,105.737238,1359.450682
2.5150,-96.34183481,105.6671896,1361.114669
2.5200,-96.38077781,105.5969622,1362.763594
2.5250,-96.41224618,105.5271474,1364.397196
2.5300,-96.43654235,105.4575457,1366.015059
2.5350,-96.45481318,105.3851654,1367.6166
2.5400,-96.46784968,105.3085979,1369.20271
2.5450,-96.47773676,105.2274183,1370.772981
2.5500,-96.48731479,105.142577,1372.328387
2.5550,-96.49551586,105.0551554,1373.869791
2.5600,-96.50309383,104.968434,1375.397795
2.5650,-96.50951751,104.8813654,1376.912904
2.5700,-96.51328554,104.7945413,1378.414984
2.5750,-96.51184606,104.7089547,1379.903028
2.5800,-96.50441476,104.625215,1381.377692
2.5850,-96.48958828,104.5419895,1382.839644
2.5900,-96.46765188,104.4593643,1384.289444
2.5950,-96.43829109,104.3771236,1385.726994
2.6000,-96.40162256,104.2922296,1387.15097
2.6050,-96.35883755,104.2039147,1388.56265
2.6100,-96.30998523,104.110692,1389.960884
2.6150,-96.25549773,104.010944,1391.346439
2.6200,-96.19508502,103.9054569,1392.720172
2.6250,-96.12856313,103.7919386,1394.081057
2.6300,-96.05724594,103.6699693,1395.429872
2.6350,-95.98011773,103.5386163,1396.766568
2.6400,-95.89708486,103.4000368,1398.090638
2.6450,-95.80772816,103.2554893,1399.401996
2.6500,-95.71259575,103.1046717,1400.701548
2.6550,-95.60981798,102.9476309,1401.989566
2.6600,-95.49996831,102.7836135,1403.26619
2.6650,-95.38273237,102.6130381,1404.531852
2.6700,-95.25749669,102.4357361,1405.786218
2.6750,-95.12506358,102.2519963,1407.030083
2.6800,-94.98555606,102.0625937,1408.264927
2.6850,-94.83798339,101.8656934,1409.489698
2.6900,-94.68138397,101.6650864,1410.706661
2.6950,-94.51352439,101.461723,1411.915823
2.7000,-94.33316284,101.2556361,1413.117364
2.7050,-94.13995948,101.0476264,1414.311588
2.7100,-93.93437767,100.8388164,1415.499378
2.7150,-93.71522989,100.6267291,1416.679641
2.7200,-93.48138599,100.41209,1417.854082
2.7250,-93.2342682,100.1942519,1419.022788
2.7300,-92.97348719,99.97294804,1420.185887
2.7350,-92.7009557,99.74622827,1421.343623
2.7400,-92.41707293,99.51372798,1422.495243
2.7450,-92.121979,99.27645911,1423.6415
2.7500,-91.81581108,99.03378875,1424.781764
2.7550,-91.4983054,98.78528715,1425.915593
2.7600,-91.17054267,98.53094864,1427.043421
2.7650,-90.83388646,98.27211658,1428.164844
2.7700,-90.488793,98.00787041,1429.280217
2.7750,-90.13583211,97.73963935,1430.39095
2.7800,-89.7732685,97.46809645,1431.496974
2.7850,-89.3998885,97.19473407,1432.598927
2.7900,-89.01376276,96.92023759,1433.696196
2.7950,-88.61390635,96.64421235,1434.788476
2.8000,-88.19994218,96.36733412,1435.876184
2.8050,-87.77056267,96.08880616,1436.959447
2.8100,-87.32450143,95.8090693,1438.038169
2.8150,-86.86264303,95.52685697,1439.113161
2.8200,-86.3857271,95.24129139,1440.184293
2.8250,-85.89322181,94.94984259,1441.251982
2.8300,-85.38607241,94.65280286,1442.316801
2.8350,-84.86554818,94.34959625,1443.379804
2.8400,-84.33108799,94.04214095,1444.440584
2.8450,-83.78364308,93.72928439,1445.499083
2.8500,-83.22317478,93.40962391,1446.555845
2.8550,-82.65158019,93.0826279,1447.61058
2.8600,-82.07085935,92.74652218,1448.664769
2.8650,-81.48379798,92.40275623,1449.71825
2.8700,-80.89343064,92.05004646,1450.771375
2.8750,-80.30322847,91.68943046,1451.825546
2.8800,-79.71465141,91.32091541,1452.879957
2.8850,-79.12870325,90.9470881,1453.935343
2.8900,-78.54870068,90.56768335,1454.991218
2.8950,-77.97658595,90.1847018,1456.047948
2.9000,-77.41365144,89.80060106,1457.105931
2.9050,-76.86033453,89.41780439,1458.165367
2.9100,-76.31705843,89.0380646,1459.226027
2.9150,-75.78292798,88.66511204,1460.287261
2.9200,-75.25808489,88.29906589,1461.348176
2.9250,-74.74253038,87.94319143,1462.408793
2.9300,-74.235113,87.5988204,1463.467672
2.9350,-73.73516345,87.26774687,1464.52487
2.9400,-73.24280415,86.95024295,1465.58006
2.9450,-72.75801986,86.6456519,1466.632253
2.9500,-72.27989923,86.3541517,1467.680952
2.9550,-71.80905003,86.07495917,1468.724069
2.9600,-71.34518511,85.80947966,1469.761693
2.9650,-70.88727118,85.55725138,1470.792943
2.9700,-70.43594232,85.31825043,1471.817379
2.9750,-69.99012964,85.09433361,1472.834422
2.9800,-69.54966222,84.88382796,1473.842781
2.9850,-69.11286059,84.68684481,1474.842701
2.9900,-68.67989282,84.50172168,1475.832445
2.9950,-68.25109842,84.32893711,1476.812017
3.0000,-67.82809426,84.16790068,1477.78159
3.0050,-67.40878974,84.01775198,1478.741122
3.0100,-66.99303152,83.87759099,1479.689669
3.0150,-66.58126288,83.74975614,1480.628017
3.0200,-66.1740779,83.63202676,1481.555963
3.0250,-65.77090583,83.52494166,1482.472433
3.0300,-65.37204441,83.42874307,1483.377921
3.0350,-64.97778446,83.34381263,1484.272259
3.0400,-64.58830706,83.26893846,1485.155256
3.0450,-64.20353176,83.2039934,1486.026629
3.0500,-63.82283694,83.14997974,1486.886
3.0550,-63.4458516,83.10677272,1487.734146
3.0600,-63.07194698,83.07368837,1488.570666
3.0650,-62.69955634,83.05125811,1489.394647
3.0700,-62.32974847,83.03865011,1490.205908
3.0750,-61.96131007,83.03539754,1491.003838
3.0800,-61.59481503,83.04079376,1491.788155
3.0850,-61.23068747,83.05260153,1492.558517
3.0900,-60.86987855,83.06933826,1493.315096
3.0950,-60.51293391,83.09288016,1494.05907
3.1000,-60.15958851,83.12113661,1494.789437
3.1050,-59.80874859,83.155006,1495.507297
3.1100,-59.46169811,83.19276291,1496.212466
3.1150,-59.1169442,83.23409853,1496.905229
3.1200,-58.77366493,83.27910082,1497.586099
3.1250,-58.43323746,83.32761426,1498.255743
3.1300,-58.0951524,83.3789332,1498.914652
3.1350,-57.75822629,83.4337367,1499.562888
3.1400,-57.42421666,83.4902757,1500.201275
3.1450,-57.09274096,83.5492185,1500.830195
3.1500,-56.76364014,83.61093458,1501.450622
3.1550,-56.43880614,83.67482728,1502.062876
3.1600,-56.1170701,83.74060696,1502.667123
3.1650,-55.80093062,83.80658854,1503.264453
3.1700,-55.49123639,83.87439443,1503.854803
3.1750,-55.18747017,83.94195987,1504.438294
3.1800,-54.89220708,84.01005625,1505.015695
3.1850,-54.60751722,84.07794499,1505.587354
3.1900,-54.33318767,84.14668608,1506.153906
3.1950,-54.06906643,84.21757962,1506.715707
3.2000,-53.81475299,84.28903264,1507.272876
3.2050,-53.57194907,84.36131022,1507.824741
3.2100,-53.34162669,84.43491262,1508.372331
3.2150,-53.12443365,84.50890977,1508.915691
3.2200,-52.91931542,84.58520286,1509.455089
3.2250,-52.72832138,84.66249279,1509.990973
3.2300,-52.54858587,84.74185549,1510.524039
3.2350,-52.38045186,84.8224285,1511.052857
3.2400,-52.2231192,84.90393939,1511.577457
3.2450,-52.07403994,84.98668905,1512.097491
3.2500,-51.93296701,85.07125284,1512.612073
3.2550,-51.7985974,85.15720268,1513.122258
3.2600,-51.66988086,85.2441968,1513.628134
3.2650,-51.54733803,85.33194905,1514.128899
3.2700,-51.42798959,85.4197811,1514.624543
3.2750,-51.31017158,85.5063752,1515.113825
3.2800,-51.19208462,85.59251901,1515.597177
3.2850,-51.073338,85.6772802,1516.074046
3.2900,-50.9536218,85.7602572,1516.544699
3.2950,-50.83248053,85.83964554,1517.008954
3.3000,-50.70804654,85.91572836,1517.465938
3.3050,-50.58213497,85.98781951,1517.916219
3.3100,-50.45410387,86.05429853,1518.359747
3.3150,-50.32336165,86.11426447,1518.796192
3.3200,-50.18975661,86.16836984,1519.225844
3.3250,-50.05142167,86.2159206,1519.648742
3.3300,-49.90818407,86.25591831,1520.064457
3.3350,-49.75941204,86.28817172,1520.472913
3.3400,-49.60488296,86.31241684,1520.874351
3.3450,-49.44382406,86.32879258,1521.269299
3.3500,-49.27768054,86.33610865,1521.658106
3.3550,-49.10710016,86.33415659,1522.041207
3.3600,-48.93131786,86.32292846,1522.418711
3.3650,-48.75234693,86.30122299,1522.79106
3.3700,-48.56838129,86.26968314,1523.157702
3.3750,-48.38007313,86.22700028,1523.519194
3.3800,-48.18738765,86.17338384,1523.875487
3.3850,-47.99110795,86.10967849,1524.227301
3.3900,-47.79187794,86.03528543,1524.574687
3.3950,-47.58980315,85.94918641,1524.917168
3.4000,-47.3861446,85.85207979,1525.256067
3.4050,-47.18161219,85.74389153,1525.59045
3.4100,-46.97514614,85.62454272,1525.921091
3.4150,-46.76734954,85.49652027,1526.248204
3.4200,-46.55856268,85.35769784,1526.572601
3.4250,-46.34804253,85.21010231,1526.89366
3.4300,-46.13716424,85.05236174,1527.211795
3.4350,-45.92657501,84.8839272,1527.528439
3.4400,-45.71555424,84.70483707,1527.843139
3.4450,-45.50535794,84.51490223,1528.157011
3.4500,-45.29651833,84.3150842,1528.469883
3.4550,-45.08860494,84.10647405,1528.782631
3.4600,-44.88399058,83.88992231,1529.09564
3.4650,-44.68001126,83.66673775,1529.408494
3.4700,-44.47789441,83.43576023,1529.720701
3.4750,-44.27848558,83.20089817,1530.032531
3.4800,-44.08178284,82.96163898,1530.343628
3.4850,-43.88769001,82.72113878,1530.653711
3.4900,-43.69748632,82.47893054,1530.962263
3.4950,-43.5117888,82.23506038,1531.268779
3.5000,-43.33048979,81.99223477,1531.572945
3.5050,-43.15437286,81.75161253,1531.874321
3.5100,-42.98315107,81.51343921,1532.171539
3.5150,-42.81787056,81.27854615,1532.464465
3.5200,-42.65876653,81.04778556,1532.752107
3.5250,-42.50562971,80.82151324,1533.034259
3.5300,-42.36017261,80.59959038,1533.309937
3.5350,-42.22212967,80.38439386,1533.580081
3.5400,-42.08942212,80.17525625,1533.843445
3.5450,-41.96300677,79.97326586,1534.100082
3.5500,-41.8403894,79.77858731,1534.34955
3.5550,-41.71982418,79.59208831,1534.590359
3.5600,-41.60031282,79.41350319,1534.82222
3.5650,-41.48052343,79.24131327,1535.045109
3.5700,-41.36118891,79.07642799,1535.259216
3.5750,-41.24209166,78.91818861,1535.465225
3.5800,-41.12270581,78.76566905,1535.663651
3.5850,-41.00170067,78.6182482,1535.854275
3.5900,-40.87883368,78.47608728,1536.037496
3.5950,-40.75305569,78.33791728,1536.213486
3.6000,-40.62386488,78.20185604,1536.382165
3.6050,-40.49071301,78.06723657,1536.543271
3.6100,-40.35241194,77.93437854,1536.697315
3.6150,-40.21037211,77.80193946,1536.844773
3.6200,-40.06485043,77.66758933,1536.985697
3.6250,-39.91821631,77.53141932,1537.121148
3.6300,-39.77126543,77.39193469,1537.251984
3.6350,-39.62445202,77.24954758,1537.378477
3.6400,-39.47861892,77.10417,1537.501789
3.6450,-39.33438064,76.95538026,1537.62235
3.6500,-39.1902583,76.80263846,1537.73971
3.6550,-39.04811918,76.64579702,1537.855535
3.6600,-38.90889101,76.48415618,1537.969594
3.6650,-38.773309,76.31829161,1538.083036
3.6700,-38.64174993,76.14694402,1538.196465
3.6750,-38.51519204,75.97145162,1538.309946
3.6800,-38.39305059,75.79219625,1538.424016
3.6850,-38.27609227,75.60861552,1538.538521
3.6900,-38.16296257,75.42209447,1538.653118
3.6950,-38.05402462,75.23299547,1538.768796
3.7000,-37.94910309,75.04291819,1538.885935
3.7050,-37.84801755,74.85204075,1539.004148
3.7100,-37.7518903,74.66137827,1539.123984
3.7150,-37.65882698,74.47142753,1539.245104
3.7200,-37.57016007,74.28436693,1539.367124
3.7250,-37.48611986,74.09937925,1539.489963
3.7300,-37.40574825,73.91925714,1539.613945
3.7350,-37.33024209,73.7445054,1539.737416
3.7400,-37.25958167,73.57602476,1539.861284
3.7450,-37.19313896,73.4144254,1539.983948
3.7500,-37.1312395,73.26014814,1540.105958
3.7550,-37.07412568,73.11385545,1540.226438
3.7600,-37.02058109,72.97602433,1540.344943
3.7650,-36.97218002,72.84861111,1540.461041
3.7700,-36.92695313,72.73130644,1540.574953
3.7750,-36.88618619,72.62489638,1540.686525
3.7800,-36.84976488,72.52965205,1540.795345
3.7850,-36.81836449,72.44494896,1540.901082
3.7900,-36.79145183,72.37214688,1541.003853
3.7950,-36.77001769,72.31124074,1541.102993
3.8000,-36.75592743,72.26226913,1541.198322
3.8050,-36.74848219,72.22564588,1541.290094
3.8100,-36.7477587,72.2016818,1541.378206
3.8150,-36.7528968,72.19044535,1541.460993
3.8200,-36.7649017,72.19143096,1541.538595
3.8250,-36.78279011,72.20495649,1541.609653
3.8300,-36.80586253,72.23214188,1541.67434
3.8350,-36.83397239,72.27135539,1541.73192
3.8400,-36.86804632,72.32247291,1541.781863
3.8450,-36.90896621,72.38488341,1541.824785
3.8500,-36.95689752,72.45868988,1541.860313
3.8550,-37.01259476,72.54199969,1541.889146
3.8600,-37.07565036,72.6344746,1541.910523
3.8650,-37.14628737,72.73702353,1541.925058
3.8700,-37.22457135,72.84599965,1541.931554
3.8750,-37.31016589,72.96123689,1541.930678
3.8800,-37.40283991,73.08163994,1541.921023
3.8850,-37.502721,73.20682242,1541.903386
3.8900,-37.60955197,73.33504441,1541.877248
3.8950,-37.72326703,73.46603022,1541.842623
3.9000,-37.84523056,73.5992511,1541.799666
3.9050,-37.9754606,73.73473873,1541.749493
3.9100,-38.11531304,73.87116775,1541.692123
3.9150,-38.26260349,74.00858719,1541.627668
3.9200,-38.41756247,74.14782808,1541.556773
3.9250,-38.57860708,74.28857828,1541.479451
3.9300,-38.7465908,74.42931212,1541.39558
3.9350,-38.92142192,74.56922314,1541.305726
3.9400,-39.10200392,74.70874096,1541.20929
3.9450,-39.29078476,74.84616495,1541.106444
3.9500,-39.48663492,74.98245288,1540.997969
3.9550,-39.68832348,75.11706123,1540.88264
3.9600,-39.89613996,75.25132347,1540.760967
3.9650,-40.10886157,75.38307043,1540.632269
3.9700,-40.32586335,75.51436495,1540.497287
3.9750,-40.54684631,75.64414351,1540.355875
3.9800,-40.77292857,75.77316615,1540.2083
3.9850,-41.00240444,75.90123211,1540.054787
3.9900,-41.23610435,76.02846198,1539.895472
3.9950,-41.47278168,76.15508332,1539.729804
4.0000,-41.7123024,76.28003633,1539.557388
4.0050,-41.9532011,76.4042036,1539.377966
4.0100,-42.19556756,76.52798869,1539.19157
4.0150,-42.44203274,76.65018245,1538.998585
4.0200,-42.69087229,76.77138644,1538.799082
4.0250,-42.9416072,76.89244391,1538.592947
4.0300,-43.19436548,77.01210463,1538.379789
4.0350,-43.44845028,77.13163708,1538.160003
4.0400,-43.70342915,77.25224106,1537.933119
4.0450,-43.95974624,77.37350313,1537.699942
4.0500,-44.2174813,77.49686134,1537.459407
4.0550,-44.47608821,77.62166313,1537.212164
4.0600,-44.7360006,77.74819114,1536.958058
4.0650,-44.99598875,77.87629742,1536.696849
4.0700,-45.25755816,78.00863706,1536.428923
4.0750,-45.51962555,78.14297529,1536.15398
4.0800,-45.78224917,78.28024073,1535.872086
4.0850,-46.04505663,78.41972624,1535.582969
4.0900,-46.30669523,78.56257858,1535.286206
4.0950,-46.56777883,78.70794455,1534.982108
4.1000,-46.82764597,78.85669918,1534.670946
4.1050,-47.08809565,79.00558232,1534.351412
4.1100,-47.34759074,79.15772008,1534.024174
4.1150,-47.60773246,79.31155791,1533.689947
4.1200,-47.86765342,79.46698251,1533.348185
4.1250,-48.12769485,79.62489049,1532.998894
4.1300,-48.38772125,79.78402841,1532.641396
4.1350,-48.6487959,79.94360242,1532.275634
4.1400,-48.91033064,80.10560778,1531.901916
4.1450,-49.17095194,80.26840583,1531.519126
4.1500,-49.43170516,80.43129722,1531.127846
4.1550,-49.69319662,80.59588745,1530.727775
4.1600,-49.95652619,80.76093223,1530.319515
4.1650,-50.22221178,80.92534264,1529.902845
4.1700,-50.48979294,81.0900517,1529.478187
4.1750,-50.76005395,81.25591685,1529.045005
4.1800,-51.03329222,81.42234035,1528.60425
4.1850,-51.31102665,81.5901629,1528.155972
4.1900,-51.59317059,81.75911589,1527.699661
4.1950,-51.87999367,81.92879119,1527.235419
4.2000,-52.16982773,82.10061608,1526.764372
4.2050,-52.46338803,82.27396855,1526.285675
4.2100,-52.76002209,82.44967274,1525.799432
4.2150,-53.06108045,82.62822332,1525.305525
4.2200,-53.36592867,82.808595,1524.802867
4.2250,-53.67604937,82.99098631,1524.291745
4.2300,-53.99020366,83.17622078,1523.771873
4.2350,-54.30905433,83.36303487,1523.242745
4.2400,-54.63317804,83.55224013,1522.704385
4.2450,-54.96092667,83.74411597,1522.156643
4.2500,-55.29354377,83.9375843,1521.598128
4.2550,-55.63214771,84.13381243,1521.029171
4.2600,-55.97488515,84.33116038,1520.449519
4.2650,-56.32212849,84.5312089,1519.858851
4.2700,-56.67259145,84.73312418,1519.256102
4.2750,-57.02574275,84.93726782,1518.640424
4.2800,-57.38101028,85.14335963,1518.011831
4.2850,-57.73852034,85.35164797,1517.369512
4.2900,-58.09683568,85.56181042,1516.713104
4.2950,-58.4580548,85.77318123,1516.042466
4.3000,-58.82093226,85.98588982,1515.356981
4.3050,-59.1875405,86.19935369,1514.658079
4.3100,-59.55726298,86.41268239,1513.945088
4.3150,-59.92962013,86.62692144,1513.218155
4.3200,-60.30468228,86.84292491,1512.477164
4.3250,-60.68201047,87.06075988,1511.722615
4.3300,-61.06184485,87.28162953,1510.954205
4.3350,-61.44246135,87.50579207,1510.171381
4.3400,-61.82420664,87.73276116,1509.374488
4.3450,-62.2067383,87.96271007,1508.562892
4.3500,-62.58975864,88.19471592,1507.737231
4.3550,-62.97359478,88.4293189,1506.897106
4.3600,-63.35900539,88.66589356,1506.042022
4.3650,-63.74588827,88.90522717,1505.173003
4.3700,-64.13549301,89.14570343,1504.291048
4.3750,-64.5281308,89.38765043,1503.395863
4.3800,-64.92336697,89.63248162,1502.48791
4.3850,-65.32129148,89.87987585,1501.568091
4.3900,-65.72175434,90.13001155,1500.635967
4.3950,-66.12483881,90.38394458,1499.692501
4.4000,-66.52977753,90.64112597,1498.73745
4.4050,-66.93563668,90.90312208,1497.771536
4.4100,-67.34386006,91.1672376,1496.794529
4.4150,-67.75354035,91.43477814,1495.806202
4.4200,-68.16590696,91.70492322,1494.807368
4.4250,-68.57995555,91.97795246,1493.799092
4.4300,-68.9962549,92.25235247,1492.781997
4.4350,-69.41441956,92.52973881,1491.756133
4.4400,-69.83580825,92.80873204,1490.722715
4.4450,-70.25981274,93.09110033,1489.681731
4.4500,-70.68705112,93.37649218,1488.633652
4.4550,-71.11708909,93.66386594,1487.578858
4.4600,-71.54869457,93.95427845,1486.517375
4.4650,-71.98083999,94.24786377,1485.448928
4.4700,-72.41305663,94.5457132,1484.37355
4.4750,-72.84531225,94.84564237,1483.291253
4.4800,-73.2773545,95.14849278,1482.201108
4.4850,-73.70794724,95.45299583,1481.103112
4.4900,-74.13634371,95.75949225,1479.997827
4.4950,-74.56277084,96.06751348,1478.885303
4.5000,-74.9879004,96.3756632,1477.764595
4.5050,-75.41048679,96.68298203,1476.635467
4.5100,-75.83125161,96.98947226,1475.497834
4.5150,-76.25012546,97.29467816,1474.352226
4.5200,-76.66704196,97.59738526,1473.198262
4.5250,-77.08222578,97.89771484,1472.036661
4.5300,-77.49576058,98.19628661,1470.867097
4.5350,-77.90826234,98.4918451,1469.689423
4.5400,-78.31965873,98.78382219,1468.503691
4.5450,-78.73098939,99.07204044,1467.309174
4.5500,-79.14245203,99.35660968,1466.106957
4.5550,-79.55255464,99.63662745,1464.895666
4.5600,-79.96030291,99.91260343,1463.675276
4.5650,-80.36586595,100.1845158,1462.446157
4.5700,-80.76975637,100.4509352,1461.207556
4.5750,-81.17265143,100.7126922,1459.960854
4.5800,-81.57407704,100.969194,1458.704994
4.5850,-81.97430141,101.2217077,1457.441184
4.5900,-82.37413448,101.4692879,1456.169973
4.5950,-82.77216557,101.7135772,1454.892074
4.6000,-83.16922205,101.9554583,1453.608732
4.6050,-83.56322019,102.1966977,1452.319245
4.6100,-83.95431313,102.4373981,1451.023038
4.6150,-84.34065263,102.6768099,1449.721311
4.6200,-84.72146949,102.9162244,1448.413913
4.6250,-85.0965537,103.1547522,1447.100792
4.6300,-85.46513283,103.3923864,1445.782519
4.6350,-85.82917749,103.6281517,1444.458964
4.6400,-86.1873054,103.8607228,1443.129967
4.6450,-86.54045374,104.0905334,1441.796785
4.6500,-86.88758596,104.3180649,1440.459099
4.6550,-87.22949303,104.5441003,1439.117411
4.6600,-87.56467377,104.7685941,1437.773038
4.6650,-87.8940552,104.9921472,1436.426364
4.6700,-88.21461721,105.2146151,1435.076191
4.6750,-88.52699374,105.4360811,1433.722696
4.6800,-88.83007114,105.6553212,1432.366744
4.6850,-89.12319091,105.8730831,1431.007458
4.6900,-89.40723523,106.0889931,1429.646092
4.6950,-89.67993543,106.3015087,1428.281106
4.7000,-89.94137128,106.5115438,1426.91358
4.7050,-90.19127833,106.7190493,1425.544251
4.7100,-90.42707501,106.9249558,1424.173105
4.7150,-90.65001359,107.1293355,1422.801477
4.7200,-90.86019457,107.3332332,1421.429951
4.7250,-91.05723345,107.5359426,1420.057823
4.7300,-91.24258259,107.7397095,1418.685208
4.7350,-91.41579155,107.9437874,1417.313113
4.7400,-91.57642202,108.1490605,1415.940543
4.7450,-91.72520302,108.3566099,1414.56829
4.7500,-91.86027021,108.5663697,1413.195709
4.7550,-91.98310306,108.7790015,1411.822741
4.7600,-92.09471315,108.9945253,1410.449076
4.7650,-92.19549387,109.2120823,1409.074393
4.7700,-92.28772295,109.4318205,1407.698493
4.7750,-92.37116254,109.6543243,1406.321151
4.7800,-92.44709089,109.8790706,1404.942559
4.7850,-92.516405,110.1047732,1403.561901
4.7900,-92.582517,110.3309977,1402.179573
4.7950,-92.64586624,110.5578919,1400.794142
4.8000,-92.70862806,110.7860319,1399.406713
4.8050,-92.77143476,111.015264,1398.01742
4.8100,-92.83501779,111.2451557,1396.625375
4.8150,-92.90057469,111.4753196,1395.231317
4.8200,-92.96781448,111.7062336,1393.834765
4.8250,-93.03675633,111.9383144,1392.435847
4.8300,-93.10769331,112.1693679,1391.034123
4.8350,-93.17922555,112.4014753,1389.629807
4.8400,-93.25177091,112.6340296,1388.222577
4.8450,-93.32371618,112.8665041,1386.812913
4.8500,-93.39571719,113.0977275,1385.400874
4.8550,-93.46943339,113.3275655,1383.987508
4.8600,-93.5460003,113.5566293,1382.572428
4.8650,-93.62530344,113.7837474,1381.15572
4.8700,-93.70883569,114.0098479,1379.737259
4.8750,-93.79561346,114.2340096,1378.316388
4.8800,-93.88545941,114.4571155,1376.894479
4.8850,-93.97692015,114.6792003,1375.471648
4.8900,-94.06853607,114.9007063,1374.047825
4.8950,-94.16012662,115.1226436,1372.622535
4.9000,-94.25069662,115.3434526,1371.194795
4.9050,-94.34071083,115.5616529,1369.764803
4.9100,-94.43053633,115.7779022,1368.332982
4.9150,-94.52200491,115.9908813,1366.897365
4.9200,-94.6149758,116.1971184,1365.457938
4.9250,-94.70961693,116.3976811,1364.014723
4.9300,-94.80606989,116.5918845,1362.568294
4.9350,-94.90428034,116.7802516,1361.119381
4.9400,-95.00534171,116.9641799,1359.667322
4.9450,-95.10796227,117.1436116,1358.211562
4.9500,-95.21313606,117.3195028,1356.75294
4.9550,-95.31840922,117.4904031,1355.290926
4.9600,-95.42360675,117.6580669,1353.82507
4.9650,-95.52629613,117.8190598,1352.354107
4.9700,-95.62615831,117.9751598,1350.878325
4.9750,-95.72206885,118.1248884,1349.397968
4.9800,-95.81483757,118.2674613,1347.911113
4.9850,-95.90450735,118.4025661,1346.418547
4.9900,-95.98993633,118.5291894,1344.919379
4.9950,-96.07100678,118.6488982,1343.413769
5.0000,-96.1482232,118.7605949,1341.901249
5.0050,-96.21905355,118.8660687,1340.381822
5.0100,-96.28523389,118.9651067,1338.854835
5.0150,-96.34424818,119.0585918,1337.31964
5.0200,-96.3949617,119.1473648,1335.776261
5.0250,-96.43698656,119.2319803,1334.224673
5.0300,-96.4686301,119.3126896,1332.664812
5.0350,-96.48940754,119.3913598,1331.096284
5.0400,-96.49904968,119.466955,1329.518935
5.0450,-96.49747219,119.5394243,1327.932747
5.0500,-96.48586212,119.6091127,1326.33734
5.0550,-96.4625657,119.6769156,1324.732601
5.0600,-96.42670612,119.7426965,1323.118121
5.0650,-96.37766743,119.8078249,1321.495088
5.0700,-96.31354905,119.8730862,1319.863726
5.0750,-96.23497939,119.9380237,1318.223823
5.0800,-96.14208597,120.0032789,1316.574839
5.0850,-96.03572145,120.0691795,1314.917384
5.0900,-95.91375958,120.1377233,1313.251214
5.0950,-95.77739264,120.2074866,1311.57703
5.1000,-95.62538177,120.2789635,1309.895299
5.1050,-95.4595719,120.3521473,1308.205764
5.1100,-95.28072848,120.4266417,1306.510683
5.1150,-95.08837606,120.5007489,1304.808498
5.1200,-94.88385673,120.5744404,1303.101027
5.1250,-94.66739324,120.6452964,1301.387997
5.1300,-94.44005435,120.7147358,1299.670299
5.1350,-94.20334261,120.7812093,1297.948201
5.1400,-93.95705888,120.8458163,1296.223041
5.1450,-93.70277175,120.9079019,1294.495603
5.1500,-93.44070496,120.9681205,1292.764961
5.1550,-93.17000199,121.02754,1291.031303
5.1600,-92.89184203,121.0836205,1289.294779
5.1650,-92.60563942,121.138839,1287.556411
5.1700,-92.31140276,121.1913872,1285.8168
5.1750,-92.00926097,121.2426998,1284.076421
5.1800,-91.70056589,121.291205,1282.335986
5.1850,-91.38553631,121.3364687,1280.594462
5.1900,-91.06645309,121.3778033,1278.851875
5.1950,-90.74310634,121.4132469,1277.10907
5.2000,-90.41672367,121.4431415,1275.365565
5.2050,-90.08834557,121.4663499,1273.622207
5.2100,-89.75780931,121.481926,1271.878709
5.2150,-89.42514245,121.491302,1270.13551
5.2200,-89.09165613,121.495723,1268.392969
5.2250,-88.75766908,121.4936055,1266.650988
5.2300,-88.42346717,121.4856013,1264.908123
5.2350,-88.08882855,121.4719203,1263.165028
5.2400,-87.75287386,121.4520146,1261.421975
5.2450,-87.41489347,121.4263664,1259.679843
5.2500,-87.07546517,121.3941964,1257.938182
5.2550,-86.7357295,121.356461,1256.198298
5.2600,-86.39494813,121.3126564,1254.458741
5.2650,-86.05357116,121.263486,1252.72081
5.2700,-85.71171767,121.2086582,1250.984671
5.2750,-85.36830551,121.1503768,1249.251141
5.2800,-85.02232056,121.0898864,1247.520324
5.2850,-84.6727002,121.0277261,1245.792468
5.2900,-84.31921006,120.965608,1244.068203
5.2950,-83.96125077,120.9036286,1242.347563
5.3000,-83.5978067,120.8422351,1240.63046
5.3050,-83.22937739,120.7821799,1238.916789
5.3100,-82.85554952,120.7230472,1237.207194
5.3150,-82.47713009,120.6649621,1235.501675
5.3200,-82.09337545,120.6071382,1233.799581
5.3250,-81.70509245,120.5499048,1232.101175
5.3300,-81.31284472,120.4935219,1230.407437
5.3350,-80.91434609,120.4369298,1228.717438
5.3400,-80.51045243,120.3799559,1227.032614
5.3450,-80.10058811,120.3221476,1225.351906
5.3500,-79.68377363,120.2645231,1223.674969
5.3550,-79.26037661,120.2062871,1222.001633
5.3600,-78.83145624,120.1491153,1220.331817
5.3650,-78.39696347,120.0930078,1218.664076
5.3700,-77.95713234,120.0378053,1216.998513
5.3750,-77.5114883,119.9859802,1215.334998
5.3800,-77.06034321,119.9368786,1213.673805
5.3850,-76.60207095,119.8923966,1212.014487
5.3900,-76.1366665,119.8516116,1210.35645
5.3950,-75.66387152,119.8152127,1208.701228
5.4000,-75.18295612,119.7832178,1207.047242
5.4050,-74.69274182,119.7558985,1205.395731
5.4100,-74.1925398,119.7334743,1203.746037
5.4150,-73.68247156,119.7166637,1202.098841
5.4200,-73.16229513,119.7059811,1200.453456
5.4250,-72.63192751,119.7014231,1198.810077
5.4300,-72.09091906,119.7030362,1197.169083
5.4350,-71.53959996,119.7121685,1195.530435
5.4400,-70.97730405,119.7276354,1193.893928
5.4450,-70.40398249,119.7503118,1192.259483
5.4500,-69.81985657,119.7806007,1190.62892
5.4550,-69.2251988,119.8158861,1189.001498
5.4600,-68.62026573,119.8571896,1187.377802
5.4650,-68.00586046,119.9005561,1185.757278
5.4700,-67.38247424,119.9469602,1184.139836
5.4750,-66.74992127,119.9943438,1182.526204
5.4800,-66.1077439,120.0429179,1180.915884
5.4850,-65.45568019,120.0912093,1179.308817
5.4900,-64.7929574,120.1389964,1177.705508
5.4950,-64.11883682,120.1853225,1176.105648
5.5000,-63.43379952,120.2301312,1174.509503
5.5050,-62.73816166,120.2740753,1172.916753
5.5100,-62.03165549,120.318606,1171.32837
5.5150,-61.31525047,120.3620492,1169.744491
5.5200,-60.5877565,120.4042723,1168.164374
5.5250,-59.84965211,120.445438,1166.587929
5.5300,-59.10115537,120.4847101,1165.01606
5.5350,-58.34176994,120.5213034,1163.448118
5.5400,-57.5718443,120.5543084,1161.884721
5.5450,-56.79272503,120.5819558,1160.326153
5.5500,-56.00345809,120.6032472,1158.772743
5.5550,-55.2042692,120.6175542,1157.223905
5.5600,-54.39656839,120.6241548,1155.681257
5.5650,-53.57993677,120.6244791,1154.144537
5.5700,-52.75516194,120.6184615,1152.613941
5.5750,-51.92268321,120.604544,1151.088627
5.5800,-51.08341667,120.582561,1149.569901
5.5850,-50.23773204,120.5522252,1148.056659
5.5900,-49.38593209,120.5125493,1146.548473
5.5950,-48.52819068,120.4630528,1145.045914
5.6000,-47.66513903,120.4041135,1143.548932
5.6050,-46.79695883,120.3342837,1142.057213
5.6100,-45.92315279,120.2544193,1140.570582
5.6150,-45.04418624,120.1644878,1139.089493
5.6200,-44.16082845,120.0646681,1137.614934
5.6250,-43.27225131,119.9570262,1136.146865
5.6300,-42.37729147,119.8412509,1134.684237
5.6350,-41.47873992,119.7191665,1133.228573
5.6400,-40.57505332,119.5919271,1131.778572
5.6450,-39.66701151,119.4605367,1130.334656
5.6500,-38.75478892,119.3256765,1128.897418
5.6550,-37.83856951,119.1883492,1127.467444
5.6600,-36.91811029,119.0480099,1126.044647
5.6650,-35.99419546,118.9047169,1124.629301
5.6700,-35.06768007,118.7597917,1123.221852
5.6750,-34.13867901,118.611974,1121.822627
5.6800,-33.20704634,118.4620958,1120.431688
5.6850,-32.27350729,118.3103854,1119.04992
5.6900,-31.33879289,118.15651,1117.677279
5.6950,-30.40239185,118.0036071,1116.313597
5.7000,-29.46618033,117.8486646,1114.95908
5.7050,-28.52921133,117.6931181,1113.613555
5.7100,-27.59184889,117.5352156,1112.276594
5.7150,-26.65380867,117.3762326,1110.948606
5.7200,-25.71600703,117.2156249,1109.629831
5.7250,-24.7783918,117.0527889,1108.320341
5.7300,-23.84030684,116.8884874,1107.020204
5.7350,-22.90006284,116.7215709,1105.729181
5.7400,-21.95905283,116.5519347,1104.447728
5.7450,-21.01636464,116.3804755,1103.175575
5.7500,-20.07096491,116.2072134,1101.91314
5.7550,-19.12316939,116.0329474,1100.661625
5.7600,-18.17203216,115.8565847,1099.420454
5.7650,-17.216625,115.6809742,1098.190584
5.7700,-16.25630867,115.5065178,1096.97217
5.7750,-15.29114054,115.3327366,1095.764821
5.7800,-14.31995889,115.1606143,1094.568508
5.7850,-13.34428965,114.9911451,1093.384228
5.7900,-12.36269872,114.8240382,1092.21085
5.7950,-11.37615465,114.6592934,1091.048185
5.8000,-10.38441386,114.4977735,1089.896371
5.8050,-9.386429624,114.3377339,1088.754585
5.8100,-8.383443847,114.1787659,1087.623372
5.8150,-7.375190732,114.020373,1086.502389
5.8200,-6.364020681,113.8621041,1085.392455
5.8250,-5.349850062,113.7044839,1084.293429
5.8300,-4.334107246,113.5458295,1083.205474
5.8350,-3.318646431,113.3856024,1082.12883
5.8400,-2.303122776,113.2242604,1081.063014
5.8450,-1.287424471,113.0634511,1080.007549
5.8500,-0.2720035321,112.901796,1078.962321
5.8550,0.7440876681,112.7403709,1077.927244
5.8600,1.760221946,112.5796891,1076.902281
5.8650,2.775304622,112.4189379,1075.887316
5.8700,3.789744369,112.2580379,1074.882191
5.8750,4.802137343,112.0984554,1073.88758
5.8800,5.812840968,111.9396609,1072.902816
5.8850,6.821556092,111.7818945,1071.928805
5.8900,7.828180802,111.6263215,1070.965829
5.8950,8.832086213,111.4729745,1070.013716
5.9000,9.832856142,111.3207707,1069.072369
5.9050,10.8293572,111.1705506,1068.142451
5.9100,11.82254164,111.0215085,1067.223425
5.9150,12.8112446,110.874387,1066.315528
5.9200,13.7967633,110.7296314,1065.417804
5.9250,14.778679,110.586275,1064.529869
5.9300,15.75463951,110.4439199,1063.651982
5.9350,16.7265511,110.3015081,1062.783034
5.9400,17.69428834,110.1608315,1061.92297
5.9450,18.65777967,110.0210012,1061.071633
5.9500,19.61634954,109.8815302,1060.228588
5.9550,20.57025986,109.7422989,1059.393282
5.9600,21.52000499,109.6025863,1058.565331
5.9650,22.46540106,109.4633422,1057.744839
5.9700,23.40612226,109.3226477,1056.931737
5.9750,24.34200204,109.180616,1056.12613
5.9800,25.27258025,109.0370829,1055.327757
5.9850,26.19868598,108.8916657,1054.53596
5.9900,27.12020514,108.745023,1053.751609
5.9950,28.03676971,108.5947272,1052.974043
6.0000,28.94964108,108.4426694,1052.203592
6.0050,29.85842811,108.2886097,1051.440176
6.0100,30.76271026,108.1331513,1050.684423
6.0150,31.66263255,107.9748619,1049.935908
6.0200,32.55912929,107.8147342,1049.194863
6.0250,33.45250663,107.6522583,1048.461206
6.0300,34.34224312,107.4873222,1047.735086
6.0350,35.22915267,107.3208048,1047.017121
6.0400,36.11373541,107.1522527,1046.306638
6.0450,36.99592287,106.9801336,1045.604409
6.0500,37.87596144,106.8058168,1044.910073
6.0550,38.75564459,106.6286135,1044.223264
6.0600,39.63486499,106.4501343,1043.544553
6.0650,40.51458813,106.2688003,1042.873275
6.0700,41.39362012,106.0842264,1042.209955
6.0750,42.27318062,105.8969808,1041.554326
6.0800,43.15259911,105.7062529,1040.906419
6.0850,44.03270787,105.511709,1040.265854
6.0900,44.9123881,105.3142305,1039.633451
6.0950,45.79216886,105.1139802,1039.008947
6.1000,46.67084134,104.9083124,1038.392192
6.1050,47.54782116,104.6996827,1037.783597
6.1100,48.42326835,104.4868046,1037.182693
6.1150,49.29725141,104.2701741,1036.589176
6.1200,50.17096004,104.0487931,1036.002517
6.1250,51.04350262,103.8235998,1035.422903
6.1300,51.91433406,103.5942097,1034.850196
6.1350,52.78438577,103.361188,1034.284015
6.1400,53.65222574,103.1234036,1033.724256
6.1450,54.51686876,102.8802602,1033.171055
6.1500,55.3775486,102.6338612,1032.62461
6.1550,56.23217336,102.3813447,1032.084711
6.1600,57.08107554,102.1240122,1031.55166
6.1650,57.92240972,101.8624357,1031.025621
6.1700,58.75554822,101.5947832,1030.506165
6.1750,59.58166921,101.3205006,1029.992717
6.1800,60.3982273,101.0402304,1029.48593
6.1850,61.20598877,100.7546505,1028.985324
6.1900,62.00426509,100.4623814,1028.49064
6.1950,62.7923242,100.1655044,1028.002394
6.2000,63.57058763,99.86400457,1027.520759
6.2050,64.33879428,99.55744143,1027.045095
6.2100,65.09487908,99.24620773,1026.575651
6.2150,65.83942215,98.92959502,1026.112236
6.2200,66.57278309,98.60810736,1025.654669
6.2250,67.29287752,98.28063279,1025.2032
6.2300,68.00085023,97.94884165,1024.757706
6.2350,68.69602158,97.61274207,1024.318053
6.2400,69.37707696,97.27202863,1023.884537
6.2450,70.04367842,96.92703071,1023.456916
6.2500,70.69678277,96.57853568,1023.035207
6.2550,71.3349753,96.22570747,1022.618962
6.2600,71.95843042,95.87156547,1022.208747
6.2650,72.56780199,95.51421615,1021.803826
6.2700,73.16433548,95.15521504,1021.403739
6.2750,73.74860341,94.79419742,1021.007986
6.2800,74.32126486,94.43158195,1020.616686
6.2850,74.88173464,94.06791084,1020.229947
6.2900,75.43139374,93.70214385,1019.84726
6.2950,75.97023767,93.33433519,1019.46836
6.3000,76.49892719,92.96474356,1019.093288
6.3050,77.01739331,92.59322226,1018.722246
6.3100,77.52728163,92.22063659,1018.354583
6.3150,78.03009379,91.8479054,1017.990665
6.3200,78.52614467,91.47355439,1017.629647
6.3250,79.01720817,91.10025006,1017.272003
6.3300,79.50457224,90.72713511,1016.917234
6.3350,79.98846812,90.35476728,1016.565275
6.3400,80.47019737,89.98369474,1016.216334
6.3450,80.95130554,89.61618517,1015.870296
6.3500,81.4347259,89.25007074,1015.525959
6.3550,81.91846482,88.88689845,1015.183946
6.3600,82.40298023,88.52610974,1014.843971
6.3650,82.88930724,88.16745048,1014.505557
6.3700,83.37862171,87.81209891,1014.168705
6.3750,83.86961821,87.46028243,1013.833707
6.3800,84.36421989,87.11265987,1013.50024
6.3850,84.86336691,86.76886808,1013.168044
6.3900,85.36646734,86.42834589,1012.83677
6.3950,85.87374919,86.09204026,1012.506709
6.4000,86.38473412,85.76175783,1012.178391
6.4050,86.90054738,85.43580968,1011.851302
6.4100,87.42175002,85.11330121,1011.524957
6.4150,87.94700501,84.79498507,1011.199902
6.4200,88.47569851,84.48086634,1010.876283
6.4250,89.00848049,84.17009182,1010.553937
6.4300,89.54522473,83.8626047,1010.232916
6.4350,90.085666,83.55857465,1009.913437
6.4400,90.62879624,83.25777745,1009.595939
6.4450,91.17521432,82.96015185,1009.279983
6.4500,91.72468562,82.66514374,1008.965926
6.4550,92.27803694,82.37347589,1008.653642
6.4600,92.83413975,82.08311198,1008.343095
6.4650,93.39390942,81.79382614,1008.034284
6.4700,93.95672804,81.50796225,1007.72784
6.4750,94.52258901,81.22484675,1007.423772
6.4800,95.09288548,80.94410468,1007.121685
6.4850,95.66751069,80.66597541,1006.821871
6.4900,96.24501982,80.39008897,1006.524519
6.4950,96.82589678,80.11500471,1006.229186
6.5000,97.40975688,79.84138329,1005.935895
6.5050,97.99562956,79.56863471,1005.645027
6.5100,98.58416656,79.29584577,1005.35635
6.5150,99.17545308,79.02323896,1005.069828
6.5200,99.76730282,78.75007227,1004.785726
6.5250,100.3612002,78.47691953,1004.504097
6.5300,100.9581189,78.20327955,1004.224685
6.5350,101.5580552,77.92830163,1003.947508
6.5400,102.1589527,77.65276793,1003.673057
6.5450,102.7631128,77.3757588,1003.400921
6.5500,103.3682972,77.09751734,1003.131452
6.5550,103.9762176,76.81921608,1002.864901
6.5600,104.5854242,76.53742487,1002.600799
6.5650,105.1950958,76.25498153,1002.33994
6.5700,105.8052223,75.97024926,1002.081943
6.5750,106.4145366,75.68455209,1001.827423
6.5800,107.0232474,75.39769282,1001.576252
6.5850,107.6303973,75.10778505,1001.32821
6.5900,108.2341401,74.81662852,1001.083717
6.5950,108.8353038,74.52547892,1000.843099
6.6000,109.4341455,74.23351685,1000.605773
6.6050,110.0306255,73.94104528,1000.371824
6.6100,110.623564,73.64702664,1000.141158
6.6150,111.2118323,73.35182957,999.9136841
6.6200,111.7957635,73.05642564,999.6897456
6.6250,112.3739456,72.76041403,999.4692603
6.6300,112.9451905,72.46434868,999.2523211
6.6350,113.5081358,72.16779094,999.0388018
6.6400,114.0613958,71.87248864,998.8290712
6.6450,114.6051534,71.57723685,998.6226755
6.6500,115.1361296,71.28230308,998.4203448
6.6550,115.6555581,70.98806552,998.2218423
6.6600,116.1633758,70.69474623,998.0270239
6.6650,116.6583782,70.40312108,997.836224
6.6700,117.1392083,70.11270749,997.6494055
6.6750,117.6072465,69.82459819,997.466654
6.6800,118.0597421,69.53831301,997.2880083
6.6850,118.4945836,69.25417624,997.1139924
6.6900,118.912415,68.9745766,996.9449141
6.6950,119.3132862,68.69779741,996.7802437
6.7000,119.69747,68.42387275,996.6199018
6.7050,120.0653996,68.15227253,996.4637969
6.7100,120.4154874,67.88409689,996.312264
6.7150,120.7505348,67.61897242,996.1648112
6.7200,121.070035,67.35591584,996.0211916
6.7250,121.3741427,67.09473367,995.8814115
6.7300,121.6655368,66.83541964,995.7448211
6.7350,121.9436145,66.57726225,995.6113889
6.7400,122.2110016,66.32149048,995.4807265
6.7450,122.4678242,66.06658883,995.3526399
6.7500,122.7163813,65.81225518,995.226374
6.7550,122.9559916,65.55977571,995.1023493
6.7600,123.1897934,65.30987494,994.9799216
6.7650,123.4182701,65.0611142,994.8585876
6.7700,123.6434587,64.81310354,994.7378332
6.7750,123.8651967,64.56621067,994.6176946
6.7800,124.0849529,64.32096263,994.4980414
6.7850,124.3029026,64.07704782,994.3785058
6.7900,124.5208061,63.83459761,994.2589524
6.7950,124.7386456,63.59346157,994.139282
6.8000,124.9572733,63.35384242,994.0193697
6.8050,125.178747,63.11563594,993.8988292
6.8100,125.402978,62.8805497,993.7781959
6.8150,125.6306604,62.64675496,993.6570159
6.8200,125.8633708,62.41518391,993.5354139
6.8250,126.1010169,62.18438508,993.4130401
6.8300,126.3439237,61.9540932,993.2899331
6.8350,126.5912194,61.7251492,993.166528
6.8400,126.8451261,61.49654381,993.0424519
6.8450,127.10465,61.26774898,992.9178074
6.8500,127.3710606,61.0382345,992.7926199
6.8550,127.6449217,60.807286,992.6666473
6.8600,127.9262314,60.57627003,992.5403722
6.8650,128.2167684,60.34361515,992.4132417
6.8700,128.5142506,60.10972614,992.285985
6.8750,128.8198509,59.87412698,992.1583372
6.8800,129.1332645,59.63774884,992.0306635
6.8850,129.454708,59.401107,991.9032126
6.8900,129.7848732,59.16350849,991.775791
6.8950,130.1216685,58.92471224,991.6487314
6.9000,130.4637177,58.68584805,991.522418
6.9050,130.8097315,58.44613022,991.3969193
6.9100,131.1600549,58.20769306,991.2726233
6.9150,131.5128911,57.97068453,991.1499688
6.9200,131.8655632,57.73614663,991.0295651
6.9250,132.2177263,57.50386245,990.9113169
6.9300,132.5696338,57.27575607,990.7955159
6.9350,132.9201833,57.05177186,990.6824436
6.9400,133.2692438,56.83159615,990.5720147
6.9450,133.6152302,56.61695616,990.4647212
6.9500,133.9576847,56.40831418,990.3606629
6.9550,134.2968768,56.20648987,990.2597276
6.9600,134.6309602,56.01245438,990.162487
6.9650,134.9594297,55.82653253,990.068976
6.9700,135.2822982,55.64974643,989.9793549
6.9750,135.5985639,55.48147378,989.8934146
6.9800,135.9091477,55.32223305,989.8112975
6.9850,136.214935,55.1732567,989.7327864
6.9900,136.5156979,55.0337109,989.6576773
6.9950,136.8110903,54.90462334,989.5863289
7.0000,137.1019729,54.78557267,989.518331
7.0050,137.3865398,54.67859317,989.4541771
7.0100,137.6672865,54.58415369,989.3935063
7.0150,137.9419556,54.50056841,989.3363436
7.0200,138.2122835,54.43115304,989.2828782
7.0250,138.4767596,54.37458587,989.2330511
7.0300,138.7334816,54.33147209,989.1871715
7.0350,138.9834044,54.3015134,989.1450493
7.0400,139.224291,54.28394943,989.1067359
7.0450,139.4551807,54.27998923,989.0726234
7.0500,139.6745465,54.28972907,989.0429198
7.0550,139.8832343,54.31209937,989.0170991
7.0600,140.0775262,54.34686058,988.9957299
7.0650,140.2594274,54.39519721,988.9787226
7.0700,140.4258055,54.45511626,988.9661948
7.0750,140.5768881,54.52773849,988.958118
7.0800,140.7113897,54.61245352,988.9545569
7.0850,140.8294137,54.70729698,988.9551737
7.0900,140.9300411,54.81352405,988.9602838
7.0950,141.0141378,54.9296893,988.9695969
7.1000,141.081748,55.0554668,988.9828887
7.1050,141.133431,55.1914178,989.0002485
7.1100,141.1687667,55.33504955,989.0211568
7.1150,141.1875422,55.48719327,989.0458105
7.1200,141.1900349,55.64626923,989.0738978
7.1250,141.1771823,55.81279616,989.1053545
7.1300,141.1473941,55.98607202,989.1402337
7.1350,141.1013955,56.16482161,989.1782739
7.1400,141.0403598,56.34835178,989.2192564
7.1450,140.9629572,56.53647616,989.2633428
7.1500,140.8697625,56.72905198,989.3104846
7.1550,140.7595173,56.92391712,989.3605267
7.1600,140.6324163,57.1213489,989.413458
7.1650,140.4870922,57.31849518,989.4691513
7.1700,140.3252976,57.51634665,989.5275437
7.1750,140.1460754,57.71375336,989.5886528
7.1800,139.9491073,57.9090847,989.6524109
7.1850,139.7345254,58.10263764,989.718767
7.1900,139.500777,58.29288156,989.7878473
7.1950,139.2492249,58.47852297,989.8592193
7.2000,138.9810365,58.66010818,989.9330515
7.2050,138.6960703,58.83703603,990.0093634
7.2100,138.3942839,59.00756371,990.0879678
7.2150,138.0773237,59.17217048,990.1687279
7.2200,137.7459147,59.32911926,990.2512206
7.2250,137.3999485,59.47990664,990.3360011
7.2300,137.0402516,59.62260541,990.4227677
7.2350,136.6683071,59.75792013,990.5114409
7.2400,136.2842575,59.88507382,990.6019623
7.2450,135.8890775,60.0042021,990.6944502
7.2500,135.4836718,60.11710683,990.789218
7.2550,135.0686767,60.22242916,990.8860134
7.2600,134.6437614,60.32045353,990.9850702
7.2650,134.2092826,60.41285527,991.0868349
7.2700,133.7670242,60.49928663,991.1910597
7.2750,133.3150153,60.5809851,991.2984161
7.2800,132.8534008,60.65909387,991.4091884
7.2850,132.3822153,60.73387445,991.5236734
7.2900,131.90127,60.80630981,991.6421536
7.2950,131.4084421,60.87661675,991.7652635
7.3000,130.9042091,60.94665065,991.8933326
7.3050,130.3880834,61.01568615,992.0264215
7.3100,129.8574275,61.08408606,992.1652068
7.3150,129.3119168,61.15386101,992.3101867
7.3200,128.7503522,61.22405705,992.4615066
7.3250,128.1735598,61.29568351,992.6193747
7.3300,127.5797228,61.3700701,992.7844617
7.3350,126.9687064,61.44693559,992.9568958
7.3400,126.340248,61.52818921,993.1371987
7.3450,125.6948229,61.61295462,993.3252912
7.3500,125.0325371,61.70159458,993.521389
7.3550,124.3527069,61.79360509,993.7257816
7.3600,123.6555871,61.88991167,993.9387579
7.3650,122.9397575,61.99068206,994.1606637
7.3700,122.2052768,62.09637348,994.3916962
7.3750,121.4516469,62.20615221,994.6319967
7.3800,120.6790829,62.31979374,994.8814967
7.3850,119.8872736,62.4390857,995.1408809
7.3900,119.0755763,62.56251589,995.4099646
7.3950,118.2439148,62.6910081,995.6890091
7.4000,117.391323,62.82422069,995.9784508
7.4050,116.5161871,62.9619218,996.2785901
7.4100,115.6200212,63.10422411,996.5894591
7.4150,114.7015532,63.25067981,996.9111517
7.4200,113.7597179,63.40152401,997.243981
7.4250,112.7932472,63.55580978,997.5883123
7.4300,111.8034062,63.71247015,997.9439019
7.4350,110.7897426,63.87257803,998.3108962
7.4400,109.7511802,64.03366751,998.6895378
7.4450,108.6891757,64.19666439,999.0801765
7.4500,107.6027913,64.35912662,999.4824421
7.4550,106.4922257,64.52263375,999.8970703
7.4600,105.3581694,64.68423288,1000.323618
7.4650,104.2012782,64.8466431,1000.762913
7.4700,103.0217601,65.00756614,1001.214875
7.4750,101.8198205,65.16724171,1001.67973
7.4800,100.5963035,65.32652895,1002.157775
7.4850,99.35199447,65.4837219,1002.648909
7.4900,98.0888417,65.64001386,1003.153387
7.4950,96.80595299,65.79534306,1003.671501
7.5000,95.50405646,65.94895217,1004.203398
7.5050,94.18399721,66.10176412,1004.749068
7.5100,92.84718975,66.25497883,1005.308565
7.5150,91.49332707,66.40762696,1005.882056
7.5200,90.1235631,66.56156855,1006.46972
7.5250,88.73930113,66.7163712,1007.071249
7.5300,87.34103332,66.87353505,1007.686693
7.5350,85.92759235,67.03228723,1008.316433
7.5400,84.50172699,67.19475688,1008.960398
7.5450,83.06339717,67.3610236,1009.618539
7.5500,81.61260637,67.52948218,1010.29046
7.5550,80.14930262,67.70293335,1010.976777
7.5600,78.67594068,67.8813245,1011.677186
7.5650,77.19283371,68.06435353,1012.39124
7.5700,75.70005964,68.25283469,1013.119488
7.5750,74.2003292,68.44773572,1013.861603
7.5800,72.69415213,68.64835857,1014.61736
7.5850,71.18285349,68.85534379,1015.38683
7.5900,69.66643159,69.06755366,1016.16993
7.5950,68.14792633,69.28694305,1016.966473
7.6000,66.62778294,69.51321157,1017.776344
7.6050,65.10661082,69.74622863,1018.599376
7.6100,63.58639288,69.98680782,1019.435384
7.6150,62.06815562,70.23479084,1020.284177
7.6200,60.55233739,70.49011091,1021.145765
7.6250,59.03860027,70.7524286,1022.020173
7.6300,57.53030816,71.02222978,1022.906605
7.6350,56.02576446,71.29803752,1023.804985
7.6400,54.5284928,71.57957289,1024.714452
7.6450,53.0369853,71.86679764,1025.635156
7.6500,51.55140488,72.15860543,1026.566826
7.6550,50.07157291,72.45594437,1027.509353
7.6600,48.59885718,72.75691175,1028.462083
7.6650,47.13335196,73.06031502,1029.424381
7.6700,45.67574728,73.36526533,1030.396105
7.6750,44.22719909,73.67215051,1031.376764
7.6800,42.78765069,73.97972515,1032.366341
7.6850,41.35635961,74.2864562,1033.364472
7.6900,39.93460561,74.59245018,1034.371194
7.6950,38.52192334,74.89578186,1035.386451
7.7000,37.11865402,75.19582822,1036.409763
7.7050,35.72549528,75.49010268,1037.440474
7.7100,34.34127857,75.77956439,1038.479461
7.7150,32.96819805,76.0632797,1039.526062
7.7200,31.60540441,76.34047207,1040.580098
7.7250,30.25339647,76.61127049,1041.641728
7.7300,28.91203156,76.87608178,1042.711048
7.7350,27.58284289,77.13319904,1043.78763
7.7400,26.26575723,77.38343432,1044.871375
7.7450,24.95957813,77.62701787,1045.962488
7.7500,23.66462549,77.86337614,1047.06076
7.7550,22.37949129,78.09372394,1048.166473
7.7600,21.10510439,78.31791121,1049.278588
7.7650,19.84030296,78.53547853,1050.397061
7.7700,18.58406344,78.74604173,1051.521735
7.7750,17.33728474,78.94922887,1052.652218
7.7800,16.09874228,79.14571345,1053.789041
7.7850,14.86872094,79.33632192,1054.931846
7.7900,13.64580015,79.52182137,1056.080633
7.7950,12.43195082,79.70255119,1057.234883
7.8000,11.22587166,79.87887936,1058.394633
7.8050,10.02801593,80.05126714,1059.559753
7.8100,8.837164898,80.22032729,1060.730345
7.8150,7.654256938,80.38582319,1061.905883
7.8200,6.478721979,80.54798973,1063.086546
7.8250,5.310091852,80.70754905,1064.272512
7.8300,4.149288693,80.86393078,1065.463681
7.8350,2.99696919,81.01928503,1066.65996
7.8400,1.853956178,81.17302366,1067.861133
7.8450,0.7208580016,81.32538683,1069.067017
7.8500,-0.4012129,81.47836889,1070.27787
7.8550,-1.511362679,81.63087577,1071.49362
7.8600,-2.609487384,81.78451298,1072.7142
7.8650,-3.693870625,81.94060977,1073.939805
7.8700,-4.765603175,82.09879841,1075.170462
7.8750,-5.822472095,82.26043099,1076.405539
7.8800,-6.865326426,82.42528082,1077.645776
7.8850,-7.894720909,82.59419321,1078.89081
7.8900,-8.909346601,82.7684244,1080.140524
7.8950,-9.91078083,82.94790757,1081.394936
7.9000,-10.89836655,83.13193501,1082.653508
7.9050,-11.87171778,83.32200718,1083.916622
7.9100,-12.83193971,83.51693183,1085.184101
7.9150,-13.77887367,83.71768723,1086.456055
7.9200,-14.71397123,83.92367799,1087.732658
7.9250,-15.63557007,84.13641303,1089.013329
7.9300,-16.54500686,84.35440954,1090.298455
7.9350,-17.44130934,84.57868014,1091.587772
7.9400,-18.32767168,84.80776723,1092.881921
7.9450,-19.20254096,85.04112503,1094.18054
7.9500,-20.06778227,85.27928325,1095.484032
7.9550,-20.9218012,85.52038562,1096.791808
7.9600,-21.76638564,85.76523941,1098.104317
7.9650,-22.60246748,86.01218644,1099.422199
7.9700,-23.4293001,86.26258358,1100.744585
7.9750,-24.24849075,86.51411377,1102.072722
7.9800,-25.0607223,86.76559906,1103.406078
7.9850,-25.86604422,87.01788449,1104.744622
7.9900,-26.66448366,87.2706581,1106.087895
7.9950,-27.45603309,87.52391709,1107.436151
8.0000,-28.24211749,87.77664249,1108.789939
8.0050,-29.02245727,88.03071071,1110.149127
8.0100,-29.79844787,88.28434286,1111.513296
8.0150,-30.57154409,88.53794617,1112.883208
8.0200,-31.34102554,88.79140886,1114.258834
8.0250,-32.10877122,89.04482523,1115.64005
8.0300,-32.87509745,89.29814214,1117.027259
8.0350,-33.64195238,89.55135712,1118.42059
8.0400,-34.40921762,89.80455008,1119.819586
8.0450,-35.1774826,90.05736174,1121.224302
8.0500,-35.94633119,90.31162314,1122.634715
8.0550,-36.71460074,90.56664635,1124.051221
8.0600,-37.48367515,90.82210096,1125.475023
8.0650,-38.25282609,91.07863588,1126.905209
8.0700,-39.0220169,91.33724432,1128.341811
8.0750,-39.79128033,91.59775012,1129.784794
8.0800,-40.56126012,91.85863292,1131.233761
8.0850,-41.33178587,92.121157,1132.6886
8.0900,-42.10127226,92.38421572,1134.14867
8.0950,-42.87150905,92.64845185,1135.614626
8.1000,-43.64137656,92.91339295,1137.085423
8.1050,-44.41053093,93.178935,1138.561175
8.1100,-45.17825916,93.44447383,1140.042206
8.1150,-45.94440749,93.71041627,1141.528351
8.1200,-46.70766773,93.9769067,1143.018238
8.1250,-47.46616121,94.24227298,1144.510928
8.1300,-48.22055023,94.50802746,1146.007505
8.1350,-48.96968724,94.77269819,1147.506958
8.1400,-49.71413209,95.03699012,1149.00984
8.1450,-50.45399468,95.30011917,1150.515992
8.1500,-51.18902363,95.56176245,1152.024698
8.1550,-51.91864836,95.82264366,1153.536477
8.1600,-52.64161916,96.08260745,1155.051403
8.1650,-53.35817372,96.34091818,1156.56862
8.1700,-54.06551965,96.59865829,1158.088208
8.1750,-54.76564697,96.85429485,1159.61014
8.1800,-55.45756846,97.10941478,1161.133806
8.1850,-56.14074043,97.36352281,1162.659528
8.1900,-56.81577923,97.61609012,1164.187102
8.1950,-57.4809707,97.86743508,1165.716256
8.2000,-58.13713535,98.11703056,1167.247577
8.2050,-58.78452274,98.36426345,1168.780723
8.2100,-59.42180086,98.61075997,1170.315633
8.2150,-60.0492167,98.85477491,1171.851842
8.2200,-60.66670245,99.09569223,1173.3893
8.2250,-61.27579755,99.33325473,1174.928446
8.2300,-61.87560544,99.56708907,1176.468472
8.2350,-62.46663086,99.79714138,1178.009103
8.2400,-63.04863358,100.0234737,1179.550769
8.2450,-63.62204316,100.2466853,1181.093111
8.2500,-64.18656203,100.4654134,1182.636081
8.2550,-64.74425999,100.6805599,1184.18076
8.2600,-65.29378483,100.8921634,1185.726924
8.2650,-65.83438476,101.1002362,1187.274249
8.2700,-66.36628664,101.3047428,1188.823393
8.2750,-66.88912344,101.5051496,1190.373647
8.2800,-67.40300516,101.7028846,1191.926196
8.2850,-67.908068,101.8972734,1193.48055
8.2900,-68.40490164,102.0862494,1195.036905
8.2950,-68.89645045,102.2709236,1196.59614
8.3000,-69.38095988,102.4526527,1198.157341
8.3050,-69.86104923,102.6283554,1199.720775
8.3100,-70.33752612,102.7990263,1201.286011
8.3150,-70.81015233,102.964443,1202.85358
8.3200,-71.2792462,103.1253457,1204.423487
8.3250,-71.74364335,103.2819865,1205.995007
8.3300,-72.20420401,103.4346323,1207.568174
8.3350,-72.66136571,103.582835,1209.143441
8.3400,-73.1157336,103.7255778,1210.719865
8.3450,-73.56629136,103.862693,1212.297226
8.3500,-74.01366795,103.9938541,1213.875967
8.3550,-74.45959498,104.1172163,1215.455771
8.3600,-74.90270929,104.2366764,1217.036953
8.3650,-75.3432038,104.3502057,1218.619138
8.3700,-75.78029211,104.4593447,1220.201507
8.3750,-76.21572938,104.5632814,1221.78401
8.3800,-76.64906022,104.6635617,1223.36694
8.3850,-77.08153697,104.7588978,1224.950205
8.3900,-77.51331077,104.8500452,1226.533175
8.3950,-77.94343215,104.9381668,1228.116433
8.4000,-78.37183062,105.0236317,1229.700053
8.4050,-78.79685611,105.1066807,1231.283468
8.4100,-79.21858411,105.1882634,1232.866186
8.4150,-79.63750543,105.2689311,1234.448426
8.4200,-80.05314147,105.3484052,1236.031065
8.4250,-80.4666772,105.4282226,1237.614767
8.4300,-80.87813715,105.5077312,1239.197676
8.4350,-81.28695858,105.5873631,1240.780531
8.4400,-81.6936493,105.6659806,1242.362894
8.4450,-82.09818472,105.7435152,1243.944879
8.4500,-82.49926027,105.8207866,1245.526597
8.4550,-82.89680582,105.8981654,1247.107415
8.4600,-83.29123365,105.9748573,1248.68734
8.4650,-83.68135983,106.0516444,1250.266189
8.4700,-84.06766066,106.1300383,1251.844708
8.4750,-84.45013085,106.2104199,1253.423061
8.4800,-84.82662993,106.2935761,1255.001089
8.4850,-85.19614341,106.3798862,1256.578533
8.4900,-85.55757394,106.470215,1258.155563
8.4950,-85.91143323,106.5633852,1259.732189
8.5000,-86.25781445,106.6602536,1261.308875
8.5050,-86.59541635,106.7618724,1262.88579
8.5100,-86.92448916,106.8670898,1264.462431
8.5150,-87.24528645,106.9768302,1266.039962
8.5200,-87.55789948,107.0924549,1267.617917
8.5250,-87.86079843,107.2124562,1269.195271
8.5300,-88.15539125,107.3361772,1270.77202
8.5350,-88.44126821,107.4632354,1272.34897
8.5400,-88.71867479,107.5921065,1273.924726
8.5450,-88.98822466,107.7212456,1275.499595
8.5500,-89.24981984,107.8487982,1277.072531
8.5550,-89.50285911,107.9729558,1278.642396
8.5600,-89.74673445,108.0927084,1280.209001
8.5650,-89.98332405,108.2063559,1281.772814
8.5700,-90.21245384,108.3123348,1283.332248
8.5750,-90.43466388,108.4116092,1284.887915
8.5800,-90.65037269,108.5041421,1286.439829
8.5850,-90.85957508,108.5882028,1287.987546
8.5900,-91.06312839,108.663928,1289.531228
8.5950,-91.2581103,108.7301776,1291.069513
8.6000,-91.44482954,108.7865618,1292.602238
8.6050,-91.62187498,108.8332489,1294.130166
8.6100,-91.78903436,108.871297,1295.65278
8.6150,-91.94622066,108.9011108,1297.169437
8.6200,-92.0939079,108.9219342,1298.680631
8.6250,-92.23213523,108.9350588,1300.187493
8.6300,-92.36129461,108.9411096,1301.689988
8.6350,-92.48110307,108.9400701,1303.187979
8.6400,-92.59012332,108.9337431,1304.682951
8.6450,-92.68959939,108.920174,1306.173121
8.6500,-92.78084505,108.8995364,1307.660129
8.6550,-92.86347838,108.8718297,1309.143217
8.6600,-92.93992727,108.8345605,1310.62174
8.6650,-93.01104353,108.7886652,1312.096761
8.6700,-93.07703809,108.7321776,1313.569161
8.6750,-93.13751227,108.6658902,1315.038902
8.6800,-93.19251156,108.5890644,1316.504825
8.6850,-93.2412578,108.5028132,1317.967688
8.6900,-93.28445868,108.4080298,1319.427665
8.6950,-93.3231762,108.304019,1320.884203
8.7000,-93.35940783,108.1919191,1322.338447
8.7050,-93.39369268,108.073094,1323.790493
8.7100,-93.42639615,107.9485303,1325.240858
8.7150,-93.4557618,107.8182021,1326.688521
8.7200,-93.48174768,107.682849,1328.133703
8.7250,-93.5037303,107.542138,1329.575404
8.7300,-93.52167135,107.3958436,1331.013861
8.7350,-93.53704618,107.2448195,1332.449428
8.7400,-93.55154666,107.0884776,1333.881081
8.7450,-93.56649568,106.9294475,1335.309903
8.7500,-93.58272374,106.7667275,1336.735842
8.7550,-93.60215379,106.6019306,1338.159463
8.7600,-93.6236517,106.4356262,1339.581148
8.7650,-93.64757491,106.2681247,1341.000601
8.7700,-93.67483224,106.0985592,1342.417327
8.7750,-93.70323928,105.929555,1343.831481
8.7800,-93.73304963,105.7611461,1345.243702
8.7850,-93.76538337,105.5948223,1346.653755
8.7900,-93.79980092,105.4303313,1348.062281
8.7950,-93.83582278,105.2702888,1349.468844
8.8000,-93.87421046,105.1150654,1350.874045
8.8050,-93.91586529,104.9643018,1352.27786
8.8100,-93.95924708,104.8186601,1353.680182
8.8150,-94.00351927,104.6783244,1355.080189
8.8200,-94.0484629,104.5427356,1356.477814
8.8250,-94.09442141,104.4129556,1357.87446
8.8300,-94.13875474,104.2882563,1359.269564
8.8350,-94.18172636,104.1695976,1360.663214
8.8400,-94.22257673,104.0569366,1362.055386
8.8450,-94.25884262,103.9511774,1363.445741
8.8500,-94.28903755,103.8530035,1364.834128
8.8550,-94.3129452,103.7607823,1366.220132
8.8600,-94.33159896,103.6740724,1367.603774
8.8650,-94.34320903,103.593808,1368.983335
8.8700,-94.34890761,103.5179758,1370.359361
8.8750,-94.34875713,103.4459435,1371.73151
8.8800,-94.34274334,103.3769447,1373.098621
8.8850,-94.33094986,103.3107402,1374.459851
8.8900,-94.31299549,103.247632,1375.815313
8.8950,-94.28954762,103.1868205,1377.164563
8.9000,-94.26175599,103.1286436,1378.508552
8.9050,-94.22844124,103.0751831,1379.846057
8.9100,-94.18886721,103.0250261,1381.177287
8.9150,-94.14370664,102.978881,1382.502061
8.9200,-94.09142684,102.9381516,1383.819869
8.9250,-94.03204724,102.9000733,1385.128512
8.9300,-93.9644273,102.8650169,1386.428201
8.9350,-93.88878703,102.8332279,1387.719112
8.9400,-93.80675895,102.8046768,1389.001199
8.9450,-93.71780641,102.7789847,1390.275592
8.9500,-93.62065675,102.7557799,1391.54028
8.9550,-93.51489363,102.7359944,1392.794922
8.9600,-93.398609,102.7200291,1394.039909
8.9650,-93.27271573,102.7054967,1395.274663
8.9700,-93.13741644,102.6933169,1396.498751
8.9750,-92.99245009,102.6832749,1397.711929
8.9800,-92.83768491,102.6757699,1398.914319
8.9850,-92.67481409,102.6698122,1400.106169
8.9900,-92.5028098,102.6638516,1401.288088
8.9950,-92.32122765,102.6591658,1402.459331
9.0000,-92.13013474,102.6537944,1403.618402
9.0050,-91.93126541,102.6487074,1404.76626
9.0100,-91.72583882,102.6417258,1405.902763
9.0150,-91.51611253,102.6346797,1407.029601
9.0200,-91.30340825,102.6281583,1408.147332
9.0250,-91.08857616,102.6235186,1409.256961
9.0300,-90.8719143,102.6209945,1410.359469
9.0350,-90.6535835,102.6205835,1411.454219
9.0400,-90.43234374,102.6219217,1412.5414
9.0450,-90.20781378,102.6244216,1413.620921
9.0500,-89.98079752,102.6290635,1414.69248
9.0550,-89.75057645,102.6350683,1415.756062
9.0600,-89.51887336,102.6421646,1416.81159
9.0650,-89.28704648,102.6498729,1417.860064
9.0700,-89.05452134,102.6588923,1418.90122
9.0750,-88.82308766,102.6681324,1419.935237
9.0800,-88.59278038,102.6771025,1420.962374
9.0850,-88.36213112,102.6874544,1421.983907
9.0900,-88.12984315,102.6999048,1422.999095
9.0950,-87.89623599,102.7130564,1424.007844
9.1000,-87.6584009,102.7284279,1425.009756
9.1050,-87.41642362,102.7445015,1426.004163
9.1100,-87.17189993,102.762241,1426.992099
9.1150,-86.92494529,102.7809169,1427.973169
9.1200,-86.6747573,102.7997205,1428.947369
9.1250,-86.42127726,102.8173272,1429.914326
9.1300,-86.16470659,102.8357463,1430.875348
9.1350,-85.90583302,102.8547003,1431.829358
9.1400,-85.64337854,102.8742467,1432.776381
9.1450,-85.37797916,102.8934977,1433.716749
9.1500,-85.11095685,102.9122665,1434.649877
9.1550,-84.84278546,102.931456,1435.576247
9.1600,-84.57356973,102.9492513,1436.495097
9.1650,-84.30434576,102.9664877,1437.407202
9.1700,-84.0350748,102.9832545,1438.312057
9.1750,-83.76550743,103.0003061,1439.209312
9.1800,-83.49337058,103.0175257,1440.097934
9.1850,-83.21951926,103.0350316,1440.979629
9.1900,-82.94348721,103.0525132,1441.85263
9.1950,-82.66601945,103.0701246,1442.718239
9.2000,-82.3871158,103.0887954,1443.57452
9.2050,-82.10744003,103.1078365,1444.421317
9.2100,-81.82558684,103.1278805,1445.258565
9.2150,-81.54052791,103.1476451,1446.086308
9.2200,-81.25225531,103.1669056,1446.904308
9.2250,-80.96002579,103.1876879,1447.713302
9.2300,-80.66409968,103.2079633,1448.512453
9.2350,-80.36313193,103.2286118,1449.301241
9.2400,-80.05557198,103.2493416,1450.079094
9.2450,-79.74230209,103.2706282,1450.846209
9.2500,-79.42400016,103.2914345,1451.602628
9.2550,-79.10175817,103.3113854,1452.348669
9.2600,-78.77745277,103.329213,1453.084077
9.2650,-78.44998301,103.345519,1453.809078
9.2700,-78.12045437,103.3591037,1454.524133
9.2750,-77.78918874,103.3696606,1455.229546
9.2800,-77.45781514,103.3757395,1455.925787
9.2850,-77.12583105,103.3781294,1456.612535
9.2900,-76.79492103,103.377152,1457.289513
9.2950,-76.46446376,103.3721601,1457.957764
9.3000,-76.13414492,103.3647278,1458.618541
9.3050,-75.80402497,103.3538214,1459.271531
9.3100,-75.47378399,103.3405673,1459.917624
9.3150,-75.14348021,103.3244131,1460.556524
9.3200,-74.81237036,103.3047814,1461.187698
9.3250,-74.47971031,103.2823968,1461.812049
9.3300,-74.1464171,103.2565837,1462.429686
9.3350,-73.81197768,103.2283887,1463.041556
9.3400,-73.47670532,103.1985275,1463.648977
9.3450,-73.1397328,103.1661637,1464.250456
9.3500,-72.80109088,103.1315794,1464.848344
9.3550,-72.45973439,103.0930118,1465.442257
9.3600,-72.11533211,103.0529438,1466.032318
9.3650,-71.76630627,103.0114105,1466.619184
9.3700,-71.41316094,102.9690356,1467.203276
9.3750,-71.0535613,102.9255032,1467.785061
9.3800,-70.68976031,102.8817337,1468.364672
9.3850,-70.32187162,102.8361621,1468.941354
9.3900,-69.95074222,102.7894432,1469.516008
9.3950,-69.57800225,102.7414007,1470.089128
9.4000,-69.20437501,102.6916478,1470.660262
9.4050,-68.83085316,102.6421227,1471.231601
9.4100,-68.45611763,102.5927597,1471.801996
9.4150,-68.08061302,102.5449113,1472.372015
9.4200,-67.70360893,102.4992793,1472.942123
9.4250,-67.32484653,102.4581816,1473.512106
9.4300,-66.94505261,102.4201349,1474.081913
9.4350,-66.56252654,102.3848895,1474.651806
9.4400,-66.17851003,102.3526418,1475.22143
9.4450,-65.79272207,102.323442,1475.790335
9.4500,-65.40399467,102.2970382,1476.358877
9.4550,-65.0130943,102.2727987,1476.926847
9.4600,-64.62035997,102.2522296,1477.493995
9.4650,-64.22497973,102.2332833,1478.059558
9.4700,-63.82765586,102.2168408,1478.623614
9.4750,-63.42904962,102.2014763,1479.184579
9.4800,-63.03168186,102.1861593,1479.744234
9.4850,-62.63522953,102.171755,1480.300728
9.4900,-62.23923615,102.1580559,1480.855706
9.4950,-61.84468337,102.1465379,1481.407509
9.5000,-61.44906497,102.1360116,1481.957478
9.5050,-61.05329421,102.1270358,1482.505399
9.5100,-60.65691918,102.1188027,1483.050853
9.5150,-60.26071186,102.1130791,1483.594325
9.5200,-59.86513452,102.1085933,1484.135421
9.5250,-59.4693693,102.1056326,1484.674816
9.5300,-59.0738371,102.1039809,1485.212818
9.5350,-58.67873291,102.1031317,1485.749462
9.5400,-58.28531485,102.1024607,1486.285288
9.5450,-57.89198276,102.1027135,1486.820047
9.5500,-57.49871809,102.1023818,1487.353492
9.5550,-57.10458147,102.100973,1487.885052
9.5600,-56.70843146,102.0982387,1488.415357
9.5650,-56.31163934,102.0927653,1488.943438
9.5700,-55.9133629,102.0836645,1489.468548
9.5750,-55.51468482,102.070883,1489.991207
9.5800,-55.11323292,102.0550122,1490.510592
9.5850,-54.70982167,102.035388,1491.025953
9.5900,-54.30356517,102.0119059,1491.537721
9.5950,-53.89657912,101.983146,1492.04513
9.6000,-53.48841028,101.9495083,1492.547927
9.6050,-53.07788112,101.9105779,1493.045899
9.6100,-52.66581161,101.866019,1493.537509
9.6150,-52.25192581,101.8151127,1494.023235
9.6200,-51.83707482,101.7586616,1494.502995
9.6250,-51.42128862,101.6953153,1494.975631
9.6300,-51.00462538,101.6263515,1495.442457
9.6350,-50.58609803,101.5511298,1495.903224
9.6400,-50.16559035,101.4698431,1496.357967
9.6450,-49.74443781,101.3836201,1496.807652
9.6500,-49.3213264,101.2919168,1497.251736
9.6550,-48.8969394,101.198076,1497.690762
9.6600,-48.47016502,101.1004893,1498.124945
9.6650,-48.04125651,101.0006126,1498.554354
9.6700,-47.60942136,100.8967872,1498.978713
9.6750,-47.17544427,100.7898322,1499.398145
9.6800,-46.73734007,100.6793493,1499.812555
9.6850,-46.29564038,100.5658445,1500.222903
9.6900,-45.85206346,100.4478311,1500.628574
9.6950,-45.4054982,100.3272834,1501.030762
9.7000,-44.95644269,100.2031759,1501.428896
9.7050,-44.50302657,100.0766371,1501.822527
9.7100,-44.04737181,99.9463773,1502.212837
9.7150,-43.58948815,99.81368862,1502.600384
9.7200,-43.12927431,99.67911341,1502.98482
9.7250,-42.66701247,99.54215878,1503.366114
9.7300,-42.20235489,99.4045057,1503.744276
9.7350,-41.73572895,99.2660681,1504.119538
9.7400,-41.2668819,99.12825133,1504.492353
9.7450,-40.79672888,98.99069611,1504.862688
9.7500,-40.32586943,98.85469627,1505.231246
9.7550,-39.85385534,98.72016315,1505.597571
9.7600,-39.37830862,98.58751596,1505.96208
9.7650,-38.89933508,98.4565005,1506.325053
9.7700,-38.41677158,98.32644403,1506.686336
9.7750,-37.92889142,98.19802294,1507.047013
9.7800,-37.43609845,98.07153382,1507.406377
9.7850,-36.93830152,97.94510362,1507.764614
9.7900,-36.4367791,97.81933336,1508.121727
9.7950,-35.92909803,97.69265636,1508.478739
9.8000,-35.41741812,97.56512983,1508.835688
9.8050,-34.90059525,97.43643301,1509.193728
9.8100,-34.37939622,97.3071801,1509.553347
9.8150,-33.85234953,97.17613071,1509.914159
9.8200,-33.31987267,97.04285922,1510.277246
9.8250,-32.7842333,96.90737989,1510.642636
9.8300,-32.24483497,96.76896136,1511.010388
9.8350,-31.70378675,96.62735203,1511.381149
9.8400,-31.16014364,96.48269896,1511.754849
9.8450,-30.61530474,96.33410886,1512.131936
9.8500,-30.06817319,96.18277045,1512.51306
9.8550,-29.52070969,96.02756537,1512.898993
9.8600,-28.97520656,95.86855459,1513.289186
9.8650,-28.43217864,95.7077388,1513.684852
9.8700,-27.89338211,95.54489949,1514.086197
9.8750,-27.35907866,95.38032044,1514.492684
9.8800,-26.83215628,95.21459196,1514.904827
9.8850,-26.31186305,95.04898104,1515.323076
9.8900,-25.80017342,94.8824662,1515.74599
9.8950,-25.29682088,94.71726113,1516.173403
9.9000,-24.80229111,94.55425322,1516.605239
9.9050,-24.31879183,94.3930411,1517.040862
9.9100,-23.84668011,94.23542681,1517.480294
9.9150,-23.3872576,94.08222994,1517.922717
9.9200,-22.94027334,93.93275367,1518.36766
9.9250,-22.50794243,93.78878431,1518.815702
9.9300,-22.09014935,93.65107777,1519.265188
9.9350,-21.68787121,93.52015639,1519.71511
9.9400,-21.30120819,93.39704141,1520.165142
9.9450,-20.92979178,93.28250395,1520.6147
9.9500,-20.57503419,93.17601527,1521.062671
9.9550,-20.23575015,93.07851306,1521.509111
9.9600,-19.91328927,92.99133738,1521.953753
9.9650,-19.60699487,92.91437419,1522.395704
9.9700,-19.31802525,92.84979171,1522.834682
9.9750,-19.0456623,92.79770331,1523.269997
9.9800,-18.79009033,92.75885908,1523.701244
9.9850,-18.55096035,92.73290783,1524.127623
9.9900,-18.32690037,92.72182784,1524.549871
9.9950,-18.11804142,92.72512806,1524.966398
10.0000,-17.92261696,92.74336999,1525.377447
10.0050,-17.74193451,92.77527064,1525.781754
10.0100,-17.57424072,92.8217069,1526.179008
10.0150,-17.41893962,92.88223159,1526.568612
10.0200,-17.27661975,92.95596728,1526.950289
10.0250,-17.14603703,93.04325606,1527.323419
10.0300,-17.02632437,93.1439794,1527.687551
10.0350,-16.91824183,93.25615331,1528.041292
10.0400,-16.81951151,93.37828777,1528.38473
10.0450,-16.73024545,93.51100705,1528.717086
10.0500,-16.65037395,93.65303306,1529.037544
10.0550,-16.57787023,93.80329527,1529.345762
10.0600,-16.51488623,93.96067534,1529.640983
10.0650,-16.46112102,94.12537676,1529.923427
10.0700,-16.41541549,94.29653025,1530.193234
10.0750,-16.37849595,94.47283937,1530.449878
10.0800,-16.35133292,94.65333832,1530.692923
10.0850,-16.33254554,94.83789889,1530.922512
10.0900,-16.32265979,95.02504245,1531.137874
10.0950,-16.32228833,95.21590983,1531.339932
10.1000,-16.33029564,95.40888027,1531.527948
10.1050,-16.34651712,95.60341238,1531.701537
10.1100,-16.37135559,95.7999043,1531.86112
10.1150,-16.40531945,95.9974675,1532.006789
10.1200,-16.44769473,96.19712077,1532.138004
10.1250,-16.49724192,96.39798353,1532.254633
10.1300,-16.55470493,96.60025008,1532.357313
10.1350,-16.61806419,96.80475695,1532.445656
10.1400,-16.68792926,97.01031113,1532.519905
10.1450,-16.76453414,97.21773828,1532.580609
10.1500,-16.84913414,97.42703926,1532.628483
10.1550,-16.94059288,97.64058273,1532.663381
10.1600,-17.03778779,97.85765466,1532.685112
10.1650,-17.13994248,98.07793093,1532.693362
10.1700,-17.24795956,98.30182765,1532.688247
10.1750,-17.36157195,98.53053648,1532.66981
10.1800,-17.47961617,98.76409944,1532.638304
10.1850,-17.60385752,99.00156225,1532.593428
10.1900,-17.73375863,99.2436982,1532.536061
10.1950,-17.87039997,99.49094461,1532.466778
10.2000,-18.01309905,99.74196311,1532.384444
10.2050,-18.16248895,99.99828853,1532.290117
10.2100,-18.31867718,100.259143,1532.183771
10.2150,-18.48009697,100.5254908,1532.065659
10.2200,-18.64859831,100.7976387,1531.936473
10.2250,-18.82317271,101.075275,1531.795768
10.2300,-19.0033225,101.3578882,1531.643704
10.2350,-19.1888476,101.6464113,1531.481078
10.2400,-19.38081689,101.9409807,1531.30818
10.2450,-19.57792982,102.2413477,1531.125099
10.2500,-19.77978226,102.5485726,1530.932224
10.2550,-19.98663609,102.8608288,1530.728929
10.2600,-20.19810385,103.1785886,1530.515648
10.2650,-20.41450521,103.5019767,1530.292491
10.2700,-20.63495017,103.8304573,1530.059809
10.2750,-20.86026356,104.1649003,1529.818223
10.2800,-21.08966876,104.5054403,1529.567026
10.2850,-21.32336974,104.8510693,1529.306269
10.2900,-21.56047808,105.2024902,1529.035807
10.2950,-21.80070389,105.559611,1528.756225
10.3000,-22.04510995,105.9225597,1528.467607
10.3050,-22.29378665,106.2907167,1528.170835
10.3100,-22.54794731,106.6646452,1527.865833
10.3150,-22.80675368,107.0416891,1527.551815
10.3200,-23.07047874,107.4245097,1527.229028
10.3250,-23.34074171,107.8112614,1526.898186
10.3300,-23.61752175,108.2011084,1526.559024
10.3350,-23.8990991,108.5951986,1526.212108
10.3400,-24.18764635,108.9926881,1525.856634
10.3450,-24.48188841,109.3923748,1525.492972
10.3500,-24.78280638,109.793816,1525.121963
10.3550,-25.09036636,110.1980269,1524.743264
10.3600,-25.40371878,110.6036156,1524.357212
10.3650,-25.72379155,111.0098945,1523.964137
10.3700,-26.0503325,111.4165768,1523.563677
10.3750,-26.3833828,111.8234877,1523.156619
10.3800,-26.7217414,112.2303989,1522.743021
10.3850,-27.06623556,112.6373116,1522.323376
10.3900,-27.41566123,113.0440874,1521.898174
10.3950,-27.77026291,113.4491662,1521.465711
10.4000,-28.12906256,113.8523896,1521.026261
10.4050,-28.49346052,114.2537754,1520.580273
10.4100,-28.86191346,114.6515154,1520.127604
10.4150,-29.23516702,115.045959,1519.668352
10.4200,-29.61339736,115.4361507,1519.20335
10.4250,-29.99687855,115.8223486,1518.732685
10.4300,-30.38420667,116.2042118,1518.256154
10.4350,-30.77558547,116.5803978,1517.774275
10.4400,-31.17110697,116.9529525,1517.287752
10.4450,-31.57061701,117.3192599,1516.796083
10.4500,-31.9736344,117.6804917,1516.299674
10.4550,-32.3795668,118.035206,1515.798395
10.4600,-32.78850617,118.3833757,1515.293037
10.4650,-33.19939043,118.7244545,1514.783586
10.4700,-33.61124261,119.0591125,1514.270835
10.4750,-34.02362579,119.3854666,1513.75465
10.4800,-34.43780497,119.7031962,1513.235795
10.4850,-34.85220777,120.0131389,1512.71454
10.4900,-35.26671108,120.3156503,1512.190913
10.4950,-35.68043012,120.6095071,1511.665134
10.5000,-36.09492458,120.8949011,1511.138323
10.5050,-36.50868387,121.1725928,1510.610516
10.5100,-36.9214757,121.4419496,1510.081914
10.5150,-37.33318651,121.7029013,1509.553031
10.5200,-37.74339115,121.9564966,1509.02312
10.5250,-38.15198831,122.2017181,1508.492322
10.5300,-38.56077431,122.439099,1507.960214
10.5350,-38.96987266,122.6662795,1507.427388
10.5400,-39.37717338,122.8848119,1506.892696
10.5450,-39.7839944,123.0948974,1506.356063
10.5500,-40.1903218,123.29627,1505.81712
10.5550,-40.59637874,123.4901648,1505.275925
10.5600,-41.00282632,123.675639,1504.732076
10.5650,-41.40987392,123.8535976,1504.185898
10.5700,-41.81676493,124.0249106,1503.63698
10.5750,-42.22431476,124.1895535,1503.085748
10.5800,-42.6331075,124.3484225,1502.533124
10.5850,-43.04260973,124.5019826,1501.978346
10.5900,-43.45407395,124.6501758,1501.422037
10.5950,-43.86552672,124.7939595,1500.86316
10.6000,-44.27750838,124.9336282,1500.302521
10.6050,-44.68882639,125.0698502,1499.738891
10.6100,-45.09810118,125.2016013,1499.172043
10.6150,-45.50708219,125.3306722,1498.601987
10.6200,-45.91468041,125.4550165,1498.028635
10.6250,-46.32109752,125.5751855,1497.45174
10.6300,-46.72782381,125.691196,1496.87175
10.6350,-47.13471953,125.8029127,1496.288433
10.6400,-47.54261697,125.9102568,1495.701726
10.6450,-47.95085996,126.0146898,1495.111827
10.6500,-48.36014106,126.1150905,1494.51817
10.6550,-48.77067327,126.2119727,1493.920807
10.6600,-49.18254717,126.3042459,1493.31979
10.6650,-49.59538197,126.3942623,1492.714595
10.6700,-50.01019554,126.4809177,1492.104818
10.6750,-50.42717221,126.5639448,1491.489381
10.6800,-50.84641288,126.6432934,1490.868341
10.6850,-51.26742358,126.7185008,1490.241498
10.6900,-51.68949953,126.7912278,1489.608848
10.6950,-52.11428938,126.8612029,1488.971331
10.7000,-52.5420735,126.9300613,1488.328246
10.7050,-52.97136675,126.9968482,1487.679171
10.7100,-53.40361181,127.0623653,1487.024596
10.7150,-53.83699624,127.1265753,1486.364499
10.7200,-54.27160806,127.1907356,1485.698139
10.7250,-54.70741072,127.2541418,1485.026106
10.7300,-55.14438677,127.3169982,1484.34832
10.7350,-55.58204305,127.379589,1483.663915
10.7400,-56.02008896,127.4409327,1482.972593
10.7450,-56.45828734,127.5018483,1482.274226
10.7500,-56.89717263,127.5616445,1481.568455
10.7550,-57.33820217,127.6186023,1480.855525
10.7600,-57.78003467,127.6747622,1480.135538
10.7650,-58.22334877,127.7292375,1479.408027
10.7700,-58.66811544,127.7811486,1478.672168
10.7750,-59.11369781,127.8323369,1477.928882
10.7800,-59.55942097,127.8833126,1477.177544
10.7850,-60.00621804,127.9340526,1476.418769
10.7900,-60.45283793,127.9844879,1475.652837
10.7950,-60.90014732,128.0350734,1474.879119
10.8000,-61.34729602,128.0868658,1474.097532
10.8050,-61.79383717,128.1385193,1473.307438
10.8100,-62.23961059,128.1922195,1472.509516
10.8150,-62.68570967,128.2479124,1471.703401
10.8200,-63.13150372,128.304249,1470.889289
10.8250,-63.57704754,128.3626105,1470.067134
10.8300,-64.02026306,128.4225316,1469.237565
10.8350,-64.46111605,128.485281,1468.399796
10.8400,-64.90180458,128.5506623,1467.554445
10.8450,-65.34083827,128.6185176,1466.702166
10.8500,-65.77722309,128.6905816,1465.842185
10.8550,-66.21094477,128.7648055,1464.974595
10.8600,-66.64035919,128.8427847,1464.099222
10.8650,-67.0647981,128.9246078,1463.216261
10.8700,-67.48554223,129.0094767,1462.325819
10.8750,-67.90116719,129.0963854,1461.427122
10.8800,-68.31092216,129.1852054,1460.520418
10.8850,-68.71509437,129.2773296,1459.606596
10.8900,-69.11292381,129.3720387,1458.68529
10.8950,-69.50565964,129.4696031,1457.757801
10.9000,-69.89271655,129.5690227,1456.82345
10.9050,-70.27373695,129.6708188,1455.883411
10.9100,-70.64939207,129.7745674,1454.937734
10.9150,-71.01802661,129.8810935,1453.987317
10.9200,-71.37963676,129.9903212,1453.032625
10.9250,-71.73236611,130.103062,1452.073715
10.9300,-72.07542288,130.2173627,1451.109816
10.9350,-72.40996024,130.3340024,1450.142112
10.9400,-72.73526241,130.452843,1449.170699
10.9450,-73.05164445,130.5726225,1448.195139
10.9500,-73.35816734,130.6932474,1447.214421
10.9550,-73.65503863,130.8144369,1446.229212
10.9600,-73.94361133,130.9359648,1445.239441
10.9650,-74.22494282,131.0558999,1444.244406
10.9700,-74.49947113,131.1734732,1443.244526
10.9750,-74.7678328,131.2889556,1442.240066
10.9800,-75.03081426,131.4019111,1441.230894
10.9850,-75.28988938,131.5128499,1440.217185
10.9900,-75.54634345,131.621547,1439.198256
10.9950,-75.80004867,131.7287013,1438.174524
11.0000,-76.05080636,131.8342872,1437.146266
11.0050,-76.29883368,131.9391149,1436.11319
11.0100,-76.54342433,132.0456057,1435.075685
11.0150,-76.78547481,132.1528905,1434.032856
11.0200,-77.02614305,132.2617568,1432.985581
11.0250,-77.26352161,132.3722359,1431.933093
11.0300,-77.49891342,132.4851057,1430.875814
11.0350,-77.7328326,132.6003814,1429.813647
11.0400,-77.96456483,132.7176649,1428.746013
11.0450,-78.19389314,132.8374607,1427.672712
11.0500,-78.42004373,132.960874,1426.594071
11.0550,-78.64274101,133.0874493,1425.509724
11.0600,-78.86238804,133.2168975,1424.419255
11.0650,-79.08017763,133.3502907,1423.32311
11.0700,-79.29475873,133.4889457,1422.221208
11.0750,-79.50742014,133.6319201,1421.113044
11.0800,-79.71850756,133.7782071,1419.99838
11.0850,-79.92602728,133.9290763,1418.876391
11.0900,-80.13116303,134.0846163,1417.74645
11.0950,-80.33360358,134.2431067,1416.608329
11.1000,-80.53256495,134.4052484,1415.462076
11.1050,-80.7292394,134.5710553,1414.307014
11.1100,-80.92331231,134.7390912,1413.143471
11.1150,-81.11504537,134.9102072,1411.970499
11.1200,-81.30368694,135.0848675,1410.78857
11.1250,-81.4907863,135.2629402,1409.597691
11.1300,-81.67570952,135.4449911,1408.397274
11.1350,-81.8580419,135.6316969,1407.187378
11.1400,-82.03738248,135.8218692,1405.967911
11.1450,-82.21295025,136.0167989,1404.738442
11.1500,-82.38526835,136.2144813,1403.499678
11.1550,-82.55332426,136.4161834,1402.25138
11.1600,-82.71673453,136.6213334,1400.993647
11.1650,-82.87560579,136.829253,1399.725436
11.1700,-83.02861144,137.0396663,1398.44727
11.1750,-83.17573232,137.251756,1397.159071
11.1800,-83.31729361,137.4650806,1395.860413
11.1850,-83.45271763,137.6787732,1394.551211
11.1900,-83.58236291,137.8922098,1393.232082
11.1950,-83.70562633,138.103833,1391.902366
11.2000,-83.82261026,138.3138212,1390.562892
11.2050,-83.93275752,138.5213536,1389.213528
11.2100,-84.03521897,138.7267649,1387.854775
11.2150,-84.12983821,138.9292069,1386.486365
11.2200,-84.21606581,139.1279023,1385.108147
11.2250,-84.29499656,139.3221511,1383.720604
11.2300,-84.36714596,139.5130099,1382.324726
11.2350,-84.43139008,139.699,1380.920096
11.2400,-84.48775128,139.8787015,1379.506638
11.2450,-84.53752761,140.0519172,1378.08505
11.2500,-84.57982335,140.2199885,1376.655959
11.2550,-84.61467418,140.3803244,1375.219602
11.2600,-84.64317761,140.5343222,1373.776822
11.2650,-84.6634599,140.6815884,1372.328598
11.2700,-84.67563165,140.824084,1370.87473
11.2750,-84.68115975,140.9599845,1369.41541
11.2800,-84.67901215,141.0904553,1367.95142
11.2850,-84.66900742,141.2152046,1366.482595
11.2900,-84.65080155,141.3330694,1365.009244
11.2950,-84.62387534,141.4426546,1363.530633
11.3000,-84.58903056,141.5443247,1362.047316
11.3050,-84.5472941,141.6377057,1360.559203
11.3100,-84.49846862,141.7219092,1359.066013
11.3150,-84.44336153,141.7982064,1357.568665
11.3200,-84.38125233,141.866082,1356.067768
11.3250,-84.31249083,141.9258498,1354.562611
11.3300,-84.2365294,141.9787596,1353.053857
11.3350,-84.1532473,142.0260231,1351.541602
11.3400,-84.06361621,142.0679271,1350.026253
11.3450,-83.96559154,142.1055666,1348.509036
11.3500,-83.86037297,142.1382274,1346.988904
11.3550,-83.74551796,142.1691289,1345.466771
11.3600,-83.62245251,142.1977281,1343.942037
11.3650,-83.48933632,142.2241786,1342.41499
11.3700,-83.34751663,142.2478107,1340.885171
11.3750,-83.19726943,142.2686698,1339.352764
11.3800,-83.03794036,142.2875527,1337.817914
11.3850,-82.87296427,142.3026137,1336.280845
11.3900,-82.70202138,142.3138236,1334.741993
11.3950,-82.52562102,142.3228967,1333.202562
11.4000,-82.34553717,142.3290304,1331.661605
11.4050,-82.16258756,142.3345574,1330.120891
11.4100,-81.9763815,142.3395195,1328.579481
11.4150,-81.78677366,142.3440578,1327.0383
11.4200,-81.5935193,142.349381,1325.497037
11.4250,-81.39541355,142.3560867,1323.956337
11.4300,-81.19353513,142.3633998,1322.416297
11.4350,-80.98781736,142.3720064,1320.876657
11.4400,-80.77766978,142.3831697,1319.337927
11.4450,-80.56473661,142.3958536,1317.800062
11.4500,-80.34881697,142.4103037,1316.263217
11.4550,-80.13049962,142.427186,1314.727144
11.4600,-79.91084755,142.4462968,1313.192359
11.4650,-79.69034401,142.4686342,1311.659472
11.4700,-79.47034248,142.4939748,1310.12908
11.4750,-79.25096021,142.5235767,1308.60088
11.4800,-79.03158067,142.5580575,1307.074906
11.4850,-78.81142373,142.5984994,1305.55135
11.4900,-78.58932063,142.6450349,1304.029862
11.4950,-78.36578794,142.6973675,1302.510235
11.5000,-78.1401004,142.7567828,1300.991988
11.5050,-77.91243306,142.8223481,1299.474326
11.5100,-77.68344903,142.8925169,1297.956971
11.5150,-77.45334068,142.9673326,1296.439662
11.5200,-77.22470697,143.045254,1294.922335
11.5250,-76.99734194,143.1253787,1293.404245
11.5300,-76.77181188,143.2071608,1291.885417
11.5350,-76.5482113,143.2912992,1290.365557
11.5400,-76.32800258,143.3772895,1288.844668
11.5450,-76.10934626,143.4652499,1287.323113
11.5500,-75.89201157,143.5537824,1285.801246
11.5550,-75.67603777,143.6448396,1284.2786
11.5600,-75.45909005,143.738083,1282.754377
11.5650,-75.24226649,143.8333065,1281.228242
11.5700,-75.02460627,143.9294629,1279.700875
11.5750,-74.80542621,144.027751,1278.172701
11.5800,-74.58339165,144.1272706,1276.643885
11.5850,-74.35881357,144.2290189,1275.113941
11.5900,-74.13143584,144.3326608,1273.583029
11.5950,-73.9006908,144.4395942,1272.052445
11.6000,-73.6676756,144.5492731,1270.522044
11.6050,-73.43048795,144.6618844,1268.992509
11.6100,-73.18909754,144.7763048,1267.464134
11.6150,-72.94197648,144.8927947,1265.937027
11.6200,-72.68730976,145.0092907,1264.410737
11.6250,-72.42543676,145.1271918,1262.886378
11.6300,-72.15482245,145.2448742,1261.36321
11.6350,-71.87652633,145.3613334,1259.842227
11.6400,-71.58867461,145.4770649,1258.323336
11.6450,-71.29242624,145.5917064,1256.805923
11.6500,-70.98727631,145.7042558,1255.2902
11.6550,-70.67376465,145.8139843,1253.775473
11.6600,-70.35117874,145.9194141,1252.262268
11.6650,-70.0203663,146.0208389,1250.750406
11.6700,-69.68104859,146.1196136,1249.24035
11.6750,-69.33346302,146.213851,1247.731828
11.6800,-68.97844052,146.3037178,1246.224362
11.6850,-68.61485897,146.3897872,1244.718932
11.6900,-68.243848,146.4715952,1243.214779
11.6950,-67.86434925,146.5489846,1241.711594
11.7000,-67.47631776,146.6221487,1240.209582
11.7050,-67.07856306,146.6905931,1238.707426
11.7100,-66.67133055,146.7548344,1237.20592
11.7150,-66.25563327,146.8147943,1235.704558
11.7200,-65.83248989,146.8705716,1234.203964
11.7250,-65.40126239,146.9210098,1232.70378
11.7300,-64.96202055,146.9692949,1231.205389
11.7350,-64.5154262,147.014421,1229.707878
11.7400,-64.06363818,147.0548627,1228.211567
11.7450,-63.60611791,147.0911864,1226.715879
11.7500,-63.1437011,147.1242667,1225.221347
11.7550,-62.67658032,147.153219,1223.72753
11.7600,-62.20520982,147.1786253,1222.233516
11.7650,-61.73069136,147.1999682,1220.739777
11.7700,-61.2511086,147.2178099,1219.245039
11.7750,-60.767663,147.2313638,1217.749515
11.7800,-60.28081035,147.2414783,1216.252355
11.7850,-59.79198913,147.2473614,1214.753866
11.7900,-59.30192159,147.2492686,1213.253287
11.7950,-58.8118391,147.2481766,1211.750704
11.8000,-58.32291789,147.2425566,1210.245864
11.8050,-57.83685731,147.2346234,1208.7389
11.8100,-57.35274176,147.2252703,1207.228819
11.8150,-56.87086206,147.2131409,1205.716412
11.8200,-56.38806303,147.1999936,1204.200043
11.8250,-55.90419557,147.1858166,1202.680866
11.8300,-55.41863893,147.170077,1201.15835
11.8350,-54.93140917,147.1516163,1199.632241
11.8400,-54.44048553,147.131623,1198.102916
11.8450,-53.94601765,147.1087739,1196.569752
11.8500,-53.44678092,147.0835077,1195.032531
11.8550,-52.94276647,147.0543925,1193.492005
11.8600,-52.43344293,147.021276,1191.948874
11.8650,-51.91835986,146.9835787,1190.404103
11.8700,-51.39609847,146.9412635,1188.856679
11.8750,-50.86567051,146.8932103,1187.308273
11.8800,-50.32746441,146.8397511,1185.757622
11.8850,-49.77992881,146.7794026,1184.206353
11.8900,-49.22299129,146.7124366,1182.655178
11.8950,-48.65500439,146.6385733,1181.103631
11.9000,-48.07502485,146.556888,1179.551857
11.9050,-47.48354101,146.4674396,1178.000023
11.9100,-46.88076239,146.3696026,1176.447711
11.9150,-46.26760568,146.261934,1174.895554
11.9200,-45.64490161,146.1454238,1173.343408
11.9250,-45.01483073,146.0179052,1171.791828
11.9300,-44.37808464,145.8793427,1170.240352
11.9350,-43.73465441,145.7282773,1168.68938
11.9400,-43.08575928,145.5637064,1167.139877
11.9450,-42.4326294,145.3851097,1165.591842
11.9500,-41.77439542,145.1941935,1164.046283
11.9550,-41.11212576,144.989636,1162.503781
11.9600,-40.44470207,144.7730946,1160.964836
11.9650,-39.77181964,144.5444064,1159.429949
11.9700,-39.09404604,144.3027515,1157.899809
11.9750,-38.41007368,144.0510591,1156.375278
11.9800,-37.71925591,143.7883773,1154.856169
11.9850,-37.02146946,143.5144933,1153.342018
11.9900,-36.31649735,143.2309977,1151.834243
11.9950,-35.60428084,142.9383777,1150.332183
12.0000,-34.88515486,142.6374768,1148.837386
12.0050,-34.1604764,142.3273446,1147.350752
12.0100,-33.4310919,142.0096231,1145.871899
12.0150,-32.69532934,141.6847857,1144.401163
12.0200,-31.95321233,141.3525868,1142.93824
12.0250,-31.20595704,141.0154998,1141.483193
12.0300,-30.45397489,140.671859,1140.035684
12.0350,-29.69833421,140.3234676,1138.596589
12.0400,-28.9380165,139.9713603,1137.165151
12.0450,-28.17307307,139.6158308,1135.740952
12.0500,-27.40284098,139.2580972,1134.322888
12.0550,-26.62861117,138.899165,1132.911415
12.0600,-25.85044482,138.5389345,1131.507369
12.0650,-25.06799761,138.1782822,1130.110826
12.0700,-24.28325565,137.8187996,1128.721958
12.0750,-23.49614955,137.4609642,1127.34059
12.0800,-22.70731462,137.1053668,1125.966831
12.0850,-21.91545301,136.7526724,1124.599744
12.0900,-21.12028071,136.4036819,1123.239306
12.0950,-20.32016472,136.0588852,1121.885275
12.1000,-19.51342756,135.7209969,1120.53744
12.1050,-18.69937992,135.388993,1119.195461
12.1100,-17.87718989,135.063464,1117.859117
12.1150,-17.04562703,134.7462298,1116.527117
12.1200,-16.20543993,134.4375052,1115.200504
12.1250,-15.35486557,134.1372579,1113.877926
12.1300,-14.49220178,133.8464373,1112.559155
12.1350,-13.6152734,133.5655587,1111.243503
12.1400,-12.72420978,133.2934163,1109.931518
12.1450,-11.81820399,133.030236,1108.622672
12.1500,-10.89703933,132.7755373,1107.317178
12.1550,-9.959984402,132.5293027,1106.014822
12.1600,-9.005785782,132.2903862,1104.71485
12.1650,-8.033504088,132.0588083,1103.416901
12.1700,-7.043879874,131.8337386,1102.121689
12.1750,-6.035782818,131.6131277,1100.827461
12.1800,-5.009318142,131.3963341,1099.535357
12.1850,-3.962738169,131.1821591,1098.244513
12.1900,-2.897550036,130.9702412,1096.955642
12.1950,-1.814458241,130.7585438,1095.668702
12.2000,-0.7139556546,130.5462314,1094.384301
12.2050,0.4025610985,130.3310223,1093.10282
12.2100,1.534171478,130.1124556,1091.825414
12.2150,2.678517143,129.8899886,1090.552817
12.2200,3.833861103,129.6616443,1089.285867
12.2250,5.000161766,129.4281138,1088.025381
12.2300,6.175230913,129.1880116,1086.771891
12.2350,7.35851075,128.9427858,1085.526565
12.2400,8.547500101,128.6907141,1084.289367
12.2450,9.741565879,128.433639,1083.061076
12.2500,10.93818266,128.1701235,1081.842183
12.2550,12.13643905,127.8999149,1080.632816
12.2600,13.33444521,127.6230729,1079.433568
12.2650,14.52997962,127.3402364,1078.245442
12.2700,15.72138478,127.0500701,1077.068624
12.2750,16.90744566,126.7518519,1075.902609
12.2800,18.08603223,126.4464974,1074.749344
12.2850,19.25600674,126.1347816,1073.609225
12.2900,20.41569486,125.8168727,1072.482354
12.2950,21.56347973,125.4923536,1071.368994
12.3000,22.69867986,125.1613824,1070.268648
12.3050,23.82232309,124.8258677,1069.180927
12.3100,24.93354837,124.4849352,1068.105942
12.3150,26.03204548,124.1398874,1067.043621
12.3200,27.1179563,123.7918345,1065.993578
12.3250,28.19045978,123.4403816,1064.956122
12.3300,29.25131628,123.0862439,1063.929984
12.3350,30.30083201,122.7309265,1062.915439
12.3400,31.34002971,122.3741877,1061.912378
12.3450,32.36897105,122.0159684,1060.920476
12.3500,33.38651096,121.6549892,1059.939678
12.3550,34.39203162,121.2929318,1058.970514
12.3600,35.38608009,120.9302182,1058.012395
12.3650,36.36752988,120.5673214,1057.065006
12.3700,37.33819003,120.2042558,1056.12783
12.3750,38.29820718,119.8413778,1055.200954
12.3800,39.24740732,119.478418,1054.284729
12.3850,40.18569407,119.1163112,1053.378942
12.3900,41.11464396,118.7561383,1052.483264
12.3950,42.03567462,118.3991945,1051.597734
12.4000,42.94880381,118.04446,1050.722556
12.4050,43.85583397,117.6922176,1049.85738
12.4100,44.75722112,117.3422296,1049.002478
12.4150,45.65383954,116.9942534,1048.157962
12.4200,46.54624074,116.6469685,1047.323068
12.4250,47.43475416,116.3006179,1046.498655
12.4300,48.32049157,115.9542238,1045.684304
12.4350,49.20431232,115.6069928,1044.880044
12.4400,50.0871855,115.2582554,1044.085051
12.4450,50.97091723,114.908083,1043.299245
12.4500,51.85659844,114.555211,1042.521692
12.4550,52.74621166,114.1990569,1041.752028
12.4600,53.64039615,113.8378875,1040.989424
12.4650,54.54027995,113.4720444,1040.234034
12.4700,55.44708079,113.0990315,1039.484762
12.4750,56.36127085,112.7201377,1038.742106
12.4800,57.28236932,112.3331797,1038.005448
12.4850,58.20869949,111.9387211,1037.27491
12.4900,59.14104394,111.5352508,1036.550233
12.4950,60.07918803,111.1224412,1035.831012
12.5000,61.02112408,110.7003021,1035.117611
12.5050,61.96677313,110.270189,1034.41059
12.5100,62.91614564,109.8313346,1033.709024
12.5150,63.86924232,109.3850345,1033.013413
12.5200,64.82594905,108.9316622,1032.323648
12.5250,65.78410618,108.4703614,1031.639757
12.5300,66.74289364,108.0028941,1030.962817
12.5350,67.70106176,107.5291808,1030.292474
12.5400,68.65948627,107.0511856,1029.628987
12.5450,69.61792622,106.568635,1028.972551
12.5500,70.57508095,106.0818552,1028.323322
12.5550,71.52949562,105.5929373,1027.682216
12.5600,72.47994963,105.1016775,1027.049367
12.5650,73.42629651,104.6083247,1026.424315
12.5700,74.36742545,104.1151799,1025.80801
12.5750,75.30307292,103.6232405,1025.200742
12.5800,76.23275485,103.1344776,1024.602125
12.5850,77.15770472,102.6479235,1024.01158
12.5900,78.07648153,102.1645896,1023.429501
12.5950,78.98942745,101.6852378,1022.855769
12.6000,79.89705889,101.2108484,1022.29028
12.6050,80.79795636,100.7421293,1021.733509
12.6100,81.69354893,100.2795152,1021.184701
12.6150,82.58138024,99.82313979,1020.644237
12.6200,83.4622178,99.37409855,1020.111892
12.6250,84.33655084,98.93293358,1019.587497
12.6300,85.20306638,98.50040871,1019.071278
12.6350,86.06223057,98.07565377,1018.562694
12.6400,86.91242145,97.66014662,1018.062099
12.6450,87.7536627,97.25391248,1017.569627
12.6500,88.58546497,96.85863793,1017.085768
12.6550,89.40778093,96.47265124,1016.609896
12.6600,90.22058869,96.09605339,1016.141696
12.6650,91.02507006,95.72880769,1015.68111
12.6700,91.82152215,95.37139871,1015.228182
12.6750,92.61027337,95.02305594,1014.782427
12.6800,93.39201245,94.68579647,1014.343959
12.6850,94.16765552,94.35902334,1013.912467
12.6900,94.93777073,94.04209438,1013.487915
12.6950,95.70113551,93.73288474,1013.069979
12.7000,96.45831238,93.43135299,1012.65825
12.7050,97.21043264,93.13778124,1012.252736
12.7100,97.95793687,92.85272795,1011.853255
12.7150,98.69918185,92.57369759,1011.459591
12.7200,99.43607169,92.30040239,1011.071394
12.7250,100.1697367,92.03213976,1010.68807
12.7300,100.8988261,91.76735605,1010.30957
12.7350,101.6234481,91.50572283,1009.935727
12.7400,102.345741,91.24683586,1009.566218
12.7450,103.0653084,90.98942406,1009.200673
12.7500,103.7815735,90.73309182,1008.839517
12.7550,104.4959362,90.4771307,1008.48213
12.7600,105.208687,90.22225981,1008.128864
12.7650,105.9205249,89.96663681,1007.779208
12.7700,106.631728,89.71204593,1007.43363
12.7750,107.3433853,89.45705753,1007.091579
12.7800,108.0546035,89.20178842,1006.753268
12.7850,108.7668079,88.94513868,1006.418537
12.7900,109.481059,88.68669658,1006.086747
12.7950,110.1959597,88.42779625,1005.758769
12.8000,110.9123094,88.16678385,1005.434023
12.8050,111.6303686,87.90458004,1005.11245
12.8100,112.3493925,87.64170268,1004.794536
12.8150,113.0684267,87.37812299,1004.480246
12.8200,113.7873224,87.11374502,1004.169369
12.8250,114.5054721,86.84929723,1003.862255
12.8300,115.2235203,86.58546313,1003.558555
12.8350,115.9403233,86.32225027,1003.258425
12.8400,116.6555475,86.05889057,1002.961479
12.8450,117.367478,85.79652673,1002.668193
12.8500,118.0769134,85.53335484,1002.377786
12.8550,118.7837536,85.2714471,1002.090594
12.8600,119.4876732,85.01081457,1001.806635
12.8650,120.1883737,84.75171203,1001.525901
12.8700,120.8855838,84.49269988,1001.247977
12.8750,121.57901,84.23487963,1000.973074
12.8800,122.2687742,83.97666588,1000.70099
12.8850,122.953829,83.71930575,1000.431881
12.8900,123.6366432,83.46211549,1000.165182
12.8950,124.3170087,83.20494162,999.9007775
12.9000,124.9947346,82.94650315,999.6383567
12.9050,125.6697649,82.68592577,999.3776165
12.9100,126.3418256,82.42259751,999.1184233
12.9150,127.0120198,82.15645232,998.8606687
12.9200,127.6789624,81.88706461,998.6044899
12.9250,128.3434916,81.61381334,998.3496307
12.9300,129.0059551,81.33651125,998.0960891
12.9350,129.6665153,81.05522287,997.8438559
12.9400,130.3259683,80.7675903,997.5924859
12.9450,130.9829713,80.47377756,997.3422184
12.9500,131.6387138,80.1726766,997.0926097
12.9550,132.2919263,79.86419379,996.8438891
12.9600,132.9434344,79.5473867,996.5959268
12.9650,133.5921295,79.22086174,996.3484432
12.9700,134.2361144,78.88580018,996.1021606
12.9750,134.8741518,78.54322386,995.8574489
12.9800,135.5064804,78.19055433,995.6138021
12.9850,136.1320687,77.82835058,995.3718294
12.9900,136.7517808,77.45711503,995.131272
12.9950,137.3659303,77.07721375,994.8920868
13.0000,137.9730545,76.68789242,994.6544751
13.0050,138.5733184,76.28998534,994.4186805
13.0100,139.165819,75.88194446,994.1845569
13.0150,139.7509839,75.4655462,993.9525868
13.0200,140.3277027,75.0416148,993.7230893
13.0250,140.8941096,74.60925465,993.4961808
13.0300,141.4505722,74.17026342,993.2721264
13.0350,141.9952038,73.72451181,993.0512631
13.0400,142.5261143,73.27298321,992.8341604
13.0450,143.0400439,72.81555547,992.6210694
13.0500,143.5373451,72.35401562,992.4123374
13.0550,144.0157357,71.88855371,992.2081536
13.0600,144.4744741,71.42076586,992.0089342
13.0650,144.9110033,70.9522111,991.8150886
13.0700,145.3254903,70.48404615,991.6268
13.0750,145.7162586,70.01680327,991.4443306
13.0800,146.0845919,69.55172798,991.2676336
13.0850,146.4284232,69.09033533,991.0971175
13.0900,146.747787,68.63412041,990.9330116
13.0950,147.0419491,68.18288177,990.7751492
13.1000,147.3117501,67.73995838,990.624006
13.1050,147.5568271,67.30394538,990.4792103
13.1100,147.7775946,66.87645125,990.3408365
13.1150,147.976855,66.45773215,990.2085048
13.1200,148.1556199,66.04827639,990.0821123
13.1250,148.3164418,65.64852973,989.9611608
13.1300,148.4608864,65.25762593,989.8453113
13.1350,148.5914974,64.87637296,989.7342792
13.1400,148.7112279,64.50597329,989.6279743
13.1450,148.8216642,64.14405021,989.5255469
13.1500,148.9242365,63.79236098,989.4273529
13.1550,149.0230344,63.4491777,989.3322523
13.1600,149.119077,63.11378606,989.2399712
13.1650,149.2142739,62.78601224,989.1502818
13.1700,149.3113226,62.46665406,989.0629702
13.1750,149.4105481,62.15339237,988.9774108
13.1800,149.5134049,61.84658667,988.8933992
13.1850,149.621318,61.54541414,988.8106196
13.1900,149.7339367,61.24922726,988.7288421
13.1950,149.8523413,60.95881948,988.6480957
13.2000,149.9773482,60.67454282,988.5682719
13.2050,150.1091815,60.39624645,988.4891835
13.2100,150.2476278,60.12486967,988.4110458
13.2150,150.3932202,59.85965245,988.3336195
13.2200,150.5457715,59.60164023,988.2571083
13.2250,150.7036224,59.3494694,988.1813661
13.2300,150.8654048,59.10332742,988.1066034
13.2350,151.029342,58.86321406,988.0330935
13.2400,151.1934039,58.63008724,987.9612516
13.2450,151.3558044,58.40468768,987.8913922
13.2500,151.5143566,58.187794,987.8239636
13.2550,151.6690976,57.97916838,987.7589108
13.2600,151.8179669,57.7799062,987.6966512
13.2650,151.9584839,57.59242754,987.6380791
13.2700,152.0903725,57.41482181,987.5827781
13.2750,152.2148885,57.24671844,987.5305596
13.2800,152.3293825,57.09035837,987.4821696
13.2850,152.4327098,56.94414859,987.4373088
13.2900,152.5210325,56.80929641,987.3967208
13.2950,152.5943799,56.68696775,987.3606215
13.3000,152.6511079,56.57747189,987.3294541
13.3050,152.6898606,56.48115153,987.3035029
13.3100,152.7102194,56.39841325,987.2827758
13.3150,152.7117873,56.32987111,987.2674821
13.3200,152.69224,56.27467069,987.2577938
13.3250,152.6523582,56.2344243,987.2539122
13.3300,152.5910261,56.20824622,987.2558891
13.3350,152.5097479,56.19676808,987.2635434
13.3400,152.4078427,56.19930272,987.2767782
13.3450,152.2873421,56.21703302,987.2958439
13.3500,152.1482477,56.24847974,987.3202491
13.3550,151.9912057,56.29448616,987.3502349
13.3600,151.8166792,56.35326508,987.3854287
13.3650,151.6267884,56.42416988,987.4256524
13.3700,151.4206643,56.50676686,987.470912
13.3750,151.1989198,56.60051417,987.5210967
13.3800,150.9612802,56.70564956,987.5765867
13.3850,150.7082281,56.8210752,987.6370387
13.3900,150.4400652,56.94670803,987.7024589
13.3950,150.1573132,57.08157741,987.772822
13.4000,149.8597056,57.22468854,987.8480278
13.4050,149.5496027,57.37577125,987.9278353
13.4100,149.2263577,57.53420531,988.0123477
13.4150,148.8893555,57.69931041,988.1015158
13.4200,148.5385075,57.87094745,988.1955964
13.4250,148.1736836,58.04867686,988.2945864
13.4300,147.7961938,58.23237047,988.3984676
13.4350,147.4061114,58.42038394,988.5070379
13.4400,147.0023478,58.61240126,988.6204734
13.4450,146.5861658,58.80941614,988.7390672
13.4500,146.1570315,59.01026663,988.862758
13.4550,145.7135949,59.21430581,988.9919782
13.4600,145.2569612,59.42194034,989.1268611
13.4650,144.7866457,59.63230858,989.2674387
13.4700,144.3021508,59.84428338,989.4136566
13.4750,143.8038039,60.05895941,989.5659492
13.4800,143.2920552,60.27627884,989.7245716
13.4850,142.7653761,60.49626557,989.8898727
13.4900,142.2248993,60.71780253,990.061766
13.4950,141.6697957,60.94192871,990.240692
13.5000,141.0999578,61.16909674,990.4270216
13.5050,140.5142441,61.39854566,990.6209373
13.5100,139.9132197,61.63102359,990.8227691
13.5150,139.295102,61.86586162,991.0326747
13.5200,138.6603547,62.10217729,991.2504619
13.5250,138.0077366,62.34201437,991.476813
13.5300,137.3361898,62.58443834,991.7119207
13.5350,136.6451121,62.83052651,991.9561175
13.5400,135.9338387,63.08116183,992.2095601
13.5450,135.2018485,63.33575216,992.4723563
13.5500,134.4492993,63.59469008,992.7445435
13.5550,133.675492,63.85819944,993.0262343
13.5600,132.8790204,64.12782567,993.3179074
13.5650,132.0609285,64.40300893,993.6193668
13.5700,131.2204412,64.684508,993.9306275
13.5750,130.3560882,64.97332804,994.2521426
13.5800,129.4683629,65.26797658,994.5836676
13.5850,128.5583866,65.57099606,994.9253565
13.5900,127.6259952,65.88152366,995.2772311
13.5950,126.6719835,66.20076996,995.6393132
13.6000,125.6972364,66.52798018,996.0113826
13.6050,124.7014393,66.86278836,996.3932372
13.6100,123.6840113,67.20608538,996.7855348
13.6150,122.6456756,67.55614707,997.1877632
13.6200,121.5884814,67.91462848,997.6000319
13.6250,120.5125724,68.28019114,998.0222497
13.6300,119.4190815,68.65299925,998.4544521
13.6350,118.3081352,69.03218789,998.8964769
13.6400,117.1815473,69.41870996,999.3483893
13.6450,116.0386899,69.81097654,999.8100802
13.6500,114.8805793,70.20897767,1000.281659
13.6550,113.7075257,70.61257116,1000.762949
13.6600,112.5198048,71.02230195,1001.254423
13.6650,111.3176254,71.43674382,1001.755758
13.6700,110.1021791,71.8546552,1002.266859
13.6750,108.8740444,72.2758645,1002.787579
13.6800,107.6363433,72.70012167,1003.317313
13.6850,106.3901942,73.12730518,1003.856268
13.6900,105.1347605,73.55498939,1004.404387
13.6950,103.8729241,73.98412793,1004.961314
13.7000,102.606176,74.41404491,1005.526923
13.7050,101.3334043,74.84453943,1006.101572
13.7100,100.0566135,75.27489257,1006.685192
13.7150,98.77726394,75.70271741,1007.277068
13.7200,97.49599391,76.12868169,1007.877485
13.7250,96.21326268,76.55197545,1008.486545
13.7300,94.92994164,76.97083086,1009.104026
13.7350,93.64645905,77.38607332,1009.730427
13.7400,92.36406081,77.79695433,1010.365497
13.7450,91.08255996,78.20129512,1011.009098
