type,name,time_units,begin_time,frequency,count,units
signal_3d,"Noraxon MyoMotion-Trajectories-Elbow RT","s",0.0000,200,5108,"mm"

time,x,y,z
0.0000,186.0058217,-8.557126368,1237.982827
0.0050,185.968925,-8.529530571,1237.991925
0.0100,185.9320312,-8.501933236,1238.001029
0.0150,185.8951401,-8.474334364,1238.01014
0.0200,185.8529514,-8.4468862,1238.019899
0.0250,185.8051799,-8.420194478,1238.030247
0.0300,185.7515528,-8.394881212,1238.041118
0.0350,185.6918141,-8.371552523,1238.052451
0.0400,185.6257286,-8.35077111,1238.064186
0.0450,185.5530858,-8.333037413,1238.076274
0.0500,185.473704,-8.318776113,1238.088673
0.0550,185.387439,-8.308326683,1238.10135
0.0600,185.2942,-8.301938676,1238.114283
0.0650,185.1939695,-8.299769183,1238.127454
0.0700,185.0868234,-8.30188014,1238.140849
0.0750,184.9729499,-8.308237836,1238.154454
0.0800,184.8526709,-8.318716824,1238.168254
0.0850,184.7264607,-8.33310699,1238.182228
0.0900,184.5949565,-8.351123961,1238.196344
0.0950,184.4589607,-8.372424265,1238.210559
0.1000,184.319438,-8.396623225,1238.22481
0.1050,184.177508,-8.423311178,1238.23902
0.1100,184.0344369,-8.452064702,1238.253091
0.1150,183.8916283,-8.482453162,1238.266907
0.1200,183.7506075,-8.514043045,1238.280331
0.1250,183.6129998,-8.546402498,1238.293213
0.1300,183.4804973,-8.579107633,1238.30539
0.1350,183.3548114,-8.611749841,1238.31669
0.1400,183.2376149,-8.643945123,1238.326944
0.1450,183.1304824,-8.675346249,1238.335985
0.1500,183.0348331,-8.705652343,1238.343665
0.1550,182.8784068,-8.749762069,1238.35741
0.1600,182.735316,-8.793282409,1238.369513
0.1650,182.6066565,-8.837475106,1238.3796
0.1700,182.4926785,-8.880770051,1238.387888
0.1750,182.3925287,-8.924058497,1238.394334
0.1800,182.3073921,-8.967111802,1238.398813
0.1850,182.2357524,-9.010316033,1238.401458
0.1900,182.1765689,-9.052617888,1238.402587
0.1950,182.1305971,-9.094677533,1238.401992
0.2000,182.0951249,-9.135450671,1238.400214
0.2050,182.0690211,-9.175244759,1238.397362
0.2100,182.0507256,-9.213437116,1238.393755
0.2150,182.0378753,-9.2504378,1238.38965
0.2200,182.0298226,-9.286204856,1238.385148
0.2250,182.0245314,-9.320714136,1238.380529
0.2300,182.0194074,-9.353648463,1238.376198
0.2350,182.0146976,-9.385071414,1238.372119
0.2400,182.0092232,-9.4137003,1238.368654
0.2450,182.0012993,-9.44082293,1238.365824
0.2500,181.9901363,-9.466739112,1238.363686
0.2550,181.975541,-9.491803016,1238.362199
0.2600,181.9566338,-9.515974769,1238.361492
0.2650,181.9324797,-9.540169224,1238.361538
0.2700,181.9043598,-9.564337286,1238.362166
0.2750,181.8708273,-9.589468779,1238.363421
0.2800,181.8334676,-9.614577515,1238.365233
0.2850,181.7926813,-9.642083511,1238.367157
0.2900,181.749359,-9.670454858,1238.369306
0.2950,181.7026208,-9.70120114,1238.371567
0.3000,181.6535608,-9.735162138,1238.373651
0.3050,181.6022621,-9.772301614,1238.375549
0.3100,181.5487762,-9.812468547,1238.377289
0.3150,181.4953792,-9.856389175,1238.378429
0.3200,181.4410469,-9.904841795,1238.37899
0.3250,181.3869222,-9.958006415,1238.378784
0.3300,181.3323618,-10.0154986,1238.377968
0.3350,181.2786921,-10.07688737,1238.376424
0.3400,181.225172,-10.14155525,1238.374347
0.3450,181.1718914,-10.20946669,1238.371742
0.3500,181.1191548,-10.28034068,1238.36861
0.3550,181.0670785,-10.35389739,1238.364971
0.3600,181.0144429,-10.43030045,1238.360985
0.3650,180.9621218,-10.5081542,1238.356751
0.3700,180.9117991,-10.58690073,1238.352112
0.3750,180.8622542,-10.66663146,1238.347224
0.3800,180.813167,-10.74585208,1238.342369
0.3850,180.7656324,-10.82509616,1238.337292
0.3900,180.7187,-10.90435806,1238.332132
0.3950,180.6737676,-10.98318896,1238.326764
0.4000,180.630299,-11.06173056,1238.321251
0.4050,180.5886107,-11.13859941,1238.315747
0.4100,180.5485237,-11.21446096,1238.310193
0.4150,180.5103574,-11.28858516,1238.304639
0.4200,180.4744735,-11.36166139,1238.298926
0.4250,180.4403207,-11.43257136,1238.293309
0.4300,180.4087098,-11.50211903,1238.287541
0.4350,180.3790418,-11.57016927,1238.281735
0.4400,180.3521548,-11.63612033,1238.275861
0.4450,180.3266278,-11.69950331,1238.270183
0.4500,180.3044484,-11.76018342,1238.264443
0.4550,180.284083,-11.81818016,1238.258852
0.4600,180.2655506,-11.87398603,1238.253327
0.4650,180.2488819,-11.92663673,1238.248012
0.4700,180.2346368,-11.9761614,1238.242824
0.4750,180.2227291,-12.02302323,1238.237712
0.4800,180.212732,-12.06740767,1238.232693
0.4850,180.2049837,-12.10838841,1238.22787
0.4900,180.2002456,-12.14697954,1238.222979
0.4950,180.1970428,-12.18253956,1238.218314
0.5000,180.1964905,-12.21563576,1238.213646
0.5050,180.1981072,-12.24558088,1238.209131
0.5100,180.2016036,-12.27368041,1238.20462
0.5150,180.2079053,-12.29930631,1238.200072
0.5200,180.2157322,-12.32329607,1238.195547
0.5250,180.2254814,-12.34603395,1238.190921
0.5300,180.2368572,-12.36833771,1238.186128
0.5350,180.2502293,-12.39010326,1238.181115
0.5400,180.2641952,-12.41269654,1238.175891
0.5450,180.2790177,-12.43540746,1238.170523
0.5500,180.2946959,-12.45798705,1238.165049
0.5550,180.3102323,-12.4811653,1238.159501
0.5600,180.3257568,-12.50506153,1238.153848
0.5650,180.3417773,-12.52873996,1238.148163
0.5700,180.3576654,-12.55328058,1238.142367
0.5750,180.3744137,-12.57810187,1238.1364
0.5800,180.392503,-12.6036569,1238.130137
0.5850,180.4111376,-12.62934931,1238.123775
0.5900,180.4306489,-12.65515088,1238.117265
0.5950,180.4522621,-12.68084573,1238.110477
0.6000,180.4758383,-12.70637026,1238.103434
0.6050,180.5012501,-12.73116053,1238.096235
0.6100,180.5292094,-12.75650847,1238.088586
0.6150,180.5588137,-12.78186385,1238.080705
0.6200,180.5912558,-12.80703116,1238.072451
0.6250,180.6250468,-12.83139845,1238.06412
0.6300,180.6612979,-12.85576115,1238.055434
0.6350,180.6988283,-12.88037444,1238.046524
0.6400,180.7376549,-12.90453606,1238.037504
0.6450,180.7784018,-12.92787791,1238.028327
0.6500,180.8203656,-12.95111638,1238.018991
0.6550,180.8631014,-12.97394722,1238.009598
0.6600,180.9066435,-12.99548374,1238.000288
0.6650,180.9506146,-13.01688972,1237.990928
0.6700,180.9939922,-13.03728458,1237.981809
0.6750,181.0366838,-13.05681825,1237.97291
0.6800,181.0785134,-13.07609105,1237.964176
0.6850,181.1185787,-13.09379204,1237.955928
0.6900,181.1568958,-13.11028458,1237.948119
0.6950,181.1934188,-13.12483841,1237.940868
0.7000,181.2279629,-13.13747166,1237.934178
0.7050,181.26067,-13.14822263,1237.928041
0.7100,181.2920974,-13.15676789,1237.922414
0.7150,181.3211292,-13.16386963,1237.917354
0.7200,181.347603,-13.16950602,1237.912882
0.7250,181.373542,-13.17400917,1237.908669
0.7300,181.397399,-13.17797155,1237.904841
0.7350,181.4205149,-13.18146968,1237.901199
0.7400,181.44251,-13.18614174,1237.897554
0.7450,181.4654511,-13.19214853,1237.893601
0.7500,181.486522,-13.20078178,1237.889537
0.7550,181.5079322,-13.21221418,1237.885034
0.7600,181.5293826,-13.22709683,1237.880029
0.7650,181.5517103,-13.2460395,1237.874335
0.7700,181.5748728,-13.26962102,1237.867858
0.7750,181.5997659,-13.29741535,1237.860534
0.7800,181.6263005,-13.32977092,1237.852333
0.7850,181.6562396,-13.3669603,1237.84297
0.7900,181.6884493,-13.40926156,1237.83256
0.7950,181.7246083,-13.45576286,1237.821012
0.8000,181.7639443,-13.50752908,1237.808265
0.8050,181.8069037,-13.5649544,1237.794215
0.8100,181.8537187,-13.62729879,1237.778931
0.8150,181.9030342,-13.69485028,1237.762559
0.8200,181.9557415,-13.76669386,1237.745119
0.8250,182.0099765,-13.84191614,1237.726994
0.8300,182.0664057,-13.91997698,1237.70818
0.8350,182.1236755,-14.00177055,1237.688735
0.8400,182.1812332,-14.08517812,1237.66904
0.8450,182.2390808,-14.17055336,1237.649047
0.8500,182.2953551,-14.25775935,1237.629032
0.8550,182.349185,-14.34618393,1237.609203
0.8600,182.3989078,-14.43518154,1237.589879
0.8650,182.4439339,-14.52420492,1237.571213
0.8700,182.4821534,-14.61268722,1237.553582
0.8750,182.5124777,-14.70013377,1237.537194
0.8800,182.5338227,-14.7860191,1237.522267
0.8850,182.5452431,-14.86992407,1237.508993
0.8900,182.5454023,-14.9509872,1237.497665
0.8950,182.5337251,-15.02987674,1237.488264
0.9000,182.5095397,-15.10535845,1237.48106
0.9050,182.4730473,-15.17920759,1237.475768
0.9100,182.4235762,-15.24945026,1237.472758
0.9150,182.360818,-15.31810536,1237.471788
0.9200,182.2851884,-15.38339288,1237.473061
0.9250,182.1977601,-15.44701174,1237.476202
0.9300,182.0992911,-15.50828591,1237.481197
0.9350,181.9893631,-15.56668485,1237.488184
0.9400,181.8692386,-15.62462541,1237.496647
0.9450,181.7398755,-15.68158652,1237.506555
0.9500,181.6029452,-15.73747311,1237.517679
0.9550,181.4587547,-15.79226145,1237.529999
0.9600,181.3094526,-15.84736735,1237.543011
0.9650,181.1563802,-15.90205422,1237.55665
0.9700,181.0003099,-15.95671934,1237.570744
0.9750,180.8429364,-16.01056196,1237.585176
0.9800,180.6861705,-16.06479884,1237.599501
0.9850,180.5310261,-16.11912608,1237.613625
0.9900,180.3787248,-16.17265709,1237.627484
0.9950,180.2294824,-16.22702814,1237.640806
1.0000,180.0867802,-16.28221049,1237.653112
1.0050,179.9504769,-16.33781317,1237.664455
1.0100,179.8214307,-16.39393009,1237.674694
1.0150,179.7017132,-16.44961897,1237.683653
1.0200,179.5926156,-16.50591564,1237.690997
1.0250,179.4932985,-16.5624756,1237.696875
1.0300,179.4058771,-16.61991035,1237.700892
1.0350,179.3310428,-16.67828929,1237.702914
1.0400,179.2693698,-16.73672623,1237.702984
1.0450,179.2205498,-16.79621735,1237.700996
1.0500,179.1847779,-16.85676568,1237.696915
1.0550,179.1618349,-16.9182966,1237.690778
1.0600,179.1520473,-16.98070884,1237.682557
1.0650,179.1538689,-17.04442244,1237.67241
1.0700,179.1670257,-17.10964146,1237.660351
1.0750,179.1902516,-17.17563667,1237.646672
1.0800,179.2229903,-17.24312629,1237.631361
1.0850,179.2633864,-17.31186646,1237.614713
1.0900,179.3109833,-17.38059518,1237.596983
1.0950,179.3631532,-17.45090447,1237.57834
1.1000,179.4194972,-17.52153662,1237.559014
1.1050,179.4790483,-17.5921784,1237.539188
1.1100,179.5406637,-17.66211774,1237.519133
1.1150,179.6047419,-17.73197149,1237.498706
1.1200,179.6702898,-17.80153106,1237.478073
1.1250,179.7371161,-17.87059148,1237.457297
1.1300,179.8049933,-17.93945492,1237.436362
1.1350,179.873177,-18.00752175,1237.415459
1.1400,179.9419405,-18.07562478,1237.394428
1.1450,180.0102477,-18.14227356,1237.37362
1.1500,180.0798612,-18.20837567,1237.352662
1.1550,180.149886,-18.27301388,1237.331795
1.1600,180.2209319,-18.33730571,1237.310781
1.1650,180.2935634,-18.40141183,1237.28952
1.1700,180.3676867,-18.4651042,1237.26804
1.1750,180.4445087,-18.52915013,1237.246074
1.1800,180.5234379,-18.59390734,1237.223646
1.1850,180.6047008,-18.65977464,1237.200671
1.1900,180.6893889,-18.72808592,1237.176821
1.1950,180.7766713,-18.79740431,1237.152395
1.2000,180.8672467,-18.86865534,1237.127168
1.2050,180.9615418,-18.94179627,1237.10108
1.2100,181.0594219,-19.01884165,1237.073884
1.2150,181.1609106,-19.09783666,1237.04583
1.2200,181.2660766,-19.18074072,1237.016636
1.2250,181.3760687,-19.26704997,1236.986207
1.2300,181.4899606,-19.35725043,1236.95462
1.2350,181.608843,-19.45225666,1236.921604
1.2400,181.7331456,-19.55091578,1236.887249
1.2450,181.8629049,-19.65406252,1236.851441
1.2500,181.9980908,-19.76147368,1236.814233
1.2550,182.1395137,-19.87372124,1236.775446
1.2600,182.2869204,-19.99081667,1236.735115
1.2650,182.4396178,-20.11177483,1236.693472
1.2700,182.5985412,-20.23679034,1236.650385
1.2750,182.7627666,-20.36661803,1236.605894
1.2800,182.9329217,-20.4992997,1236.560172
1.2850,183.1078542,-20.6349232,1236.513372
1.2900,183.2880555,-20.77340737,1236.465453
1.2950,183.4733403,-20.91414923,1236.416532
1.3000,183.6629929,-21.05557998,1236.366894
1.3050,183.8554468,-21.19815859,1236.316704
1.3100,184.0507147,-21.34119593,1236.266058
1.3150,184.2479844,-21.48458946,1236.215068
1.3200,184.4459871,-21.62730275,1236.164019
1.3250,184.6450008,-21.77017006,1236.112782
1.3300,184.8430716,-21.91019649,1236.061975
1.3350,185.038729,-22.04840382,1236.011667
1.3400,185.2321354,-22.183739,1235.961937
1.3450,185.4213838,-22.31585232,1235.913068
1.3500,185.6079788,-22.44424604,1235.864916
1.3550,185.79063,-22.56866319,1235.817669
1.3600,185.9682358,-22.68830926,1235.771553
1.3650,186.1412592,-22.80341026,1235.726456
1.3700,186.309065,-22.91336683,1235.682533
1.3750,186.4714368,-23.01905471,1235.639689
1.3800,186.6285307,-23.11952181,1235.598002
1.3850,186.7799196,-23.21634595,1235.557331
1.3900,186.925618,-23.30918473,1235.517691
1.3950,187.0671243,-23.39783134,1235.478919
1.4000,187.2040836,-23.48211062,1235.441071
1.4050,187.337545,-23.56240934,1235.403967
1.4100,187.4666237,-23.63927804,1235.367631
1.4150,187.5917317,-23.71267644,1235.332015
1.4200,187.7126561,-23.78319437,1235.297064
1.4250,187.8303783,-23.85124948,1235.2626
1.4300,187.9441949,-23.91645189,1235.22873
1.4350,188.0553684,-23.9792462,1235.195252
1.4400,188.1629984,-24.04064146,1235.162143
1.4450,188.2686917,-24.1009564,1235.129165
1.4500,188.3709555,-24.1597007,1235.096527
1.4550,188.4718021,-24.21760494,1235.063904
1.4600,188.5709906,-24.27448118,1235.031322
1.4650,188.6682505,-24.331086,1234.998728
1.4700,188.7643409,-24.38711688,1234.966068
1.4750,188.8578713,-24.44333876,1234.933403
1.4800,188.9501142,-24.50036165,1234.900523
1.4850,189.0413099,-24.55682099,1234.867538
1.4900,189.1309427,-24.61289435,1234.834481
1.4950,189.2193066,-24.66962254,1234.801199
1.5000,189.3065215,-24.72704542,1234.767674
1.5050,189.3914094,-24.7848364,1234.734082
1.5100,189.4738473,-24.84197017,1234.700555
1.5150,189.5541667,-24.89943621,1234.666945
1.5200,189.6313545,-24.95671812,1234.633434
1.5250,189.7049519,-25.01421524,1234.600038
1.5300,189.7744204,-25.07129582,1234.566886
1.5350,189.8391954,-25.12777959,1234.534067
1.5400,189.899362,-25.18441438,1234.501493
1.5450,189.9539091,-25.24050647,1234.469363
1.5500,190.0027853,-25.29680842,1234.437595
1.5550,190.0455539,-25.35359599,1234.406218
1.5600,190.0810267,-25.40971303,1234.375499
1.5650,190.1092816,-25.46542621,1234.345404
1.5700,190.130468,-25.52051634,1234.315931
1.5750,190.1461101,-25.57459842,1234.286959
1.5800,190.1540296,-25.62719921,1234.258799
1.5850,190.1559157,-25.67845824,1234.231237
1.5900,190.1511704,-25.72780157,1234.204412
1.5950,190.1398881,-25.77461598,1234.178386
1.6000,190.1210859,-25.81841109,1234.153343
1.6050,190.0969528,-25.85895092,1234.129054
1.6100,190.0671904,-25.89621995,1234.105555
1.6150,190.0311789,-25.92981866,1234.08297
1.6200,189.9901822,-25.95861895,1234.061284
1.6250,189.9440958,-25.9821728,1234.040561
1.6300,189.8950434,-26.0018186,1234.020407
1.6350,189.8418027,-26.01621905,1234.001117
1.6400,189.7849437,-26.02588754,1233.982581
1.6450,189.7249842,-26.03136233,1233.964681
1.6500,189.6618402,-26.03228273,1233.947468
1.6550,189.5959515,-26.02867916,1233.930891
1.6600,189.5290438,-26.02103542,1233.914698
1.6650,189.4609139,-26.00798024,1233.899079
1.6700,189.3921183,-25.99004768,1233.8839
1.6750,189.3233981,-25.96776615,1233.869028
1.6800,189.2551377,-25.94059544,1233.854486
1.6850,189.1887927,-25.90737822,1233.840245
1.6900,189.1240048,-25.86904913,1233.826252
1.6950,189.0601845,-25.82502236,1233.812638
1.7000,188.9989222,-25.77589201,1233.79916
1.7050,188.9395612,-25.72143988,1233.785924
1.7100,188.8824776,-25.66130094,1233.772931
1.7150,188.827488,-25.59560118,1233.760196
1.7200,188.7752899,-25.52243994,1233.747852
1.7250,188.7266228,-25.44187867,1233.735813
1.7300,188.681884,-25.35401237,1233.724038
1.7350,188.6399473,-25.25866796,1233.712689
1.7400,188.6020403,-25.15451072,1233.701773
1.7450,188.5669793,-25.04251054,1233.691336
1.7500,188.5362619,-24.92196549,1233.681292
1.7550,188.5084087,-24.7930938,1233.671811
1.7600,188.4837526,-24.6555412,1233.662906
1.7650,188.4607105,-24.50975016,1233.654725
1.7700,188.4391908,-24.35613914,1233.647241
1.7750,188.4187469,-24.19370588,1233.640637
1.7800,188.3981271,-24.0230769,1233.634999
1.7850,188.3773283,-23.84531409,1233.630227
1.7900,188.3551487,-23.66058899,1233.62648
1.7950,188.3320088,-23.46939795,1233.623656
1.8000,188.3065887,-23.27196105,1233.621898
1.8050,188.2794838,-23.06915162,1233.621087
1.8100,188.2501037,-22.86255367,1233.621115
1.8150,188.2169209,-22.6522303,1233.622177
1.8200,188.1807395,-22.43892175,1233.62411
1.8250,188.1397745,-22.22213608,1233.627184
1.8300,188.0943221,-22.00248126,1233.63132
1.8350,188.0440544,-21.78056973,1233.636504
1.8400,187.9878836,-21.55641797,1233.64288
1.8450,187.9270225,-21.33026945,1233.650264
1.8500,187.8611197,-21.1003754,1233.658944
1.8550,187.7899386,-20.86583423,1233.669071
1.8600,187.7141835,-20.6271226,1233.680536
1.8650,187.6352578,-20.38394661,1233.693189
1.8700,187.552085,-20.13578749,1233.707247
1.8750,187.4648409,-19.88154957,1233.722846
1.8800,187.3743641,-19.6208651,1233.739931
1.8850,187.2812521,-19.35302547,1233.758556
1.8900,187.1848914,-19.0773986,1233.778927
1.8950,187.0859656,-18.79282511,1233.801084
1.9000,186.984499,-18.49980571,1233.825003
1.9050,186.8815272,-18.19821741,1233.850588
1.9100,186.7751717,-17.88706208,1233.878238
1.9150,186.6670156,-17.56693953,1233.907691
1.9200,186.5554014,-17.23756785,1233.93922
1.9250,186.4407425,-16.90045718,1233.972586
1.9300,186.3206942,-16.55518224,1234.008183
1.9350,186.1963946,-16.2024241,1234.045781
1.9400,186.0669472,-15.84228712,1234.085528
1.9450,185.9328592,-15.47522784,1234.127309
1.9500,185.7927521,-15.10199078,1234.171231
1.9550,185.64606,-14.72371023,1234.217225
1.9600,185.4913312,-14.34109667,1234.265418
1.9650,185.3281514,-13.95522923,1234.315729
1.9700,185.1568083,-13.56548943,1234.3682
1.9750,184.9765128,-13.1719523,1234.422941
1.9800,184.7883718,-12.77481093,1234.479779
1.9850,184.5913535,-12.37406159,1234.538871
1.9900,184.386499,-11.97076866,1234.599942
1.9950,184.174532,-11.56543022,1234.662848
2.0000,183.9546835,-11.15819205,1234.727695
2.0050,183.7265715,-10.75016494,1234.794403
2.0100,183.4904909,-10.34217399,1234.862848
2.0150,183.2472615,-9.932582374,1234.933192
2.0200,182.995436,-9.521817169,1235.005582
2.0250,182.7355437,-9.109132527,1235.080065
2.0300,182.4687669,-8.693135008,1235.156737
2.0350,182.1956251,-8.273476509,1235.23558
2.0400,181.9168252,-7.850325759,1235.316502
2.0450,181.6330088,-7.423818667,1235.399443
2.0500,181.3431099,-6.993392977,1235.484658
2.0550,181.0454108,-6.558596471,1235.572502
2.0600,180.7405885,-6.120225448,1235.662772
2.0650,180.4297225,-5.678512735,1235.755312
2.0700,180.1122587,-5.234003469,1235.850147
2.0750,179.7882102,-4.788157769,1235.947083
2.0800,179.4572911,-4.340631608,1236.046274
2.0850,179.1186227,-3.892072628,1236.147761
2.0900,178.7726203,-3.444034642,1236.251265
2.0950,178.4185263,-2.996443588,1236.356939
2.1000,178.0564603,-2.549462249,1236.464784
2.1050,177.6859536,-2.102998955,1236.574893
2.1100,177.3080298,-1.656293555,1236.687278
2.1150,176.9242611,-1.20994853,1236.801605
2.1200,176.5340305,-0.7625393648,1236.918263
2.1250,176.1386304,-0.316272684,1237.036686
2.1300,175.7375411,0.1288403801,1237.156975
2.1350,175.3307832,0.5735811044,1237.279281
2.1400,174.9187968,1.018658112,1237.403688
2.1450,174.5019141,1.463174297,1237.530007
2.1500,174.0799309,1.905159907,1237.657933
2.1550,173.6529588,2.345738377,1237.787693
2.1600,173.2220371,2.784923905,1237.919107
2.1650,172.785326,3.222752125,1238.05253
2.1700,172.343754,3.660156441,1238.188036
2.1750,171.8968226,4.097315446,1238.325741
2.1800,171.4451264,4.535008871,1238.465741
2.1850,170.9887388,4.972928358,1238.607994
2.1900,170.5275885,5.410263267,1238.752355
2.1950,170.0605752,5.847455486,1238.899186
2.2000,169.5877322,6.284235354,1239.048451
2.2050,169.1080826,6.720872949,1239.200425
2.2100,168.6217644,7.157163972,1239.355087
2.2150,168.1272641,7.593500622,1239.512883
2.2200,167.6250418,8.028142143,1239.673407
2.2250,167.1134655,8.462212708,1239.837266
2.2300,166.5946815,8.896844744,1240.004343
2.2350,166.068621,9.333737534,1240.175054
2.2400,165.5348951,9.773735448,1240.349685
2.2450,164.9947858,10.21773932,1240.528206
2.2500,164.4504582,10.66632372,1240.710369
2.2550,163.901656,11.11912953,1240.896196
2.2600,163.3501708,11.57504688,1241.08512
2.2650,162.7955917,12.03246383,1241.276879
2.2700,162.2364982,12.49107474,1241.47176
2.2750,161.6715187,12.94958289,1241.66976
2.2800,161.0987904,13.40739011,1241.871209
2.2850,160.5174783,13.86309908,1242.076019
2.2900,159.9276674,14.31701207,1242.284277
2.2950,159.3291702,14.76914484,1242.496055
2.3000,158.7219901,15.22111054,1242.711727
2.3050,158.1080093,15.67401051,1242.931195
2.3100,157.4876738,16.12928022,1243.154712
2.3150,156.8607815,16.58583277,1243.382094
2.3200,156.2288717,17.04339217,1243.613016
2.3250,155.5916426,17.50212787,1243.847632
2.3300,154.9487928,17.96103095,1244.085799
2.3350,154.3000043,18.42024133,1244.327665
2.3400,153.6449665,18.87929947,1244.573243
2.3450,152.983547,19.3384492,1244.822636
2.3500,152.3164409,19.79698487,1245.075563
2.3550,151.6456579,20.25551988,1245.331751
2.3600,150.9726201,20.71429719,1245.590943
2.3650,150.2980523,21.17492766,1245.853367
2.3700,149.6237454,21.63827222,1246.118816
2.3750,148.9511838,22.10416644,1246.386858
2.3800,148.2823103,22.57184748,1246.65683
2.3850,147.6168339,23.04180794,1246.928879
2.3900,146.9561383,23.51259174,1247.202263
2.3950,146.3002026,23.98385466,1247.476914
2.4000,145.6492313,24.4536574,1247.752222
2.4050,145.0036093,24.92155014,1248.027952
2.4100,144.363296,25.3864635,1248.303807
2.4150,143.7270249,25.84861818,1248.580137
2.4200,143.0951793,26.30720557,1248.856599
2.4250,142.4678201,26.76339897,1249.133464
2.4300,141.8461863,27.21777756,1249.410526
2.4350,141.2318175,27.67140886,1249.687608
2.4400,140.6242241,28.12423086,1249.964794
2.4450,140.0231688,28.57653375,1250.242228
2.4500,139.4275415,29.03003115,1250.520665
2.4550,138.8387777,29.4836486,1250.799371
2.4600,138.2555579,29.93818005,1251.078926
2.4650,137.6796104,30.39361705,1251.358813
2.4700,137.1104684,30.85012021,1251.639152
2.4750,136.5488932,31.30655165,1251.919389
2.4800,135.993287,31.76144121,1252.199546
2.4850,135.4427338,32.21514845,1252.479944
2.4900,134.8963547,32.66838227,1252.761003
2.4950,134.354784,33.11968716,1253.042084
2.5000,133.8181315,33.5695181,1253.32325
2.5050,133.2845069,34.01752787,1253.604929
2.5100,132.7544112,34.46319021,1253.886802
2.5150,132.2279761,34.90542281,1254.168442
2.5200,131.7053371,35.34531679,1254.450105
2.5250,131.1863467,35.78298926,1254.731815
2.5300,130.6706158,36.2170075,1255.013215
2.5350,130.1575753,36.64512054,1255.293816
2.5400,129.6460381,37.06549282,1255.573403
2.5450,129.1346391,37.47795805,1255.852335
2.5500,128.6203875,37.88235745,1256.131463
2.5550,128.1044504,38.28050126,1256.410938
2.5600,127.5861685,38.67469384,1256.69166
2.5650,127.06631,39.06511639,1256.973424
2.5700,126.5466725,39.45286337,1257.25596
2.5750,126.0298438,39.83798031,1257.538415
2.5800,125.5161529,40.22038305,1257.820592
2.5850,125.006638,40.59926661,1258.101842
2.5900,124.5012878,40.97563865,1258.382431
2.5950,124.0002373,41.3486029,1258.66198
2.6000,123.5037923,41.71526682,1258.939456
2.6050,123.010489,42.07523863,1259.215179
2.6100,122.5204473,42.42640243,1259.488342
2.6150,122.0332292,42.76817553,1259.758885
2.6200,121.548572,43.10062028,1260.026852
2.6250,121.0670882,43.42194732,1260.291421
2.6300,120.5874636,43.7321057,1260.552979
2.6350,120.1107309,44.03069329,1260.811017
2.6400,119.6375609,44.31963956,1261.065876
2.6450,119.1686958,44.60038187,1261.317706
2.6500,118.7033781,44.87291803,1261.566737
2.6550,118.2431589,45.13760472,1261.812452
2.6600,117.7878452,45.39464043,1262.054977
2.6650,117.3372953,45.64371046,1262.294196
2.6700,116.8922749,45.88479679,1262.529786
2.6750,116.4520856,46.11874634,1262.762288
2.6800,116.015964,46.34637556,1262.992161
2.6850,115.5856431,46.56738069,1263.218681
2.6900,115.1611683,46.78516212,1263.4429
2.6950,114.744178,46.99993253,1263.664217
2.7000,114.3361797,47.21330221,1263.882568
2.7050,113.9372849,47.4257399,1264.098025
2.7100,113.5468023,47.63827344,1264.311159
2.7150,113.1661587,47.84921917,1264.520848
2.7200,112.7953135,48.05912041,1264.72725
2.7250,112.4330658,48.26764553,1264.930662
2.7300,112.0793414,48.47404236,1265.130792
2.7350,111.7325855,48.67753115,1265.327961
2.7400,111.3926931,48.87740109,1265.521935
2.7450,111.0594391,49.07500308,1265.71326
2.7500,110.7326722,49.26914386,1265.901512
2.7550,110.4127533,49.4593664,1266.086377
2.7600,110.0986678,49.64589656,1266.26831
2.7650,109.7894502,49.82907586,1266.447756
2.7700,109.4845854,50.00860791,1266.624795
2.7750,109.1827383,50.18521264,1266.800145
2.7800,108.885515,50.359961,1266.97351
2.7850,108.5934219,50.53367196,1267.144925
2.7900,108.30816,50.70653681,1267.31372
2.7950,108.0305764,50.87826504,1267.479429
2.8000,107.7601259,51.04805221,1267.641885
2.8050,107.497667,51.2154531,1267.800606
2.8100,107.2435167,51.37933572,1267.95495
2.8150,106.9965289,51.53928536,1268.105246
2.8200,106.7558887,51.69420122,1268.251418
2.8250,106.521415,51.84233025,1268.392928
2.8300,106.2917318,51.98322446,1268.530168
2.8350,106.0651841,52.11682947,1268.663768
2.8400,105.842623,52.24459532,1268.793905
2.8450,105.62315,52.36556186,1268.920624
2.8500,105.4064237,52.47921391,1269.043931
2.8550,105.1912388,52.58534811,1269.1643
2.8600,104.9748629,52.68277024,1269.282425
2.8650,104.7558845,52.7732365,1269.399616
2.8700,104.5316014,52.85557522,1269.516623
2.8750,104.2993633,52.9322957,1269.63549
2.8800,104.0589264,53.00393413,1269.756598
2.8850,103.8099705,53.07366261,1269.881312
2.8900,103.5506956,53.14178178,1270.010565
2.8950,103.2797934,53.20980516,1270.145484
2.9000,102.997054,53.28099108,1270.287393
2.9050,102.7025282,53.35753147,1270.437051
2.9100,102.3968489,53.4416976,1270.595103
2.9150,102.0817152,53.53628229,1270.761845
2.9200,101.7578998,53.64157773,1270.937118
2.9250,101.4257386,53.75952303,1271.121465
2.9300,101.0872955,53.89074988,1271.31429
2.9350,100.7432676,54.0363877,1271.515697
2.9400,100.3933849,54.19522924,1271.725352
2.9450,100.0378777,54.36551266,1271.942506
2.9500,99.67769466,54.54681726,1272.166629
2.9550,99.31316035,54.73641125,1272.396589
2.9600,98.94422097,54.93397978,1272.632278
2.9650,98.57216421,55.13879237,1272.87288
2.9700,98.19647583,55.34932351,1273.118068
2.9750,97.81850145,55.56631929,1273.367496
2.9800,97.43903807,55.78792746,1273.620165
2.9850,97.05912447,56.01406884,1273.875587
2.9900,96.67959502,56.24264884,1274.132652
2.9950,96.3004723,56.47396378,1274.391458
3.0000,95.92084042,56.70785549,1274.652411
3.0050,95.54216636,56.94379875,1274.914671
3.0100,95.16531226,57.18119644,1275.177604
3.0150,94.79031356,57.42255992,1275.442154
3.0200,94.41716902,57.66732695,1275.708127
3.0250,94.0468993,57.91469603,1275.974743
3.0300,93.679935,58.16658387,1276.242602
3.0350,93.31619743,58.42261349,1276.51157
3.0400,92.95596907,58.68257859,1276.781448
3.0450,92.59950474,58.94603273,1277.051908
3.0500,92.24792836,59.21379665,1277.322751
3.0550,91.90111462,59.48617174,1277.594122
3.0600,91.55958889,59.762196,1277.865369
3.0650,91.22510106,60.04175282,1278.135591
3.0700,90.89696277,60.32381922,1278.404686
3.0750,90.57641776,60.60799872,1278.671864
3.0800,90.26309963,60.89312312,1278.936819
3.0850,89.95670621,61.17752268,1279.199013
3.0900,89.65616751,61.45967857,1279.458321
3.0950,89.36046541,61.74059837,1279.71554
3.1000,89.0703977,62.01889723,1279.969751
3.1050,88.78603488,62.29548057,1280.221204
3.1100,88.50706985,62.57015457,1280.470022
3.1150,88.23410644,62.84261624,1280.715733
3.1200,87.96743384,63.11321923,1280.958314
3.1250,87.70594159,63.38229553,1281.198426
3.1300,87.45009511,63.6507153,1281.436227
3.1350,87.20100917,63.91945979,1281.671578
3.1400,86.9567792,64.18753772,1281.904996
3.1450,86.7179666,64.45639477,1282.136805
3.1500,86.48396286,64.72635654,1282.367389
3.1550,86.25302227,64.99627411,1282.597106
3.1600,86.0255931,65.26569282,1282.825556
3.1650,85.79912484,65.5337273,1283.053621
3.1700,85.57298156,65.80017366,1283.28147
3.1750,85.34661787,66.0628359,1283.508446
3.1800,85.11755134,66.32108746,1283.73544
3.1850,84.88339831,66.57274364,1283.962651
3.1900,84.64349928,66.81745549,1284.190215
3.1950,84.39794682,67.05606945,1284.418431
3.2000,84.14582906,67.28590303,1284.646592
3.2050,83.88601146,67.50515272,1284.874469
3.2100,83.61704704,67.71391577,1285.102788
3.2150,83.33801281,67.91072377,1285.331386
3.2200,83.04951043,68.0966335,1285.560327
3.2250,82.74968623,68.27057145,1285.790096
3.2300,82.43978696,68.43344058,1286.020411
3.2350,82.12057466,68.58420503,1286.250462
3.2400,81.79261298,68.72306749,1286.480063
3.2450,81.45788475,68.85059184,1286.708466
3.2500,81.11755292,68.96737907,1286.935317
3.2550,80.77196386,69.07452271,1287.160949
3.2600,80.42210822,69.17292361,1287.385289
3.2650,80.06852957,69.26261031,1287.608096
3.2700,79.71335691,69.34463965,1287.828722
3.2750,79.35846726,69.41837034,1288.045947
3.2800,79.00528757,69.48572303,1288.259882
3.2850,78.65465517,69.5467118,1288.470116
3.2900,78.30676781,69.60185914,1288.676765
3.2950,77.96181487,69.6503493,1288.879381
3.3000,77.62155757,69.69222964,1289.077029
3.3050,77.28475391,69.72780275,1289.270502
3.3100,76.95180537,69.756742,1289.459472
3.3150,76.62295192,69.77817775,1289.643388
3.3200,76.29836625,69.79303255,1289.822534
3.3250,75.97991028,69.80307414,1289.996726
3.3300,75.66721374,69.80645375,1290.165283
3.3350,75.36143628,69.80462208,1290.328262
3.3400,75.06259543,69.79778595,1290.48573
3.3450,74.77099589,69.78680946,1290.637897
3.3500,74.48569201,69.77164016,1290.785265
3.3550,74.20611289,69.75258455,1290.928262
3.3600,73.93315067,69.73088142,1291.066956
3.3650,73.66525796,69.70597233,1291.201958
3.3700,73.40395831,69.67834221,1291.332586
3.3750,73.14870578,69.64827177,1291.459298
3.3800,72.89962868,69.61595207,1291.582088
3.3850,72.65591083,69.58207328,1291.701669
3.3900,72.41717584,69.54645241,1291.81818
3.3950,72.18358643,69.50834087,1291.931217
3.4000,71.95386128,69.46896572,1292.04205
3.4050,71.72816963,69.42762941,1292.150234
3.4100,71.50644515,69.38463882,1292.25593
3.4150,71.28872221,69.34149728,1292.359764
3.4200,71.07418154,69.29802096,1292.462137
3.4250,70.8642778,69.25559018,1292.562839
3.4300,70.65745239,69.21295612,1292.66217
3.4350,70.45199185,69.16993531,1292.761005
3.4400,70.24894204,69.12704893,1292.859011
3.4450,70.0463655,69.08376123,1292.957008
3.4500,69.84434373,69.04065442,1293.055183
3.4550,69.64304713,68.99952275,1293.154253
3.4600,69.44094219,68.96040441,1293.255086
3.4650,69.23973036,68.92375942,1293.356879
3.4700,69.03887487,68.88848056,1293.459461
3.4750,68.83832868,68.85651981,1293.563666
3.4800,68.63817021,68.82730581,1293.669181
3.4850,68.43917292,68.80230758,1293.776181
3.4900,68.24082979,68.78067418,1293.884538
3.4950,68.04261257,68.76099721,1293.993874
3.5000,67.84529533,68.74455297,1294.104281
3.5050,67.64906609,68.73178491,1294.215808
3.5100,67.45496914,68.72182803,1294.327462
3.5150,67.26219712,68.7139494,1294.439298
3.5200,67.07125912,68.70742964,1294.550697
3.5250,66.88259428,68.70249723,1294.661511
3.5300,66.69579486,68.69778712,1294.771352
3.5350,66.51069534,68.69487564,1294.880981
3.5400,66.32891457,68.69259136,1294.988903
3.5450,66.15040836,68.69184263,1295.095543
3.5500,65.97671157,68.69266765,1295.199985
3.5550,65.81021266,68.69549459,1295.300999
3.5600,65.65134137,68.69957536,1295.397993
3.5650,65.50079173,68.70475617,1295.490514
3.5700,65.3579595,68.71085287,1295.578814
3.5750,65.22269066,68.71846533,1295.663289
3.5800,65.09469427,68.72744371,1295.74402
3.5850,64.97459293,68.73732221,1295.820424
3.5900,64.86213673,68.7481931,1295.892661
3.5950,64.75758381,68.75968704,1295.960452
3.6000,64.66064996,68.77034278,1296.02331
3.6050,64.57155424,68.7794606,1296.080793
3.6100,64.49014944,68.78673312,1296.132835
3.6150,64.41502012,68.79119859,1296.179855
3.6200,64.34481831,68.79001786,1296.221397
3.6250,64.27714512,68.78241803,1296.258528
3.6300,64.2109348,68.76832217,1296.291896
3.6350,64.14498887,68.74632525,1296.321525
3.6400,64.07801715,68.71688351,1296.348374
3.6450,64.00938805,68.67994489,1296.372826
3.6500,63.93986919,68.63484349,1296.394118
3.6550,63.86730691,68.58206693,1296.41377
3.6600,63.79114404,68.52063695,1296.431697
3.6650,63.71051118,68.45178388,1296.448978
3.6700,63.62486498,68.37565031,1296.46607
3.6750,63.53361688,68.29216123,1296.483267
3.6800,63.43695892,68.20229143,1296.500917
3.6850,63.33484946,68.10614908,1296.519139
3.6900,63.22888243,68.00529718,1296.537695
3.6950,63.11843084,67.90081696,1296.557452
3.7000,63.00374041,67.79403951,1296.578844
3.7050,62.88580253,67.68596789,1296.601783
3.7100,62.7637921,67.57712948,1296.626974
3.7150,62.63989391,67.4697428,1296.654139
3.7200,62.51418322,67.36450517,1296.683534
3.7250,62.38657681,67.26118865,1296.715108
3.7300,62.25814021,67.16224646,1296.749272
3.7350,62.12992392,67.06740608,1296.785292
3.7400,62.00133729,66.97747176,1296.823838
3.7450,61.87453655,66.89302143,1296.863903
3.7500,61.74896824,66.8142565,1296.905922
3.7550,61.6253595,66.74122984,1296.949435
3.7600,61.50517887,66.67510163,1296.994069
3.7650,61.38836172,66.61638221,1297.040047
3.7700,61.27586238,66.56585953,1297.087131
3.7750,61.16740152,66.52373588,1297.135571
3.7800,61.06382431,66.49071486,1297.185199
3.7850,60.96502491,66.46635403,1297.235882
3.7900,60.87135642,66.45128224,1297.287674
3.7950,60.78317944,66.44561875,1297.340418
3.8000,60.69974453,66.44898398,1297.394382
3.8050,60.62129253,66.46182487,1297.449619
3.8100,60.54788056,66.48419581,1297.506084
3.8150,60.48160422,66.51620392,1297.562578
3.8200,60.42151356,66.55702053,1297.619268
3.8250,60.36951526,66.60697774,1297.675151
3.8300,60.32563897,66.66612378,1297.730179
3.8350,60.2903912,66.73361258,1297.783705
3.8400,60.26402171,66.80958403,1297.835656
3.8450,60.24504316,66.89296103,1297.886427
3.8500,60.23383565,66.98376516,1297.935848
3.8550,60.22874483,67.08052653,1297.984254
3.8600,60.23046281,67.18287309,1298.031027
3.8650,60.23812369,67.29062401,1298.076581
3.8700,60.25194238,67.40143191,1298.119777
3.8750,60.2709101,67.51444091,1298.160796
3.8800,60.29560125,67.62768919,1298.198396
3.8850,60.32504333,67.74091629,1298.233054
3.8900,60.35876908,67.85180832,1298.263988
3.8950,60.39647018,67.9597716,1298.291099
3.9000,60.43686768,68.06359113,1298.31461
3.9050,60.47868756,68.16300008,1298.335165
3.9100,60.5211675,68.25747811,1298.353017
3.9150,60.5647971,68.34658874,1298.367639
3.9200,60.60927259,68.43133721,1298.379675
3.9250,60.65504864,68.51149946,1298.388716
3.9300,60.70127549,68.58564956,1298.394645
3.9350,60.74729718,68.65353094,1298.397736
3.9400,60.79389289,68.71465103,1298.397298
3.9450,60.83924701,68.76754669,1298.393774
3.9500,60.8834087,68.81316941,1298.387545
3.9550,60.92777827,68.8508982,1298.377478
3.9600,60.97204187,68.88164715,1298.36414
3.9650,61.01673365,68.90385638,1298.346539
3.9700,61.06189372,68.91893738,1298.325251
3.9750,61.10775444,68.92669392,1298.300084
3.9800,61.15362351,68.92740674,1298.271549
3.9850,61.19996169,68.92106475,1298.239366
3.9900,61.24650632,68.90809482,1298.203921
3.9950,61.29428661,68.88851268,1298.164601
4.0000,61.34345067,68.8616115,1298.121021
4.0050,61.39475098,68.82732524,1298.072683
4.0100,61.44870084,68.78691169,1298.01988
4.0150,61.50303536,68.73865665,1297.963197
4.0200,61.55887751,68.68362525,1297.902462
4.0250,61.61648716,68.62191605,1297.837538
4.0300,61.67594309,68.55284412,1297.768114
4.0350,61.73777518,68.47795474,1297.694558
4.0400,61.8028002,68.39782822,1297.616637
4.0450,61.87011067,68.31250086,1297.534954
4.0500,61.94129015,68.22339989,1297.449224
4.0550,62.01579581,68.13011811,1297.359627
4.0600,62.09396049,68.03349923,1297.266366
4.0650,62.17689083,67.93422518,1297.169133
4.0700,62.26429981,67.83421918,1297.068962
4.0750,62.35673263,67.73275762,1296.965256
4.0800,62.45414137,67.63023572,1296.858186
4.0850,62.55725068,67.52714861,1296.747601
4.0900,62.66737131,67.42448677,1296.633141
4.0950,62.78404995,67.32229447,1296.515159
4.1000,62.90728196,67.22082852,1296.393729
4.1050,63.03698445,67.11846079,1296.268251
4.1100,63.17381665,67.01705229,1296.139137
4.1150,63.31615103,66.91592583,1296.007081
4.1200,63.46504685,66.81534369,1295.871628
4.1250,63.6202249,66.71532741,1295.732931
4.1300,63.78213399,66.61518044,1295.590457
4.1350,63.9499127,66.51398503,1295.444312
4.1400,64.12375258,66.41270923,1295.294769
4.1450,64.30498456,66.31047938,1295.140687
4.1500,64.49229626,66.20668741,1294.982574
4.1550,64.68554267,66.101375,1294.820521
4.1600,64.88358074,65.99423036,1294.655104
4.1650,65.08583386,65.88408365,1294.486142
4.1700,65.29232227,65.77163068,1294.313933
4.1750,65.50338129,65.657485,1294.138574
4.1800,65.71809051,65.54178234,1293.960712
4.1850,65.93563377,65.42465163,1293.780876
4.1900,66.15678131,65.30660839,1293.598902
4.1950,66.38148505,65.18806017,1293.415021
4.2000,66.61022628,65.07094551,1293.229811
4.2050,66.84329802,64.95493697,1293.042983
4.2100,67.0812556,64.84109244,1292.854669
4.2150,67.32354885,64.72958075,1292.665272
4.2200,67.57106171,64.61952343,1292.473909
4.2250,67.82245295,64.51035715,1292.281101
4.2300,68.07883004,64.40292496,1292.086595
4.2350,68.34009179,64.29660863,1291.890217
4.2400,68.60594161,64.19178401,1291.692296
4.2450,68.87710237,64.08824829,1291.49234
4.2500,69.15374191,63.98487693,1291.289816
4.2550,69.43520229,63.88245518,1291.085468
4.2600,69.72201697,63.77953853,1290.878411
4.2650,70.01437721,63.67693668,1290.668863
4.2700,70.31364156,63.5741369,1290.455888
4.2750,70.62083213,63.47137359,1290.239062
4.2800,70.93582634,63.36794193,1290.018186
4.2850,71.25910148,63.26373853,1289.792981
4.2900,71.59135245,63.15819646,1289.562845
4.2950,71.93107895,63.05018544,1289.328176
4.3000,72.27932592,62.93966934,1289.088425
4.3050,72.63410844,62.82742557,1288.84509
4.3100,72.99573998,62.71217666,1288.597512
4.3150,73.36468506,62.59506761,1288.345985
4.3200,73.74089481,62.47639481,1288.090662
4.3250,74.12444068,62.3569681,1287.831912
4.3300,74.51570025,62.23777942,1287.570006
4.3350,74.9161842,62.11941877,1287.304417
4.3400,75.32518165,62.00151281,1287.035431
4.3450,75.74327525,61.88412804,1286.762784
4.3500,76.16978994,61.766685,1286.486654
4.3550,76.60475164,61.64931625,1286.207116
4.3600,77.04771125,61.53111294,1285.924096
4.3650,77.49766172,61.41233984,1285.638222
4.3700,77.95265767,61.2919145,1285.350146
4.3750,78.41250813,61.16969173,1285.059919
4.3800,78.87731261,61.04691157,1284.768019
4.3850,79.34605658,60.92340066,1284.474918
4.3900,79.81910168,60.79917862,1284.180503
4.3950,80.29562959,60.6750565,1283.885504
4.4000,80.77638323,60.55126782,1283.589712
4.4050,81.26081174,60.42763247,1283.293293
4.4100,81.74775775,60.30245833,1282.996216
4.4150,82.23791461,60.17636383,1282.698395
4.4200,82.72948415,60.04861345,1282.400429
4.4250,83.22197955,59.91919025,1282.102547
4.4300,83.71473067,59.7881625,1281.805174
4.4350,84.20759688,59.65569931,1281.508387
4.4400,84.6988011,59.52157031,1281.213026
4.4450,85.18860865,59.38638102,1280.919167
4.4500,85.67629813,59.2503534,1280.627248
4.4550,86.16206066,59.11383803,1280.337341
4.4600,86.64662529,58.97748822,1280.049305
4.4650,87.13093502,58.84175248,1279.762859
4.4700,87.61530389,58.70733359,1279.478113
4.4750,88.09930971,58.57279776,1279.194695
4.4800,88.58347836,58.43794706,1278.912222
4.4850,89.06824739,58.30184763,1278.630108
4.4900,89.55356385,58.16469532,1278.348422
4.4950,90.03875195,58.02540339,1278.067054
4.5000,90.52366129,57.88268628,1277.785561
4.5050,91.00883654,57.73539616,1277.503247
4.5100,91.4932812,57.58239135,1277.220126
4.5150,91.9767907,57.42398198,1276.936431
4.5200,92.45927476,57.25892752,1276.651727
4.5250,92.94044061,57.08822789,1276.366567
4.5300,93.42006524,56.91136244,1276.080837
4.5350,93.89756941,56.72737035,1275.794437
4.5400,94.37273299,56.53571708,1275.507249
4.5450,94.84515883,56.33592563,1275.219282
4.5500,95.31411451,56.12863503,1274.931117
4.5550,95.78118447,55.91268945,1274.64161
4.5600,96.24740955,55.68914329,1274.350739
4.5650,96.71240249,55.45800413,1274.058736
4.5700,97.17585459,55.21776367,1273.76516
4.5750,97.63645697,54.96925153,1273.470906
4.5800,98.09532119,54.712456,1273.17549
4.5850,98.55144893,54.44819917,1272.879648
4.5900,99.00418922,54.17685033,1272.583825
4.5950,99.45427497,53.89988161,1272.288222
4.6000,99.90069351,53.61879808,1271.993821
4.6050,100.3453145,53.33434308,1271.700061
4.6100,100.7886248,53.04712363,1271.406959
4.6150,101.2310235,52.7568137,1271.11419
4.6200,101.6732636,52.46429461,1270.821749
4.6250,102.1157537,52.16964505,1270.529533
4.6300,102.5583892,51.87236662,1270.237374
4.6350,102.9993578,51.57094433,1269.94549
4.6400,103.4398698,51.26498483,1269.653263
4.6450,103.878499,50.95482902,1269.361437
4.6500,104.3162912,50.64095468,1269.069732
4.6550,104.7521745,50.3233159,1268.77859
4.6600,105.1867478,50.00270419,1268.488039
4.6650,105.619478,49.68013819,1268.198709
4.6700,106.0533002,49.35532783,1267.909309
4.6750,106.4882583,49.02951782,1267.620342
4.6800,106.9247338,48.70214983,1267.331504
4.6850,107.3636482,48.37321201,1267.042435
4.6900,107.804181,48.04372379,1266.753888
4.6950,108.2489675,47.71258176,1266.464497
4.7000,108.6976959,47.38107545,1266.17486
4.7050,109.1508498,47.05060959,1265.885337
4.7100,109.6108374,46.72249432,1265.595455
4.7150,110.0761036,46.39701558,1265.305955
4.7200,110.5467183,46.07561972,1265.017342
4.7250,111.0236925,45.75836935,1264.729277
4.7300,111.5056553,45.44608265,1264.442514
4.7350,111.9930505,45.13961214,1264.157238
4.7400,112.4868266,44.8393903,1263.873224
4.7450,112.9863259,44.54673449,1263.591173
4.7500,113.4934656,44.26164678,1263.310373
4.7550,114.0070073,43.98418737,1263.031295
4.7600,114.5263551,43.71427585,1262.754164
4.7650,115.0512394,43.451075,1262.478785
4.7700,115.580108,43.19486703,1262.205865
4.7750,116.1127635,42.94488572,1261.935188
4.7800,116.6482078,42.70112105,1261.66711
4.7850,117.1859333,42.46222631,1261.401388
4.7900,117.7230813,42.22816447,1261.139054
4.7950,118.2597167,41.99831055,1260.879859
4.8000,118.7932237,41.77257715,1260.624663
4.8050,119.3230582,41.55113457,1260.373664
4.8100,119.8487702,41.33311563,1260.126706
4.8150,120.3686569,41.11770982,1259.884067
4.8200,120.8832317,40.90546499,1259.64569
4.8250,121.3918706,40.69565752,1259.411482
4.8300,121.8943748,40.48673317,1259.18094
4.8350,122.3916539,40.27988766,1258.95408
4.8400,122.883302,40.07440307,1258.730771
4.8450,123.3703383,39.8699696,1258.510497
4.8500,123.8516173,39.66469701,1258.29299
4.8550,124.3254089,39.4589962,1258.078925
4.8600,124.7904533,39.25235864,1257.868479
4.8650,125.246516,39.04354937,1257.661263
4.8700,125.6923393,38.83310983,1257.457855
4.8750,126.1290222,38.62049944,1257.25767
4.8800,126.5559692,38.40620132,1257.061006
4.8850,126.9746421,38.19095897,1256.86758
4.8900,127.3861978,37.97485191,1256.677017
4.8950,127.7909328,37.75849478,1256.489376
4.9000,128.1900053,37.54048829,1256.303871
4.9050,128.5828145,37.3196337,1256.120301
4.9100,128.9687007,37.09613947,1255.938903
4.9150,129.3467375,36.86866971,1255.759578
4.9200,129.7170728,36.6349183,1255.581572
4.9250,130.0792166,36.39506538,1255.405045
4.9300,130.4330393,36.14923263,1255.230074
4.9350,130.7784436,35.89825877,1255.056916
4.9400,131.1145161,35.64273468,1254.886013
4.9450,131.4423196,35.38219296,1254.716823
4.9500,131.7604827,35.11708087,1254.549884
4.9550,132.0719044,34.84766479,1254.384367
4.9600,132.3762461,34.57395403,1254.220304
4.9650,132.6760613,34.29329999,1254.056129
4.9700,132.9713907,34.0068848,1253.892161
4.9750,133.2627969,33.71294305,1253.727689
4.9800,133.5500612,33.41045545,1253.56252
4.9850,133.8330318,33.09966096,1253.396803
4.9900,134.1129231,32.77965977,1253.229905
4.9950,134.3896574,32.45150574,1253.062166
5.0000,134.6630726,32.1147345,1252.893539
5.0050,134.9355893,31.7711918,1252.723863
5.0100,135.205753,31.42055984,1252.553523
5.0150,135.4765717,31.06486333,1252.382251
5.0200,135.7489608,30.70474034,1252.209967
5.0250,136.0236867,30.34167027,1252.036923
5.0300,136.3026617,29.97678172,1251.862931
5.0350,136.5864427,29.61173017,1251.688324
5.0400,136.875236,29.24565849,1251.512838
5.0450,137.169444,28.87939602,1251.336645
5.0500,137.4681745,28.51359601,1251.160225
5.0550,137.7732074,28.1497041,1250.983511
5.0600,138.0857677,27.78853831,1250.806399
5.0650,138.4062966,27.43190904,1250.629289
5.0700,138.7362213,27.08015176,1250.45184
5.0750,139.0752966,26.7336889,1250.274272
5.0800,139.4232463,26.39257398,1250.096709
5.0850,139.7791735,26.05745022,1249.919593
5.0900,140.1446277,25.7291716,1249.742717
5.0950,140.5182214,25.40658617,1249.56615
5.1000,140.900896,25.09011277,1249.389752
5.1050,141.2905953,24.77912296,1249.213923
5.1100,141.6857552,24.47278313,1249.038856
5.1150,142.087157,24.16975706,1248.86401
5.1200,142.4929933,23.8699175,1248.68983
5.1250,142.9033958,23.57187336,1248.515964
5.1300,143.3168605,23.27633153,1248.343005
5.1350,143.732101,22.98246847,1248.171107
5.1400,144.1490218,22.69134452,1248.000559
5.1450,144.5658375,22.40214971,1247.831615
5.1500,144.9827746,22.11613461,1247.664562
5.1550,145.4001716,21.83345542,1247.499305
5.1600,145.8176344,21.5535447,1247.335859
5.1650,146.235479,21.27859888,1247.174675
5.1700,146.6536398,21.00714837,1247.015378
5.1750,147.0718949,20.74050462,1246.85834
5.1800,147.4890641,20.4777574,1246.703628
5.1850,147.9048428,20.21804748,1246.551074
5.1900,148.3167654,19.96028942,1246.400984
5.1950,148.7252824,19.70355937,1246.252972
5.2000,149.1288595,19.44738782,1246.10725
5.2050,149.5266195,19.1913215,1245.963882
5.2100,149.9184947,18.93394742,1245.8225
5.2150,150.3040343,18.67582597,1245.683313
5.2200,150.6815472,18.41737459,1245.546788
5.2250,151.0507308,18.15713607,1245.41261
5.2300,151.4109774,17.89480469,1245.280827
5.2350,151.7621932,17.6301077,1245.151359
5.2400,152.1051972,17.36254261,1245.023855
5.2450,152.4402475,17.09174733,1244.898146
5.2500,152.7671107,16.81766655,1244.774279
5.2550,153.0838796,16.53973991,1244.652496
5.2600,153.3915476,16.25786706,1244.53258
5.2650,153.6896102,15.97283278,1244.41477
5.2700,153.9782054,15.68494326,1244.299093
5.2750,154.2580476,15.39565943,1244.185665
5.2800,154.5302772,15.10646865,1244.074565
5.2850,154.7959154,14.81781565,1243.965632
5.2900,155.0549094,14.53071131,1243.859103
5.2950,155.3079825,14.24543881,1243.754888
5.3000,155.5561109,13.96228552,1243.652824
5.3050,155.7985034,13.68130678,1243.553104
5.3100,156.0362423,13.4034723,1243.4557
5.3150,156.2681475,13.12804697,1243.360682
5.3200,156.4952905,12.85492245,1243.267793
5.3250,156.7165362,12.58368017,1243.177166
5.3300,156.9311128,12.31400707,1243.088865
5.3350,157.1416391,12.04554783,1243.002208
5.3400,157.3475206,11.77845678,1242.917336
5.3450,157.5490658,11.51173444,1242.833944
5.3500,157.7472379,11.24636767,1242.752022
5.3550,157.9416715,10.98152191,1242.671464
5.3600,158.1309827,10.71826039,1242.592804
5.3650,158.3150635,10.45652418,1242.516081
5.3700,158.4938265,10.19652735,1242.441343
5.3750,158.6675265,9.940419826,1242.369021
5.3800,158.8361846,9.68824214,1242.29912
5.3850,159.0012445,9.441717505,1242.231678
5.3900,159.1628058,9.200366417,1242.166549
5.3950,159.321211,8.964710196,1242.103736
5.4000,159.4772292,8.73539746,1242.043211
5.4050,159.6323801,8.513033591,1241.984752
5.4100,159.7874015,8.298225779,1241.928312
5.4150,159.9423361,8.091932641,1241.874063
5.4200,160.0972131,7.894567558,1241.82208
5.4250,160.2522547,7.706474329,1241.772346
5.4300,160.4078683,7.527480027,1241.724727
5.4350,160.5635115,7.358722251,1241.679567
5.4400,160.7198454,7.199015567,1241.636464
5.4450,160.8770933,7.049791189,1241.595684
5.4500,161.0351816,6.911011862,1241.557207
5.4550,161.1942903,6.781172014,1241.520694
5.4600,161.3540081,6.660843439,1241.486323
5.4650,161.5141049,6.547274328,1241.453568
5.4700,161.67402,6.441533852,1241.422762
5.4750,161.8340846,6.341256899,1241.3933
5.4800,161.9946032,6.246609801,1241.365132
5.4850,162.1562664,6.156842708,1241.337965
5.4900,162.3201054,6.071818704,1241.311551
5.4950,162.4870013,5.990824494,1241.285555
5.5000,162.6568995,5.91451061,1241.260146
5.5050,162.8289846,5.842816494,1241.235464
5.5100,163.0035467,5.776720132,1241.211623
5.5150,163.1802849,5.715694957,1241.188577
5.5200,163.3603094,5.659712022,1241.166109
5.5250,163.5428747,5.608536013,1241.144302
5.5300,163.7284948,5.56204196,1241.123006
5.5350,163.9174819,5.519311107,1241.101965
5.5400,164.1096638,5.479178682,1241.080952
5.5450,164.3045083,5.441153277,1241.059979
5.5500,164.5027807,5.403149453,1241.038442
5.5550,164.7043059,5.364907489,1241.016353
5.5600,164.908072,5.325141169,1240.993602
5.5650,165.114181,5.284830744,1240.970381
5.5700,165.321694,5.243390342,1240.946746
5.5750,165.5303536,5.200011057,1240.922619
5.5800,165.7396913,5.154215953,1240.897961
5.5850,165.949091,5.106085028,1240.872931
5.5900,166.1587164,5.055695459,1240.84754
5.5950,166.3685937,5.002216454,1240.821596
5.6000,166.5784327,4.94678801,1240.795403
5.6050,166.7883679,4.888504993,1240.768759
5.6100,166.9982335,4.827020069,1240.741607
5.6150,167.2084677,4.763567042,1240.714127
5.6200,167.4186043,4.697919451,1240.686327
5.6250,167.6292476,4.631816523,1240.65843
5.6300,167.8413707,4.565258355,1240.630258
5.6350,168.0519556,4.498753647,1240.602453
5.6400,168.2614851,4.432619004,1240.574984
5.6450,168.469161,4.3676331,1240.548145
5.6500,168.6743463,4.302962236,1240.521848
5.6550,168.8769025,4.239140573,1240.496208
5.6600,169.0767107,4.17468786,1240.470937
5.6650,169.2726541,4.108721583,1240.446041
5.6700,169.4636158,4.041835128,1240.421852
5.6750,169.6498369,3.972612376,1240.398017
5.6800,169.8308315,3.900542144,1240.374522
5.6850,170.0060526,3.8250686,1240.351344
5.6900,170.1747052,3.745651952,1240.328532
5.6950,170.3366916,3.664939982,1240.30665
5.7000,170.4906532,3.580132213,1240.285389
5.7050,170.6372757,3.492345908,1240.264853
5.7100,170.7768641,3.401171664,1240.244927
5.7150,170.909704,3.307400535,1240.225708
5.7200,171.0353821,3.211003614,1240.207276
5.7250,171.1545268,3.111987833,1240.189533
5.7300,171.2682111,3.011643958,1240.17254
5.7350,171.3787208,2.909329873,1240.155759
5.7400,171.4855853,2.806111786,1240.139483
5.7450,171.5898229,2.703261521,1240.12378
5.7500,171.6931863,2.600981853,1240.108353
5.7550,171.7964542,2.50025256,1240.093235
5.7600,171.9011983,2.401130648,1240.078159
5.7650,172.0084319,2.305309505,1240.063242
5.7700,172.1193557,2.213527854,1240.048401
5.7750,172.2341298,2.125819359,1240.033616
5.7800,172.353852,2.042659013,1240.01878
5.7850,172.4772949,1.964255647,1240.004118
5.7900,172.6054321,1.890473194,1239.989429
5.7950,172.736955,1.820921227,1239.974865
5.8000,172.8720167,1.755904352,1239.960434
5.8050,173.011603,1.69377656,1239.945656
5.8100,173.1548789,1.633789158,1239.930522
5.8150,173.3019607,1.575177718,1239.914861
5.8200,173.4509628,1.517040448,1239.898813
5.8250,173.6018121,1.459629208,1239.882446
5.8300,173.7534147,1.401026055,1239.865582
5.8350,173.9041891,1.340720211,1239.848389
5.8400,174.0540337,1.278922997,1239.830935
5.8450,174.2021642,1.216769839,1239.813575
5.8500,174.3486676,1.153391724,1239.796122
5.8550,174.4944891,1.08975956,1239.778612
5.8600,174.6391264,1.026734204,1239.761306
5.8650,174.7813839,0.9632853634,1239.744216
5.8700,174.9219639,0.8996737818,1239.727289
5.8750,175.0599038,0.8374552176,1239.710978
5.8800,175.1954262,0.7765692825,1239.695257
5.8850,175.3292415,0.7169934071,1239.679987
5.8900,175.4610592,0.6590774387,1239.66527
5.8950,175.5908895,0.6041674359,1239.651372
5.9000,175.7181993,0.550529484,1239.63804
5.9050,175.8426916,0.4993493934,1239.625539
5.9100,175.9650667,0.4494922622,1239.613535
5.9150,176.0840447,0.4012949201,1239.602284
5.9200,176.2001764,0.3553846527,1239.591824
5.9250,176.3127705,0.3106222086,1239.582044
5.9300,176.4196513,0.2666901299,1239.57323
5.9350,176.5224278,0.2231095179,1239.565033
5.9400,176.6202904,0.1811606167,1239.55783
5.9450,176.7130906,0.1396035202,1239.551398
5.9500,176.8004955,0.0993164364,1239.545982
5.9550,176.8818222,0.05955339476,1239.541548
5.9600,176.9574909,0.0196995158,1239.537916
5.9650,177.027187,-0.01944445737,1239.535279
5.9700,177.0912626,-0.05939569646,1239.533293
5.9750,177.1492501,-0.100850424,1239.531883
5.9800,177.2009512,-0.1430001946,1239.531242
5.9850,177.2464589,-0.1864461408,1239.531245
5.9900,177.2867411,-0.2307470263,1239.531797
5.9950,177.3213001,-0.2780137719,1239.532576
6.0000,177.3518574,-0.326281256,1239.53368
6.0050,177.3780683,-0.3756609506,1239.535136
6.0100,177.399913,-0.4262669389,1239.536906
6.0150,177.4180844,-0.4785421758,1239.538817
6.0200,177.4340481,-0.5314214095,1239.540829
6.0250,177.4485009,-0.5852184859,1239.542776
6.0300,177.4619709,-0.6389546288,1239.544766
6.0350,177.476112,-0.6923188995,1239.546573
6.0400,177.4911407,-0.7451911393,1239.548208
6.0450,177.5089863,-0.7991812286,1239.549039
6.0500,177.5294004,-0.8525704403,1239.549444
6.0550,177.5542053,-0.9064714727,1239.548915
6.0600,177.5837422,-0.9597276747,1239.547601
6.0650,177.6197915,-1.012502366,1239.545212
6.0700,177.6615318,-1.066169618,1239.541601
6.0750,177.7105917,-1.119525672,1239.536752
6.0800,177.7666658,-1.173498339,1239.530543
6.0850,177.8308225,-1.228008745,1239.522838
6.0900,177.9026025,-1.283073602,1239.513703
6.0950,177.9827494,-1.338123548,1239.503148
6.1000,178.0711075,-1.395176298,1239.490835
6.1050,178.1668052,-1.452370199,1239.477256
6.1100,178.2705324,-1.510116619,1239.462243
6.1150,178.3818727,-1.567987327,1239.445962
6.1200,178.5019818,-1.626963579,1239.42806
6.1250,178.629641,-1.686671438,1239.408799
6.1300,178.7641475,-1.747676951,1239.388182
6.1350,178.9062262,-1.809103539,1239.366279
6.1400,179.0548043,-1.87162062,1239.343144
6.1450,179.2084766,-1.93704654,1239.318646
6.1500,179.3658693,-2.003639475,1239.293321
6.1550,179.5258908,-2.073210197,1239.267012
6.1600,179.6883174,-2.145970292,1239.239704
6.1650,179.8514472,-2.220903188,1239.211849
6.1700,180.0149398,-2.299215366,1239.183287
6.1750,180.1790598,-2.382090413,1239.15377
6.1800,180.3418802,-2.468937197,1239.123684
6.1850,180.5025547,-2.56004739,1239.093102
6.1900,180.661233,-2.655632232,1239.06198
6.1950,180.8160735,-2.7555539,1239.030588
6.2000,180.9682293,-2.859944657,1238.998731
6.2050,181.1159268,-2.969609441,1238.966526
6.2100,181.2580416,-3.0828727,1238.934456
6.2150,181.3947854,-3.201261545,1238.902205
6.2200,181.5256147,-3.325011101,1238.869805
6.2250,181.6494346,-3.454711347,1238.837314
6.2300,181.7663975,-3.589452091,1238.804877
6.2350,181.8753719,-3.729287989,1238.772646
6.2400,181.9754795,-3.874761393,1238.740639
6.2450,182.0658486,-4.025330828,1238.709083
6.2500,182.146702,-4.181414135,1238.677859
6.2550,182.2165836,-4.342429773,1238.647293
6.2600,182.2748397,-4.506866798,1238.617724
6.2650,182.3219068,-4.675960886,1238.58889
6.2700,182.3572486,-4.848651585,1238.561054
6.2750,182.3809707,-5.024747573,1238.534251
6.2800,182.3936701,-5.204470934,1238.508351
6.2850,182.395141,-5.386690051,1238.483588
6.2900,182.3863387,-5.572532207,1238.459644
6.2950,182.3675036,-5.760770903,1238.436726
6.3000,182.3388393,-5.952049125,1238.41469
6.3050,182.3013381,-6.146066888,1238.39346
6.3100,182.2559469,-6.340899025,1238.373265
6.3150,182.2046716,-6.53657803,1238.353803
6.3200,182.1473146,-6.733253252,1238.335109
6.3250,182.086008,-6.928939829,1238.317209
6.3300,182.021425,-7.124604977,1238.299853
6.3350,181.9542005,-7.318862354,1238.283196
6.3400,181.8857417,-7.512177129,1238.266944
6.3450,181.8164438,-7.702728984,1238.251345
6.3500,181.748891,-7.891500987,1238.235884
6.3550,181.6815504,-8.07683167,1238.221047
6.3600,181.6147785,-8.258942745,1238.206749
6.3650,181.5481662,-8.438617494,1238.192919
6.3700,181.4832784,-8.614194262,1238.179606
6.3750,181.4183863,-8.786163509,1238.166961
6.3800,181.3552397,-8.953492777,1238.154905
6.3850,181.2939102,-9.117163899,1238.143256
6.3900,181.2334598,-9.276789249,1238.132221
6.3950,181.1740494,-9.43209164,1238.121806
6.4000,181.114938,-9.582180722,1238.11224
6.4050,181.0573303,-9.728245208,1238.103159
6.4100,181.0009137,-9.870986478,1238.0945
6.4150,180.9446611,-10.01016218,1238.086437
6.4200,180.8878172,-10.14604507,1238.079027
6.4250,180.8314238,-10.27923943,1238.072026
6.4300,180.7752076,-10.4100295,1238.065423
6.4350,180.7196612,-10.5380366,1238.059201
6.4400,180.6639325,-10.6645268,1238.053266
6.4450,180.6086558,-10.78818303,1238.04775
6.4500,180.5546009,-10.91012222,1238.042352
6.4550,180.5015676,-11.03012456,1238.03713
6.4600,180.4497986,-11.14931683,1238.031874
6.4650,180.4005076,-11.26828487,1238.026307
6.4700,180.3527341,-11.38578398,1238.02075
6.4750,180.3075139,-11.50199083,1238.015019
6.4800,180.265441,-11.61747453,1238.008943
6.4850,180.2277567,-11.73180397,1238.0024
6.4900,180.1928524,-11.84568163,1237.995512
6.4950,180.1621788,-11.95913752,1237.988079
6.5000,180.1344076,-12.07186265,1237.980343
6.5050,180.1102083,-12.18443204,1237.972109
6.5100,180.0901825,-12.29787243,1237.96313
6.5150,180.0743587,-12.41187349,1237.953454
6.5200,180.0622698,-12.52612778,1237.943206
6.5250,180.055156,-12.64113116,1237.932116
6.5300,180.0544308,-12.7570161,1237.919964
6.5350,180.0605956,-12.87493397,1237.906501
6.5400,180.0729076,-12.99361987,1237.89203
6.5450,180.0940218,-13.11413232,1237.876007
6.5500,180.1225123,-13.23580423,1237.858742
6.5550,180.1605626,-13.35872124,1237.839891
6.5600,180.207677,-13.48503883,1237.819228
6.5650,180.2635733,-13.61294357,1237.797052
6.5700,180.3285574,-13.74348634,1237.773178
6.5750,180.4026063,-13.87577378,1237.747737
6.5800,180.4862076,-14.00982889,1237.720663
6.5850,180.5781229,-14.14760677,1237.691861
6.5900,180.6764978,-14.28723131,1237.661881
6.5950,180.7818781,-14.42905551,1237.630582
6.6000,180.893586,-14.57297547,1237.598099
6.6050,181.0112929,-14.71927507,1237.564441
6.6100,181.1336907,-14.86879799,1237.529683
6.6150,181.2593575,-15.02033031,1237.494228
6.6200,181.3888447,-15.17406594,1237.457958
6.6250,181.5196526,-15.33035778,1237.421188
6.6300,181.6510644,-15.48793719,1237.384213
6.6350,181.7805504,-15.64708335,1237.34736
6.6400,181.9064919,-15.8061521,1237.311085
6.6450,182.0283434,-15.96583668,1237.275373
6.6500,182.1437823,-16.12650021,1237.24048
6.6550,182.2534655,-16.28781457,1237.206358
6.6600,182.3561917,-16.44964003,1237.173189
6.6650,182.4513258,-16.61132608,1237.141138
6.6700,182.5376187,-16.77278254,1237.110388
6.6750,182.6160482,-16.9338942,1237.080797
6.6800,182.683709,-17.09422144,1237.052827
6.6850,182.7396244,-17.25380613,1237.026586
6.6900,182.7836296,-17.41129164,1237.002257
6.6950,182.8159361,-17.56716378,1236.979755
6.7000,182.8362382,-17.7216602,1236.959081
6.7050,182.8444149,-17.87589193,1236.940091
6.7100,182.8391165,-18.02867825,1236.923128
6.7150,182.8224136,-18.18061077,1236.907826
6.7200,182.7938797,-18.33189202,1236.894227
6.7250,182.7531971,-18.48326277,1236.882273
6.7300,182.7014913,-18.63434339,1236.871873
6.7350,182.6369774,-18.78635074,1236.863115
6.7400,182.5611702,-18.9378095,1236.856
6.7450,182.4742411,-19.09022452,1236.850316
6.7500,182.3763132,-19.24313861,1236.846135
6.7550,182.2666686,-19.39594393,1236.843636
6.7600,182.1462584,-19.54752461,1236.842857
6.7650,182.0141306,-19.69868418,1236.843855
6.7700,181.871585,-19.84914799,1236.846506
6.7750,181.7175485,-19.99861173,1236.851019
6.7800,181.5525165,-20.14677964,1236.857375
6.7850,181.3755243,-20.29284388,1236.86585
6.7900,181.1879299,-20.4369537,1236.876246
6.7950,180.9891348,-20.57881169,1236.888714
6.8000,180.7805174,-20.71754894,1236.90319
6.8050,180.5634978,-20.85281779,1236.919538
6.8100,180.3381963,-20.98391452,1236.937828
6.8150,180.1056612,-21.11157906,1236.957843
6.8200,179.8674707,-21.23561056,1236.979382
6.8250,179.6240123,-21.35611312,1237.002399
6.8300,179.3765936,-21.47322465,1237.026691
6.8350,179.1244681,-21.58670275,1237.052396
6.8400,178.8705946,-21.69734365,1237.078984
6.8450,178.6152839,-21.80512149,1237.106416
6.8500,178.3601167,-21.91147093,1237.13427
6.8550,178.1062396,-22.01641143,1237.162374
6.8600,177.8554299,-22.11942703,1237.190502
6.8650,177.6094945,-22.2214943,1237.21826
6.8700,177.3688778,-22.32304402,1237.245498
6.8750,177.1341646,-22.42451571,1237.272062
6.8800,176.9061438,-22.52571648,1237.29783
6.8850,176.6865479,-22.62690426,1237.322474
6.8900,176.4764972,-22.72875006,1237.345721
6.8950,176.2759248,-22.83146715,1237.367531
6.9000,176.084213,-22.93419848,1237.388083
6.9050,175.901335,-23.03755401,1237.407292
6.9100,175.7278255,-23.14053917,1237.425162
6.9150,175.5633966,-23.2437363,1237.441639
6.9200,175.4062,-23.346655,1237.457051
6.9250,175.25665,-23.4491709,1237.471339
6.9300,175.1154738,-23.55019803,1237.484493
6.9350,174.9819626,-23.65062346,1237.496497
6.9400,174.8572476,-23.75070597,1237.507127
6.9450,174.7411426,-23.84928191,1237.516531
6.9500,174.6328929,-23.94618987,1237.524835
6.9550,174.5325546,-24.04026408,1237.532162
6.9600,174.4400935,-24.13168844,1237.538468
6.9650,174.3556539,-24.2201676,1237.543755
6.9700,174.279234,-24.30533156,1237.548052
6.9750,174.2108735,-24.38680621,1237.5514
6.9800,174.1522961,-24.46558217,1237.553377
6.9850,174.1043015,-24.53986877,1237.554065
6.9900,174.0677776,-24.61021654,1237.553253
6.9950,174.0427263,-24.67690208,1237.550886
7.0000,174.0301653,-24.73965949,1237.546836
7.0050,174.0293457,-24.79680913,1237.541409
7.0100,174.0420706,-24.84812894,1237.534333
7.0150,174.0676056,-24.89495526,1237.525577
7.0200,174.1059656,-24.93469403,1237.515429
7.0250,174.156194,-24.96818539,1237.503958
7.0300,174.2169172,-24.99480633,1237.491462
7.0350,174.2878686,-25.01492209,1237.47795
7.0400,174.3669447,-25.02840269,1237.463795
7.0450,174.4523919,-25.03463915,1237.449348
7.0500,174.5427826,-25.03345076,1237.434864
7.0550,174.6377782,-25.02459572,1237.420451
7.0600,174.73383,-25.00842468,1237.406642
7.0650,174.8316485,-24.98419777,1237.393405
7.0700,174.9285464,-24.95320544,1237.381034
7.0750,175.0238341,-24.91377739,1237.369843
7.0800,175.1163012,-24.86621511,1237.359995
7.0850,175.2053243,-24.81190024,1237.351445
7.0900,175.2889644,-24.74968494,1237.34463
7.0950,175.3669793,-24.68090998,1237.339438
7.1000,175.4388233,-24.60499001,1237.33604
7.1050,175.5044171,-24.5218429,1237.334452
7.1100,175.5628776,-24.43240176,1237.334729
7.1150,175.6137784,-24.33614502,1237.336997
7.1200,175.6570877,-24.23412574,1237.34115
7.1250,175.6930178,-24.12585416,1237.347215
7.1300,175.720449,-24.01146707,1237.35536
7.1350,175.7405329,-23.89216608,1237.365269
7.1400,175.7530872,-23.76867222,1237.37689
7.1450,175.7564708,-23.64097862,1237.390488
7.1500,175.7518192,-23.50947331,1237.405838
7.1550,175.7379793,-23.37572196,1237.422948
7.1600,175.7153033,-23.23933997,1237.441813
7.1650,175.6829556,-23.1030179,1237.462247
7.1700,175.6413344,-22.96608376,1237.484266
7.1750,175.5914037,-22.82971065,1237.507578
7.1800,175.532683,-22.6957357,1237.532038
7.1850,175.465951,-22.56351654,1237.557602
7.1900,175.3910822,-22.43481973,1237.584077
7.1950,175.3098855,-22.3105071,1237.611074
7.2000,175.2252114,-22.19136966,1237.638025
7.2050,175.137643,-22.07821583,1237.664728
7.2100,175.0495987,-21.97276935,1237.69058
7.2150,174.9631169,-21.87471221,1237.715282
7.2200,174.8809582,-21.785145,1237.738253
7.2250,174.8043571,-21.70411073,1237.759257
7.2300,174.735287,-21.63352543,1237.777727
7.2350,174.6764077,-21.57274799,1237.793297
7.2400,174.6288505,-21.52245113,1237.80569
7.2450,174.5940376,-21.48328489,1237.81457
7.2500,174.5739839,-21.45413817,1237.819729
7.2550,174.5700657,-21.43583472,1237.820841
7.2600,174.5817591,-21.42815765,1237.81801
7.2650,174.6102661,-21.43017937,1237.811143
7.2700,174.6564261,-21.44187075,1237.800112
7.2750,174.7189323,-21.462176,1237.785259
7.2800,174.7967716,-21.48996386,1237.766894
7.2850,174.8891238,-21.52540682,1237.745131
7.2900,174.9949912,-21.56733484,1237.720283
7.2950,175.1119104,-21.61591416,1237.692731
7.3000,175.2393563,-21.669348,1237.662791
7.3050,175.3758244,-21.72787253,1237.630692
7.3100,175.5184448,-21.7912613,1237.596924
7.3150,175.6652527,-21.85782314,1237.562014
7.3200,175.8158075,-21.92784406,1237.526008
7.3250,175.9693464,-22.00068707,1237.489106
7.3300,176.1237169,-22.07529469,1237.451777
7.3350,176.2798002,-22.1515128,1237.413904
7.3400,176.4365972,-22.22785549,1237.375822
7.3450,176.5942274,-22.30479877,1237.337459
7.3500,176.7528379,-22.38191014,1237.298843
7.3550,176.9116594,-22.4598479,1237.260005
7.3600,177.0706976,-22.53779477,1237.22104
7.3650,177.2288909,-22.61502114,1237.182201
7.3700,177.3859269,-22.69089538,1237.143608
7.3750,177.5403348,-22.76629779,1237.105374
7.3800,177.6918719,-22.84065725,1237.067609
7.3850,177.840717,-22.91294473,1237.030387
7.3900,177.9863329,-22.9832213,1236.993792
7.3950,178.1276199,-23.05064262,1236.958085
7.4000,178.2639102,-23.11587297,1236.923267
7.4050,178.3931984,-23.1787311,1236.889661
7.4100,178.5162432,-23.23951125,1236.857099
7.4150,178.6315167,-23.29769924,1236.825872
7.4200,178.7378052,-23.35276889,1236.796214
7.4250,178.8340819,-23.40577584,1236.768135
7.4300,178.920276,-23.45779541,1236.741508
7.4350,178.9954728,-23.50700211,1236.716686
7.4400,179.059347,-23.5559798,1236.693396
7.4450,179.1131892,-23.60478099,1236.671418
7.4500,179.1558148,-23.65413565,1236.650855
7.4550,179.187788,-23.70360176,1236.631656
7.4600,179.2095921,-23.75521337,1236.613514
7.4650,179.2222238,-23.8074416,1236.596441
7.4700,179.2268576,-23.86168387,1236.580103
7.4750,179.223118,-23.91785668,1236.564567
7.4800,179.2118701,-23.97523782,1236.54978
7.4850,179.1941058,-24.03501641,1236.53546
7.4900,179.1711227,-24.09684835,1236.521436
7.4950,179.1420467,-24.16028543,1236.507896
7.5000,179.1074904,-24.22625194,1236.494635
7.5050,179.0672138,-24.2935892,1236.481827
7.5100,179.0219264,-24.3610504,1236.46951
7.5150,178.9706487,-24.42988758,1236.457681
7.5200,178.9134231,-24.49866404,1236.446498
7.5250,178.8506786,-24.56747111,1236.435897
7.5300,178.781631,-24.63486459,1236.426167
7.5350,178.705634,-24.70132774,1236.417356
7.5400,178.6235978,-24.76584981,1236.409441
7.5450,178.5348188,-24.82796072,1236.402595
7.5500,178.4388108,-24.88821657,1236.396851
7.5550,178.3343843,-24.94521491,1236.392543
7.5600,178.2236189,-24.99892356,1236.389369
7.5650,178.105589,-25.04900444,1236.38753
7.5700,177.980415,-25.0955813,1236.386988
7.5750,177.8496336,-25.13819625,1236.387562
7.5800,177.7140874,-25.17646782,1236.389188
7.5850,177.5744659,-25.21052218,1236.391739
7.5900,177.4308436,-25.24102502,1236.395143
7.5950,177.2855008,-25.26654322,1236.399211
7.6000,177.1384623,-25.28731632,1236.403922
7.6050,176.9901076,-25.30310004,1236.409253
7.6100,176.8421087,-25.31310996,1236.415033
7.6150,176.6953777,-25.31718096,1236.421142
7.6200,176.5498812,-25.31577209,1236.427537
7.6250,176.4056861,-25.30840271,1236.434267
7.6300,176.2645853,-25.29506296,1236.441055
7.6350,176.1251666,-25.2760584,1236.448099
7.6400,175.989757,-25.25197815,1236.454964
7.6450,175.8570156,-25.22221002,1236.461941
7.6500,175.7268105,-25.18761358,1236.468959
7.6550,175.5987848,-25.14660373,1236.476271
7.6600,175.473648,-25.10104152,1236.483555
7.6650,175.3512478,-25.05094058,1236.490858
7.6700,175.2322812,-24.99724933,1236.497954
7.6750,175.1171233,-24.93953639,1236.504835
7.6800,175.0065143,-24.87826553,1236.51133
7.6850,174.8993283,-24.81452524,1236.517508
7.6900,174.7964366,-24.74929123,1236.523096
7.6950,174.6982233,-24.68349781,1236.527927
7.7000,174.6043691,-24.61763314,1236.531997
7.7050,174.5162268,-24.5525488,1236.534997
7.7100,174.4334287,-24.48762125,1236.537039
7.7150,174.35714,-24.42454064,1236.537725
7.7200,174.2867396,-24.36311603,1236.537184
7.7250,174.2232548,-24.30296734,1236.535284
7.7300,174.1664977,-24.24371271,1236.532102
7.7350,174.1181589,-24.18673232,1236.527193
7.7400,174.0781937,-24.13057915,1236.520733
7.7450,174.0450749,-24.07534206,1236.512959
7.7500,174.0190544,-24.02136032,1236.503793
7.7550,173.9979149,-23.96830626,1236.493625
7.7600,173.9813704,-23.91605797,1236.482542
7.7650,173.9685709,-23.86419933,1236.47073
7.7700,173.9576558,-23.81374353,1236.458381
7.7750,173.9492436,-23.76508433,1236.445336
7.7800,173.9423896,-23.71776029,1236.431793
7.7850,173.9362962,-23.67177137,1236.417879
7.7900,173.929606,-23.62566796,1236.404007
7.7950,173.9232832,-23.58030002,1236.389908
7.8000,173.9162146,-23.53470285,1236.375897
7.8050,173.9082138,-23.48936568,1236.361945
7.8100,173.8975215,-23.44437432,1236.348338
7.8150,173.8850048,-23.39957121,1236.334966
7.8200,173.869818,-23.35550271,1236.321894
7.8250,173.8519058,-23.31103359,1236.30927
7.8300,173.832049,-23.26739255,1236.296811
7.8350,173.8101482,-23.22342215,1236.284661
7.8400,173.7877713,-23.17866336,1236.272629
7.8450,173.765643,-23.13266107,1236.260654
7.8500,173.7449335,-23.08393061,1236.248699
7.8550,173.7270179,-23.03328805,1236.236434
7.8600,173.7117815,-22.97921009,1236.224069
7.8650,173.701038,-22.92096539,1236.211372
7.8700,173.6941693,-22.85801131,1236.198524
7.8750,173.692957,-22.78909488,1236.185389
7.8800,173.6968181,-22.71523687,1236.171923
7.8850,173.7053374,-22.63445271,1236.158468
7.8900,173.7194972,-22.5461001,1236.144937
7.8950,173.7377352,-22.44990519,1236.131636
7.9000,173.7605489,-22.34637218,1236.118442
7.9050,173.7886454,-22.23404665,1236.105424
7.9100,173.820963,-22.11375791,1236.092681
7.9150,173.8576003,-21.98479119,1236.080289
7.9200,173.8972693,-21.84755735,1236.06844
7.9250,173.9413414,-21.70039008,1236.05713
7.9300,173.9893226,-21.54388534,1236.046388
7.9350,174.0414516,-21.3781156,1236.036171
7.9400,174.0953653,-21.20353331,1236.026838
7.9450,174.1525342,-21.02084814,1236.018077
7.9500,174.2113609,-20.82913679,1236.010286
7.9550,174.2731139,-20.63075151,1236.002961
7.9600,174.3363457,-20.42440184,1235.996536
7.9650,174.4007131,-20.21169639,1235.990861
7.9700,174.4657099,-19.99232328,1235.986069
7.9750,174.5313731,-19.76735758,1235.982021
7.9800,174.5963258,-19.53855161,1235.978731
7.9850,174.6601415,-19.30560715,1235.976311
7.9900,174.7226082,-19.06861561,1235.974801
7.9950,174.7839109,-18.8276348,1235.974156
8.0000,174.8428686,-18.58384162,1235.974411
8.0050,174.898857,-18.33672189,1235.975728
8.0100,174.9502849,-18.08789974,1235.978175
8.0150,174.9960829,-17.83688779,1235.981978
8.0200,175.0365274,-17.58486647,1235.986932
8.0250,175.0691929,-17.33229082,1235.993371
8.0300,175.094016,-17.0792431,1236.001306
8.0350,175.1088476,-16.82593034,1236.011065
8.0400,175.1133274,-16.57274538,1236.02267
8.0450,175.1071629,-16.31952167,1236.036204
8.0500,175.0901839,-16.06548064,1236.051808
8.0550,175.0643585,-15.81054732,1236.069177
8.0600,175.0289467,-15.55495694,1236.088396
8.0650,174.9840843,-15.29822926,1236.10954
8.0700,174.9299658,-15.03893746,1236.132795
8.0750,174.8665809,-14.77719692,1236.158167
8.0800,174.7935655,-14.51361781,1236.185679
8.0850,174.7110119,-14.24681402,1236.215521
8.0900,174.6201639,-13.97838285,1236.247268
8.0950,174.5196313,-13.70714416,1236.281328
8.1000,174.4102341,-13.43334278,1236.317535
8.1050,174.2923223,-13.15729637,1236.355774
8.1100,174.1672973,-12.87870583,1236.395869
8.1150,174.0350711,-12.59748083,1236.437858
8.1200,173.8966126,-12.31304176,1236.481697
8.1250,173.7536246,-12.02713953,1236.526858
8.1300,173.6059863,-11.73789804,1236.573631
8.1350,173.4549018,-11.4461539,1236.621736
8.1400,173.2997965,-11.15161982,1236.671293
8.1450,173.1404118,-10.85540995,1236.722194
8.1500,172.976905,-10.55756986,1236.774447
8.1550,172.8099387,-10.25772035,1236.827998
8.1600,172.6409858,-9.955848247,1236.882597
8.1650,172.4696049,-9.652529576,1236.938268
8.1700,172.2987861,-9.346664067,1236.994669
8.1750,172.1266438,-9.039509136,1237.051954
8.1800,171.9541349,-8.729061873,1237.110295
8.1850,171.7817603,-8.416390181,1237.169425
8.1900,171.6090206,-8.101636546,1237.229415
8.1950,171.4375569,-7.784706819,1237.289992
8.2000,171.2672012,-7.46511967,1237.351276
8.2050,171.0973402,-7.144097689,1237.413148
8.2100,170.9292544,-6.8201262,1237.475629
8.2150,170.7627671,-6.494680792,1237.538515
8.2200,170.5982302,-6.16783147,1237.601735
8.2250,170.4337735,-5.840788839,1237.665418
8.2300,170.2703609,-5.513458939,1237.729431
8.2350,170.1074491,-5.185849573,1237.79389
8.2400,169.9455925,-4.857547525,1237.858759
8.2450,169.7839656,-4.52859068,1237.924173
8.2500,169.6231495,-4.199917588,1237.989874
8.2550,169.4614198,-3.870214607,1238.056405
8.2600,169.3002032,-3.539315805,1238.123539
8.2650,169.1398555,-3.208058702,1238.191059
8.2700,168.9807996,-2.87536149,1238.259102
8.2750,168.8228992,-2.542645414,1238.327434
8.2800,168.6660724,-2.208903027,1238.396235
8.2850,168.5102151,-1.874502648,1238.465449
8.2900,168.3552716,-1.540460977,1238.534908
8.2950,168.1979281,-1.206554177,1238.605254
8.3000,168.0394734,-0.8721427958,1238.676369
8.3050,167.8776667,-0.5395173985,1238.74824
8.3100,167.7114688,-0.2079036108,1238.821203
8.3150,167.5410345,0.1220463489,1238.895086
8.3200,167.3659805,0.4510573915,1238.970059
8.3250,167.1874401,0.7794934111,1239.045992
8.3300,167.0042041,1.106896269,1239.122985
8.3350,166.8159682,1.43296303,1239.201042
8.3400,166.6220832,1.756815968,1239.280146
8.3450,166.4234023,2.077845253,1239.360021
8.3500,166.2193778,2.395761621,1239.440722
8.3550,166.0085025,2.70928276,1239.522329
8.3600,165.7915472,3.02086716,1239.605165
8.3650,165.5683586,3.328495759,1239.68891
8.3700,165.3394585,3.633197933,1239.773687
8.3750,165.10364,3.935414802,1239.859858
8.3800,164.8609489,4.235609828,1239.947496
8.3850,164.6103286,4.532869861,1240.036662
8.3900,164.351735,4.828210897,1240.127604
8.3950,164.0859938,5.122303021,1240.220296
8.4000,163.8130888,5.41518492,1240.314773
8.4050,163.5349191,5.707595668,1240.410845
8.4100,163.2510126,5.999451552,1240.508617
8.4150,162.9610958,6.291677561,1240.60836
8.4200,162.6656997,6.583949553,1240.709895
8.4250,162.3633625,6.877077572,1240.813678
8.4300,162.054001,7.170212442,1240.919597
8.4350,161.7379176,7.463055861,1241.0275
8.4400,161.4148972,7.755004603,1241.137369
8.4450,161.0852391,8.046491097,1241.249278
8.4500,160.7500102,8.33761199,1241.363051
8.4550,160.4092197,8.628416909,1241.478731
8.4600,160.0626645,8.918438969,1241.596309
8.4650,159.7115616,9.208367025,1241.715706
8.4700,159.3555285,9.499771951,1241.837389
8.4750,158.9946485,9.793100071,1241.961465
8.4800,158.6311469,10.08917014,1242.087687
8.4850,158.2664324,10.38913925,1242.216056
8.4900,157.9015817,10.69368827,1242.346525
8.4950,157.5366334,11.00288865,1242.479138
8.5000,157.1714962,11.31755496,1242.614105
8.5050,156.8077492,11.63935589,1242.751476
8.5100,156.445445,11.96774605,1242.891147
8.5150,156.0844689,12.30419661,1243.033435
8.5200,155.7245738,12.64957786,1243.178552
8.5250,155.3677302,13.00344501,1243.325908
8.5300,155.012417,13.36485594,1243.475593
8.5350,154.6591039,13.73388511,1243.627466
8.5400,154.3077435,14.10913921,1243.781245
8.5450,153.9579651,14.48982545,1243.936806
8.5500,153.6100342,14.87428448,1244.093709
8.5550,153.2646864,15.26079256,1244.251379
8.5600,152.9224618,15.64815168,1244.409397
8.5650,152.5818558,16.03566513,1244.567944
8.5700,152.2429405,16.42102049,1244.726452
8.5750,151.9052338,16.80535854,1244.885273
8.5800,151.5684287,17.18882916,1245.044488
8.5850,151.2329423,17.57050983,1245.203825
8.5900,150.8977936,17.95008506,1245.363443
8.5950,150.566196,18.32682578,1245.522399
8.6000,150.237944,18.70038256,1245.68066
8.6050,149.9146126,19.07163049,1245.838072
8.6100,149.5964685,19.4413554,1245.994742
8.6150,149.2838441,19.81008077,1246.150728
8.6200,148.976405,20.1775255,1246.306045
8.6250,148.6736792,20.54432608,1246.460902
8.6300,148.3755665,20.9116336,1246.615598
8.6350,148.0823934,21.27943657,1246.770041
8.6400,147.7948059,21.6483995,1246.924159
8.6450,147.5121684,22.01717296,1247.077767
8.6500,147.232619,22.3853359,1247.231167
8.6550,146.9563448,22.75205444,1247.384065
8.6600,146.6811848,23.11514757,1247.536417
8.6650,146.4059017,23.47497793,1247.688589
8.6700,146.1299426,23.82955785,1247.840181
8.6750,145.8534715,24.17898337,1247.991182
8.6800,145.5766811,24.52245357,1248.141335
8.6850,145.299765,24.86005453,1248.290589
8.6900,145.0220154,25.19251239,1248.439314
8.6950,144.7425295,25.5190455,1248.587547
8.7000,144.4590829,25.84037492,1248.736079
8.7050,144.170944,26.15707486,1248.88525
8.7100,143.877542,26.46971613,1249.035357
8.7150,143.5806258,26.77777085,1249.185812
8.7200,143.2799236,27.0811471,1249.336669
8.7250,142.9764849,27.37984634,1249.487702
8.7300,142.6701994,27.67336809,1249.638825
8.7350,142.3597418,27.96260273,1249.790668
8.7400,142.0439694,28.24716337,1249.943459
8.7450,141.7212316,28.52882446,1250.098103
8.7500,141.3911138,28.80749778,1250.254709
8.7550,141.0518524,29.08475698,1250.414207
8.7600,140.7041745,29.36045402,1250.576379
8.7650,140.3481955,29.63544165,1250.7415
8.7700,139.9831059,29.90853395,1250.909481
8.7750,139.6110324,30.18209087,1251.080406
8.7800,139.231381,30.4556579,1251.254322
8.7850,138.8430589,30.72982563,1251.431706
8.7900,138.4464119,31.00472381,1251.612519
8.7950,138.0420295,31.28211827,1251.797129
8.8000,137.6288966,31.56184025,1251.985802
8.8050,137.2063357,31.84370675,1252.178736
8.8100,136.7758658,32.12827378,1252.375693
8.8150,136.3382994,32.41479953,1252.57628
8.8200,135.8941816,32.70345191,1252.780448
8.8250,135.4427223,32.9949319,1252.988678
8.8300,134.9866543,33.28894461,1253.200141
8.8350,134.5256733,33.5859421,1253.415078
8.8400,134.0605049,33.88585113,1253.633286
8.8450,133.5936183,34.18960229,1253.854319
8.8500,133.1264948,34.49781205,1254.077937
8.8550,132.6595709,34.80935226,1254.303715
8.8600,132.1918535,35.12364314,1254.531773
8.8650,131.7255423,35.44084924,1254.761533
8.8700,131.2597429,35.76019603,1254.993081
8.8750,130.7945642,36.08109358,1255.226236
8.8800,130.3308406,36.4035291,1255.460793
8.8850,129.868597,36.72645814,1255.696429
8.8900,129.4085138,37.05089087,1255.933245
8.8950,128.9504535,37.37662406,1256.171255
8.9000,128.4932836,37.70448462,1256.411042
8.9050,128.0385621,38.03566379,1256.652447
8.9100,127.5872319,38.3700559,1256.895148
8.9150,127.1391781,38.7089007,1257.139547
8.9200,126.6956063,39.05212543,1257.385183
8.9250,126.2576756,39.39802335,1257.631163
8.9300,125.8259053,39.74584402,1257.877012
8.9350,125.3998946,40.09534996,1258.122708
8.9400,124.9785717,40.44700206,1258.36873
8.9450,124.5618778,40.80057583,1258.614974
8.9500,124.1519506,41.15583117,1258.86063
8.9550,123.7492527,41.51302472,1259.105577
8.9600,123.3552682,41.87249413,1259.349367
8.9650,122.969658,42.23289737,1259.59167
8.9700,122.5926914,42.59512157,1259.832648
8.9750,122.224208,42.95767706,1260.071796
8.9800,121.8646363,43.32153055,1260.309256
8.9850,121.5123887,43.68571329,1260.545236
8.9900,121.168171,44.04955468,1260.779256
8.9950,120.8325908,44.41321411,1261.011132
9.0000,120.506248,44.77489956,1261.240073
9.0050,120.187239,45.13497857,1261.466841
9.0100,119.8748279,45.49242428,1261.69134
9.0150,119.5663619,45.84840311,1261.91482
9.0200,119.2607175,46.20362284,1262.137911
9.0250,118.9567104,46.55882976,1262.361242
9.0300,118.6537838,46.91443123,1262.585172
9.0350,118.3520951,47.27007227,1262.80951
9.0400,118.0523437,47.62490714,1263.033706
9.0450,117.7549771,47.97866197,1263.257501
9.0500,117.4592765,48.33102798,1263.48104
9.0550,117.1654138,48.68049273,1263.703695
9.0600,116.8723737,49.02740496,1263.925972
9.0650,116.578079,49.37040165,1264.148101
9.0700,116.283057,49.70949763,1264.369874
9.0750,115.9856234,50.04350621,1264.591497
9.0800,115.6856445,50.37213432,1264.812904
9.0850,115.3838135,50.69677895,1265.034327
9.0900,115.0819415,51.01848543,1265.255474
9.0950,114.7796419,51.33588259,1265.476013
9.1000,114.4796862,51.65022318,1265.695353
9.1050,114.1825145,51.96082041,1265.913095
9.1100,113.8862141,52.26783387,1266.130017
9.1150,113.5912738,52.57148921,1266.346046
9.1200,113.2984596,52.87153399,1266.560823
9.1250,113.0082382,53.16757485,1266.774061
9.1300,112.7200213,53.46137498,1266.986602
9.1350,112.4340475,53.75294024,1267.198404
9.1400,112.1514409,54.042668,1267.409132
9.1450,111.8716794,54.33036056,1267.618932
9.1500,111.5940587,54.61563983,1267.827921
9.1550,111.3182688,54.89962336,1268.036624
9.1600,111.0444175,55.1805827,1268.244372
9.1650,110.771553,55.45959131,1268.451899
9.1700,110.5000308,55.73659518,1268.65902
9.1750,110.2304381,56.01217351,1268.865719
9.1800,109.9648637,56.28554092,1269.070841
9.1850,109.7021845,56.55814365,1269.275337
9.1900,109.4435638,56.8289158,1269.47833
9.1950,109.1875573,57.09782478,1269.680315
9.2000,108.9355703,57.36539423,1269.880928
9.2050,108.6872003,57.63118992,1270.080126
9.2100,108.4434401,57.89529154,1270.277461
9.2150,108.2049592,58.1569631,1270.472338
9.2200,107.9719721,58.41610547,1270.664607
9.2250,107.7447016,58.67390001,1270.854586
9.2300,107.5236562,58.92958439,1271.041799
9.2350,107.3100861,59.1833577,1271.225737
9.2400,107.1053452,59.43471056,1271.405593
9.2450,106.9086459,59.68374402,1271.581676
9.2500,106.7191305,59.92918342,1271.7538
9.2550,106.5357725,60.17079059,1271.922239
9.2600,106.3573491,60.40773741,1272.087179
9.2650,106.184611,60.64051971,1272.248444
9.2700,106.0160233,60.86769858,1272.406036
9.2750,105.851301,61.08942112,1272.560104
9.2800,105.6887626,61.30453189,1272.710888
9.2850,105.5290034,61.51333178,1272.858217
9.2900,105.3710414,61.71580499,1273.002494
9.2950,105.2146222,61.91175164,1273.14371
9.3000,105.0595786,62.10286665,1273.282572
9.3050,104.9059489,62.28837055,1273.418733
9.3100,104.7533039,62.4685744,1273.552479
9.3150,104.6018233,62.64309393,1273.683615
9.3200,104.4527278,62.81226264,1273.811787
9.3250,104.3058265,62.97614414,1273.937089
9.3300,104.1602233,63.13408505,1274.059606
9.3350,104.0158598,63.28701967,1274.179729
9.3400,103.8720859,63.4362983,1274.298285
9.3450,103.7302455,63.580767,1274.414247
9.3500,103.5889079,63.72129428,1274.52853
9.3550,103.4494051,63.85781028,1274.640604
9.3600,103.311708,63.99100386,1274.750679
9.3650,103.1770954,64.12228239,1274.858822
9.3700,103.0448688,64.25180737,1274.96538
9.3750,102.9165337,64.37993917,1275.069899
9.3800,102.7908041,64.50763296,1275.173366
9.3850,102.6676009,64.63312056,1275.275085
9.3900,102.5459071,64.75706428,1275.375792
9.3950,102.4246342,64.8801586,1275.476275
9.4000,102.3035256,65.00200735,1275.576489
9.4050,102.1807972,65.12449317,1275.677957
9.4100,102.0582954,65.24785416,1275.779959
9.4150,101.9359128,65.37383576,1275.883282
9.4200,101.813945,65.50301582,1275.988038
9.4250,101.6928827,65.6365821,1276.094464
9.4300,101.5721735,65.77384429,1276.202507
9.4350,101.4529765,65.91517459,1276.311838
9.4400,101.3347672,66.06062751,1276.42273
9.4450,101.2176343,66.2093197,1276.53475
9.4500,101.1023396,66.36171094,1276.647774
9.4550,100.9880814,66.5166513,1276.761656
9.4600,100.8751702,66.67537321,1276.87676
9.4650,100.7640798,66.83583454,1276.992021
9.4700,100.6542724,66.99829589,1277.107767
9.4750,100.5460991,67.16118938,1277.223226
9.4800,100.4363129,67.32385893,1277.339508
9.4850,100.3267333,67.486663,1277.456025
9.4900,100.2163648,67.64974902,1277.573203
9.4950,100.1061371,67.81400433,1277.691014
9.5000,99.99696246,67.97987841,1277.809229
9.5050,99.88850337,68.14767245,1277.928121
9.5100,99.78119061,68.31669508,1278.047212
9.5150,99.67454908,68.48822345,1278.167277
9.5200,99.56872829,68.66212097,1278.288191
9.5250,99.46371136,68.83851067,1278.409996
9.5300,99.35889323,69.0172438,1278.532854
9.5350,99.25407708,69.19796959,1278.656737
9.5400,99.14780343,69.38003994,1278.782016
9.5450,99.04115498,69.56339737,1278.908178
9.5500,98.93407777,69.74702015,1279.034817
9.5550,98.82748237,69.93044125,1279.161328
9.5600,98.72139298,70.11336774,1279.287531
9.5650,98.61530951,70.29440582,1279.413075
9.5700,98.50995033,70.47234552,1279.537145
9.5750,98.40441974,70.64761065,1279.660322
9.5800,98.30030737,70.8193284,1279.781461
9.5850,98.19784124,70.98740618,1279.900453
9.5900,98.09685867,71.15124982,1280.017059
9.5950,97.99668291,71.31032882,1280.131389
9.6000,97.89733656,71.46390747,1280.243058
9.6050,97.79968705,71.61184113,1280.351587
9.6100,97.70435033,71.7535625,1280.456465
9.6150,97.6105652,71.88786742,1280.557479
9.6200,97.51774803,72.01474841,1280.654856
9.6250,97.42694862,72.13391377,1280.748007
9.6300,97.33746277,72.2466695,1280.837792
9.6350,97.25010152,72.35278814,1280.923753
9.6400,97.16521881,72.45293472,1281.006014
9.6450,97.08150751,72.54804558,1281.085573
9.6500,97.00034937,72.63805982,1281.16182
9.6550,96.92152729,72.72514566,1281.235786
9.6600,96.84568494,72.80915341,1281.307135
9.6650,96.77247448,72.89025665,1281.376053
9.6700,96.70275589,72.96821659,1281.442078
9.6750,96.63612079,73.04359972,1281.50562
9.6800,96.57345974,73.11561802,1281.565896
9.6850,96.5140762,73.18515277,1281.623671
9.6900,96.45677758,73.25042917,1281.678689
9.6950,96.40147047,73.31265281,1281.731483
9.7000,96.34826699,73.3712797,1281.781793
9.7050,96.29886562,73.42691264,1281.829121
9.7100,96.25114433,73.47951076,1281.87446
9.7150,96.20441798,73.52916052,1281.918111
9.7200,96.15926519,73.57637184,1281.960038
9.7250,96.11597798,73.62174659,1282.00042
9.7300,96.07472184,73.66573879,1282.039325
9.7350,96.03509459,73.7084753,1282.076978
9.7400,95.99680917,73.75039184,1282.113645
9.7450,95.95950734,73.79160444,1282.149562
9.7500,95.92204677,73.83221694,1282.185252
9.7550,95.88535699,73.87276107,1282.2205
9.7600,95.85030116,73.91327048,1282.254872
9.7650,95.81702579,73.95445503,1282.288668
9.7700,95.78563924,73.99589171,1282.321668
9.7750,95.75612219,74.03794975,1282.353986
9.7800,95.72930227,74.0813733,1282.385609
9.7850,95.7044906,74.12471997,1282.416212
9.7900,95.68120405,74.16848864,1282.446278
9.7950,95.66025534,74.21305367,1282.475658
9.8000,95.64028135,74.25815843,1282.5049
9.8050,95.62138102,74.30487727,1282.534445
9.8100,95.60312953,74.35421881,1282.564966
9.8150,95.58660494,74.40569469,1282.595788
9.8200,95.57089966,74.45988213,1282.627633
9.8250,95.55467367,74.5167323,1282.661107
9.8300,95.53862725,74.57679174,1282.696207
9.8350,95.52091372,74.6399856,1282.733754
9.8400,95.50250552,74.70708274,1282.773675
9.8450,95.48231228,74.7781605,1282.81653
9.8500,95.46078649,74.85447888,1282.862677
9.8550,95.43568619,74.93508674,1282.912746
9.8600,95.40585001,75.01918071,1282.966923
9.8650,95.37044502,75.10847425,1283.026353
9.8700,95.32839319,75.20320474,1283.091627
9.8750,95.27957569,75.30256715,1283.162428
9.8800,95.2220902,75.4070124,1283.239842
9.8850,95.15599024,75.51713082,1283.324075
9.8900,95.08111876,75.63170401,1283.414665
9.8950,94.99772817,75.75120077,1283.511647
9.9000,94.90574795,75.87597407,1283.615218
9.9050,94.80408939,76.00483928,1283.725364
9.9100,94.69250009,76.13807454,1283.842303
9.9150,94.57142197,76.27627653,1283.96611
9.9200,94.440892,76.41812834,1284.096198
9.9250,94.29898717,76.56359786,1284.233416
9.9300,94.14738907,76.71244288,1284.376907
9.9350,93.98612014,76.863694,1284.526209
9.9400,93.81556121,77.01746839,1284.68122
9.9450,93.63651855,77.17374177,1284.841554
9.9500,93.44876533,77.3310801,1285.006647
9.9550,93.2531022,77.48988734,1285.17632
9.9600,93.04900624,77.6498782,1285.350708
9.9650,92.83813675,77.81143261,1285.529248
9.9700,92.62034704,77.97485519,1285.712155
9.9750,92.3965677,78.13957675,1285.898756
9.9800,92.16754494,78.30616022,1286.088978
9.9850,91.93408139,78.4739909,1286.282139
9.9900,91.69694139,78.64456032,1286.478607
9.9950,91.45755527,78.81718391,1286.677401
10.0000,91.21730207,78.99300025,1286.878426
10.0050,90.97627903,79.1705202,1287.080945
10.0100,90.7356979,79.34974478,1287.28435
10.0150,90.49677089,79.53080085,1287.488163
10.0200,90.25931689,79.71306138,1287.692167
10.0250,90.02433027,79.89597796,1287.895587
10.0300,89.79304361,80.07988132,1288.098002
10.0350,89.56581954,80.26301944,1288.298393
10.0400,89.34347843,80.44464627,1288.496035
10.0450,89.12684805,80.62488296,1288.690529
10.0500,88.91623217,80.80235572,1288.881066
10.0550,88.71262289,80.97616481,1289.066741
10.0600,88.51584158,81.14599625,1289.247516
10.0650,88.32507182,81.31073836,1289.423159
10.0700,88.14114866,81.47095468,1289.593527
10.0750,87.96376363,81.62544164,1289.75819
10.0800,87.7921341,81.77263433,1289.916757
10.0850,87.6272404,81.91335321,1290.069112
10.0900,87.46901721,82.04633902,1290.214631
10.0950,87.31639222,82.17217262,1290.354063
10.1000,87.16989182,82.28934246,1290.486368
10.1050,87.02966995,82.39717324,1290.611126
10.1100,86.89527228,82.49606238,1290.728728
10.1150,86.76586349,82.58512126,1290.839116
10.1200,86.64237078,82.66464601,1290.941906
10.1250,86.52561926,82.7347386,1291.036723
10.1300,86.41398594,82.79456958,1291.12391
10.1350,86.30928066,82.84504643,1291.202995
10.1400,86.21055091,82.88538449,1291.274057
10.1450,86.11731914,82.91618306,1291.33759
10.1500,86.02816475,82.93742948,1291.394273
10.1550,85.94492706,82.95152003,1291.444323
10.1600,85.86821148,82.95826356,1291.487328
10.1650,85.79817544,82.9568657,1291.522777
10.1700,85.73451371,82.94777359,1291.551063
10.1750,85.67739296,82.93151317,1291.572307
10.1800,85.62739871,82.90871886,1291.586525
10.1850,85.58355119,82.87848755,1291.593785
10.1900,85.54530952,82.8413123,1291.594589
10.1950,85.51191803,82.79786235,1291.589683
10.2000,85.48453136,82.74735697,1291.578131
10.2050,85.46264647,82.69161297,1291.561104
10.2100,85.44608492,82.6304318,1291.538573
10.2150,85.43572091,82.56482592,1291.510579
10.2200,85.43044729,82.49572466,1291.478157
10.2250,85.43160995,82.42382189,1291.440995
10.2300,85.4394913,82.34951729,1291.399155
10.2350,85.45422504,82.27449808,1291.353423
10.2400,85.47497341,82.19887741,1291.304268
10.2450,85.50258851,82.12328333,1291.251582
10.2500,85.53751854,82.04915124,1291.195832
10.2550,85.57964685,81.97515947,1291.136459
10.2600,85.62941019,81.90268532,1291.073922
10.2650,85.68629503,81.83152171,1291.008361
10.2700,85.75091974,81.76256681,1290.939941
10.2750,85.82223048,81.69617128,1290.869324
10.2800,85.90135034,81.63251505,1290.796033
10.2850,85.98818347,81.57155041,1290.720134
10.2900,86.08360885,81.51409286,1290.641562
10.2950,86.18726628,81.46038264,1290.560644
10.3000,86.29804501,81.40977806,1290.477609
10.3050,86.41503252,81.36235386,1290.392967
10.3100,86.53819381,81.3190367,1290.30722
10.3150,86.66773274,81.2777899,1290.219285
10.3200,86.80384991,81.24030097,1290.129855
10.3250,86.94469486,81.20569764,1290.039483
10.3300,87.09015502,81.17332316,1289.947909
10.3350,87.24103341,81.14445527,1289.855349
10.3400,87.39644396,81.11801538,1289.761719
10.3450,87.55648296,81.09357473,1289.666807
10.3500,87.72046466,81.07217289,1289.57149
10.3550,87.88805356,81.05314059,1289.475564
10.3600,88.0594231,81.03641336,1289.378945
10.3650,88.23392204,81.02205085,1289.282047
10.3700,88.41101423,81.00860372,1289.184379
10.3750,88.59050317,80.9970754,1289.086563
10.3800,88.77299616,80.98765653,1288.988389
10.3850,88.95686854,80.97943143,1288.890169
10.3900,89.14299669,80.97356911,1288.792093
10.3950,89.33145568,80.96741407,1288.692825
10.4000,89.52275544,80.96148125,1288.592379
10.4050,89.71529615,80.95515932,1288.49125
10.4100,89.90959361,80.94744266,1288.388709
10.4150,90.10524427,80.93858567,1288.285096
10.4200,90.30097408,80.92787837,1288.180687
10.4250,90.49659921,80.9154951,1288.075674
10.4300,90.69315704,80.90153228,1287.96963
10.4350,90.88984462,80.88544307,1287.862673
10.4400,91.08642894,80.86856454,1287.755582
10.4450,91.28292204,80.84931019,1287.647619
10.4500,91.4796739,80.82877665,1287.539162
10.4550,91.67651112,80.80567276,1287.429666
10.4600,91.87293393,80.78052733,1287.319632
10.4650,92.06982509,80.75361317,1287.208805
10.4700,92.26670588,80.72487072,1287.097334
10.4750,92.4639318,80.69369471,1286.984794
10.4800,92.66022694,80.66017183,1286.871853
10.4850,92.85613397,80.62449896,1286.758316
10.4900,93.05219694,80.58749462,1286.644345
10.4950,93.24874573,80.54881919,1286.529647
10.5000,93.44393528,80.50860352,1286.415162
10.5050,93.6390441,80.46785586,1286.30074
10.5100,93.83426619,80.42664774,1286.18637
10.5150,94.02926868,80.38500609,1286.07224
10.5200,94.22525512,80.34363875,1285.958105
10.5250,94.42168525,80.30140696,1285.843697
10.5300,94.61795541,80.25844469,1285.72936
10.5350,94.81315582,80.21353468,1285.614949
10.5400,95.00972072,80.16741516,1285.49966
10.5450,95.206729,80.1197296,1285.38375
10.5500,95.40425103,80.06993469,1285.266921
10.5550,95.60229393,80.01872857,1285.149487
10.5600,95.80052614,79.96525209,1285.03121
10.5650,95.99900918,79.91052435,1284.912562
10.5700,96.1981244,79.85415837,1284.793159
10.5750,96.39777197,79.79728358,1284.673632
10.5800,96.59688429,79.74042057,1284.55469
10.5850,96.79614652,79.68323615,1284.435846
10.5900,96.99422355,79.62565739,1284.317678
10.5950,97.19331439,79.56822614,1284.199407
10.6000,97.39272586,79.51164885,1284.081674
10.6050,97.5940219,79.45578216,1283.963684
10.6100,97.79776518,79.3995558,1283.84468
10.6150,98.00286179,79.34355325,1283.725405
10.6200,98.20953647,79.28631239,1283.60507
10.6250,98.41747046,79.22733797,1283.483582
10.6300,98.62574536,79.16717947,1283.361655
10.6350,98.83416791,79.10501029,1283.238992
10.6400,99.04246038,79.04101881,1283.115846
10.6450,99.2514047,78.97663223,1282.992544
10.6500,99.46013747,78.91000113,1282.868583
10.6550,99.66902457,78.84215315,1282.744319
10.6600,99.87759506,78.77208362,1282.619518
10.6650,100.0866669,78.70094756,1282.494311
10.6700,100.2959134,78.62820555,1282.368653
10.6750,100.5058027,78.5533092,1282.24206
10.6800,100.7156671,78.47542849,1282.114419
10.6850,100.9265849,78.39542592,1281.985691
10.6900,101.1382851,78.31289656,1281.855737
10.6950,101.349465,78.22868286,1281.725537
10.7000,101.560284,78.14301117,1281.595118
10.7050,101.7719552,78.05552148,1281.463777
10.7100,101.9832162,77.9666713,1281.332285
10.7150,102.1951351,77.87640842,1281.200131
10.7200,102.4079851,77.78476505,1281.06721
10.7250,102.6212833,77.69155824,1280.933649
10.7300,102.8346338,77.59615571,1280.799316
10.7350,103.0488371,77.49832261,1280.663765
10.7400,103.2636047,77.39662354,1280.526431
10.7450,103.4790036,77.29111284,1280.387306
10.7500,103.694411,77.18066394,1280.246135
10.7550,103.9081677,77.06379971,1280.102973
10.7600,104.1208967,76.94112812,1279.957797
10.7650,104.3321776,76.81177082,1279.810398
10.7700,104.5427415,76.67553044,1279.660397
10.7750,104.7522434,76.53314843,1279.508277
10.7800,104.9617034,76.38498583,1279.353794
10.7850,105.170369,76.2316747,1279.197597
10.7900,105.3786316,76.07286768,1279.03938
10.7950,105.5865087,75.90891315,1278.879335
10.8000,105.7948335,75.74068844,1278.717511
10.8050,106.0037081,75.56648931,1278.553123
10.8100,106.2129131,75.38768532,1278.386857
10.8150,106.4221005,75.20452066,1278.218995
10.8200,106.6314207,75.01634016,1278.049196
10.8250,106.8408779,74.82390541,1277.877764
10.8300,107.0512356,74.62686664,1277.704213
10.8350,107.2634034,74.42633353,1277.528672
10.8400,107.4752489,74.22205914,1277.35192
10.8450,107.6875688,74.01455079,1277.173869
10.8500,107.9018846,73.80502755,1276.994463
10.8550,108.1179959,73.59245892,1276.813355
10.8600,108.3373087,73.37782161,1276.630421
10.8650,108.5596676,73.16039971,1276.445407
10.8700,108.7846373,72.94081267,1276.258838
10.8750,109.0129466,72.71727223,1276.069602
10.8800,109.2450475,72.48993591,1275.877636
10.8850,109.4806095,72.260387,1275.683797
10.8900,109.7207118,72.02889314,1275.487792
10.8950,109.9634736,71.79553896,1275.290425
10.9000,110.2096976,71.55968901,1275.091146
10.9050,110.4591581,71.32226559,1274.890473
10.9100,110.7113128,71.08308665,1274.688556
10.9150,110.9676986,70.84433274,1274.485762
10.9200,111.2281335,70.60619385,1274.282287
10.9250,111.4944819,70.37015062,1274.07802
10.9300,111.7672109,70.13408753,1273.871899
10.9350,112.0450274,69.89904884,1273.664895
10.9400,112.3284752,69.6651762,1273.456851
10.9450,112.6172194,69.43111746,1273.247333
10.9500,112.9125343,69.19659574,1273.035754
10.9550,113.2140654,68.96195954,1272.822416
10.9600,113.5200466,68.72568023,1272.607319
10.9650,113.8300295,68.48651155,1272.390157
10.9700,114.1433759,68.24404791,1272.171018
10.9750,114.4588235,67.99729684,1271.949963
10.9800,114.7761661,67.74654886,1271.727235
10.9850,115.0937226,67.49119489,1271.503227
10.9900,115.4112805,67.23164142,1271.27824
10.9950,115.7285817,66.96817552,1271.052478
11.0000,116.0457855,66.70114219,1270.826057
11.0050,116.3631264,66.43139887,1270.599245
11.0100,116.6808518,66.16019966,1270.372448
11.0150,116.9985485,65.88658048,1270.145431
11.0200,117.3149595,65.61136286,1269.919013
11.0250,117.6316541,65.33399748,1269.692354
11.0300,117.9477611,65.05567849,1269.46629
11.0350,118.2623082,64.77535324,1269.240718
11.0400,118.5766436,64.49365159,1269.015448
11.0450,118.8908117,64.21047881,1268.790424
11.0500,119.2054524,63.92699745,1268.565886
11.0550,119.5211957,63.64340498,1268.341709
11.0600,119.838109,63.35986851,1268.117958
11.0650,120.1550329,63.07716513,1267.895373
11.0700,120.4731939,62.79635979,1267.673948
11.0750,120.7919761,62.51720653,1267.453829
11.0800,121.1109197,62.2387036,1267.23477
11.0850,121.4325744,61.96260064,1267.016583
11.0900,121.755914,61.6883326,1266.799366
11.0950,122.081262,61.4150373,1266.582664
11.1000,122.4088085,61.14258592,1266.366325
11.1050,122.7381791,60.87150542,1266.15071
11.1100,123.0694485,60.60120368,1265.935568
11.1150,123.4027903,60.33206007,1265.720991
11.1200,123.7384637,60.06445777,1265.507024
11.1250,124.0756453,59.79927017,1265.294346
11.1300,124.4148069,59.53636957,1265.082733
11.1350,124.7562641,59.27641083,1264.872346
11.1400,125.1004446,59.01899898,1264.662907
11.1450,125.4482052,58.76510605,1264.454511
11.1500,125.798741,58.51377312,1264.247078
11.1550,126.1529829,58.26596594,1264.040655
11.1600,126.5108919,58.02106354,1263.834988
11.1650,126.8729283,57.7788274,1263.629863
11.1700,127.2392065,57.53808762,1263.424744
11.1750,127.609799,57.29855613,1263.21953
11.1800,127.9842569,57.05943512,1263.014064
11.1850,128.3629484,56.82008991,1262.808009
11.1900,128.7446956,56.57924568,1262.601286
11.1950,129.1305073,56.33639389,1262.393424
11.2000,129.5199257,56.09193175,1262.184742
11.2050,129.9135847,55.84569613,1261.975001
11.2100,130.3120039,55.59817792,1261.764239
11.2150,130.7153511,55.34877894,1261.552214
11.2200,131.1239531,55.09672552,1261.338565
11.2250,131.5368222,54.84203558,1261.123646
11.2300,131.9532635,54.58595731,1260.908164
11.2350,132.3742171,54.32722293,1260.691379
11.2400,132.7997651,54.0651184,1260.473036
11.2450,133.2281805,53.79909199,1260.253475
11.2500,133.6599147,53.53014279,1260.032918
11.2550,134.0945133,53.25604006,1259.810684
11.2600,134.5313499,52.97911994,1259.587866
11.2650,134.9710419,52.69815054,1259.363794
11.2700,135.4136527,52.41463587,1259.139023
11.2750,135.858202,52.12806131,1258.913704
11.2800,136.3051871,51.83918334,1258.687958
11.2850,136.7549129,51.5479574,1258.461701
11.2900,137.2070998,51.25269382,1258.234429
11.2950,137.6626013,50.95252415,1258.005639
11.3000,138.120478,50.64772098,1257.775717
11.3050,138.5794863,50.33726282,1257.544699
11.3100,139.0399199,50.0205024,1257.312312
11.3150,139.5009366,49.69886868,1257.079311
11.3200,139.9631122,49.37232451,1256.845541
11.3250,140.4266037,49.04141873,1256.611199
11.3300,140.8914296,48.70670874,1256.376464
11.3350,141.358053,48.369861,1256.141806
11.3400,141.8255591,48.03135306,1255.907643
11.3450,142.29568,47.69269525,1255.674022
11.3500,142.7677262,47.35334187,1255.440965
11.3550,143.2432775,47.01522733,1255.208666
11.3600,143.7213326,46.6780707,1254.977326
11.3650,144.2031262,46.34140473,1254.746424
11.3700,144.6875558,46.00459373,1254.516088
11.3750,145.1741245,45.66738402,1254.286346
11.3800,145.6631637,45.32999329,1254.057186
11.3850,146.1510996,44.99027289,1253.828851
11.3900,146.6384152,44.64882753,1253.601445
11.3950,147.1240253,44.30662936,1253.375529
11.4000,147.6067561,43.96329423,1253.151318
11.4050,148.0856098,43.62137178,1252.929867
11.4100,148.5608796,43.28022914,1252.710865
11.4150,149.0325441,42.94031414,1252.494414
11.4200,149.5008858,42.60252905,1252.280734
11.4250,149.9669806,42.26770862,1252.069784
11.4300,150.4302276,41.93605701,1251.861786
11.4350,150.8905873,41.60780892,1251.656801
11.4400,151.3485217,41.28416026,1251.455059
11.4450,151.8025852,40.96445321,1251.256675
11.4500,152.2528369,40.64876354,1251.061616
11.4550,152.698905,40.33790999,1250.870211
11.4600,153.1396639,40.0317858,1250.682656
11.4650,153.5745585,39.73139625,1250.49935
11.4700,154.0022649,39.43679186,1250.320572
11.4750,154.4224948,39.14862647,1250.146519
11.4800,154.8357588,38.86735467,1249.977157
11.4850,155.2424309,38.59339815,1249.812425
11.4900,155.6437199,38.32697657,1249.652055
11.4950,156.0389462,38.06738526,1249.495959
11.5000,156.4279943,37.81400384,1249.343905
11.5050,156.8108557,37.56601427,1249.195652
11.5100,157.1866611,37.32155009,1249.050798
11.5150,157.554638,37.07942641,1248.909134
11.5200,157.912492,36.83870439,1248.77089
11.5250,158.2599823,36.59750112,1248.63553
11.5300,158.5962874,36.35495769,1248.502914
11.5350,158.9213081,36.11173538,1248.373219
11.5400,159.2334974,35.86725349,1248.246577
11.5450,159.5346519,35.62195252,1248.122674
11.5500,159.8254519,35.37568761,1248.001314
11.5550,160.1057398,35.12990989,1247.882968
11.5600,160.3773528,34.88335917,1247.766833
11.5650,160.6400884,34.63756967,1247.653446
11.5700,160.8947998,34.39177439,1247.542358
11.5750,161.1418566,34.14672232,1247.433685
11.5800,161.3831004,33.90281351,1247.327145
11.5850,161.6179875,33.66046478,1247.222971
11.5900,161.8469593,33.41993586,1247.121115
11.5950,162.0704952,33.18276279,1247.021903
11.6000,162.2875963,32.94867401,1246.92543
11.6050,162.5002459,32.71830228,1246.831434
11.6100,162.7086108,32.49097566,1246.739659
11.6150,162.9142425,32.26710961,1246.64987
11.6200,163.1194102,32.04564381,1246.561289
11.6250,163.3233199,31.82717129,1246.474219
11.6300,163.5281937,31.61140804,1246.388137
11.6350,163.7331631,31.39782539,1246.303066
11.6400,163.9399403,31.1865354,1246.218687
11.6450,164.147415,30.97717757,1246.135114
11.6500,164.3563904,30.76929995,1246.052089
11.6550,164.5666901,30.56279887,1245.969637
11.6600,164.7790009,30.35615196,1245.887189
11.6650,164.9928747,30.15036248,1245.805132
11.6700,165.208287,29.94615752,1245.72365
11.6750,165.4258518,29.74327369,1245.642567
11.6800,165.6447785,29.54192508,1245.562085
11.6850,165.8664481,29.3431791,1245.482193
11.6900,166.0898868,29.14684565,1245.403028
11.6950,166.3159879,28.95242156,1245.324251
11.7000,166.5449214,28.76031956,1245.24593
11.7050,166.7775396,28.56939889,1245.16758
11.7100,167.013497,28.3799392,1245.089332
11.7150,167.2519658,28.19222469,1245.011462
11.7200,167.4914796,28.00545868,1244.934005
11.7250,167.7326602,27.81843684,1244.856508
11.7300,167.9750237,27.63348044,1244.779664
11.7350,168.2179209,27.44969502,1244.70335
11.7400,168.4595542,27.26623257,1244.627666
11.7450,168.7000513,27.08296196,1244.552531
11.7500,168.9385261,26.90065924,1244.478305
11.7550,169.1744545,26.71787529,1244.404662
11.7600,169.407428,26.53551657,1244.331939
11.7650,169.6363906,26.35315022,1244.260192
11.7700,169.8627242,26.17059243,1244.189102
11.7750,170.0854956,25.98760124,1244.118793
11.7800,170.3037625,25.80443099,1244.04952
11.7850,170.5161414,25.62045099,1243.981372
11.7900,170.7214506,25.43540325,1243.914496
11.7950,170.9182113,25.25004072,1243.849372
11.8000,171.1058376,25.06418798,1243.78606
11.8050,171.2818863,24.87903708,1243.725299
11.8100,171.4472515,24.69598679,1243.667311
11.8150,171.6018,24.51387798,1243.611795
11.8200,171.7481861,24.33425205,1243.558687
11.8250,171.8866924,24.15721291,1243.507946
11.8300,172.0179889,23.98266227,1243.459442
11.8350,172.1418481,23.80925389,1243.412882
11.8400,172.2602932,23.63826429,1243.368243
11.8450,172.3729711,23.46835653,1243.325253
11.8500,172.4804591,23.29907358,1243.283669
11.8550,172.5831339,23.12950527,1243.243166
11.8600,172.6824159,22.96107761,1243.203867
11.8650,172.7787072,22.79279053,1243.165408
11.8700,172.8733322,22.62496906,1243.127654
11.8750,172.9685834,22.4581196,1243.09033
11.8800,173.0632051,22.29177871,1243.053542
11.8850,173.1599375,22.12571452,1243.016733
11.8900,173.259212,21.96060539,1242.980001
11.8950,173.3625063,21.79599076,1242.942959
11.9000,173.4709781,21.63112061,1242.905207
11.9050,173.5839907,21.46579239,1242.866801
11.9100,173.7017895,21.30049138,1242.827832
11.9150,173.8233797,21.13318557,1242.78794
11.9200,173.9473602,20.96417452,1242.747433
11.9250,174.0718196,20.79140644,1242.706116
11.9300,174.1957949,20.6147483,1242.664135
11.9350,174.3196353,20.43292885,1242.621108
11.9400,174.4423805,20.244775,1242.576889
11.9450,174.5625689,20.04936093,1242.531517
11.9500,174.6810624,19.84782772,1242.485119
11.9550,174.7972249,19.63908438,1242.437538
11.9600,174.9121821,19.42448728,1242.388937
11.9650,175.0264103,19.20364545,1242.339142
11.9700,175.1401751,18.97654745,1242.288127
11.9750,175.2538734,18.74393896,1242.235995
11.9800,175.3690126,18.50617488,1242.182623
11.9850,175.4854848,18.26277213,1242.127924
11.9900,175.6037445,18.01468379,1242.072036
11.9950,175.7237228,17.7626287,1242.015173
12.0000,175.8458987,17.50764825,1241.957485
12.0050,175.9697509,17.24930588,1241.898938
12.0100,176.0942611,16.98948079,1241.840174
12.0150,176.2207468,16.72730365,1241.780714
12.0200,176.3496257,16.46334604,1241.720625
12.0250,176.4789631,16.19920287,1241.660588
12.0300,176.6084781,15.93326106,1241.600263
12.0350,176.7369495,15.66654398,1241.540056
12.0400,176.8646703,15.39936005,1241.479998
12.0450,176.9915828,15.1323023,1241.420263
12.0500,177.1173284,14.86589907,1241.361033
12.0550,177.2407516,14.60126419,1241.302768
12.0600,177.362271,14.33814295,1241.245318
12.0650,177.4817739,14.07648636,1241.188682
12.0700,177.5968927,13.81758963,1241.133548
12.0750,177.7077483,13.5622093,1241.080069
12.0800,177.8137671,13.31107643,1241.028498
12.0850,177.9156505,13.0646915,1240.978847
12.0900,178.013531,12.82370121,1240.931233
12.0950,178.1087776,12.58819191,1240.885431
12.1000,178.2023857,12.36025492,1240.841758
12.1050,178.2953607,12.13944922,1240.799943
12.1100,178.3879275,11.92554554,1240.759876
12.1150,178.4806553,11.72110392,1240.722066
12.1200,178.5732802,11.52616088,1240.686534
12.1250,178.6672467,11.34157658,1240.653267
12.1300,178.7639915,11.16815349,1240.622226
12.1350,178.8655642,11.00694082,1240.593333
12.1400,178.9724712,10.85695641,1240.566279
12.1450,179.085411,10.71898231,1240.541154
12.1500,179.2052501,10.59336559,1240.517906
12.1550,179.3323458,10.47969715,1240.496402
12.1600,179.467237,10.37619846,1240.476162
12.1650,179.6108613,10.28342233,1240.457177
12.1700,179.7631741,10.20084242,1240.439327
12.1750,179.9244457,10.12683404,1240.422228
12.1800,180.095289,10.0603824,1240.405532
12.1850,180.2767172,9.999766175,1240.388696
12.1900,180.4675274,9.944535989,1240.371781
12.1950,180.6674235,9.893164381,1240.354486
12.2000,180.8760701,9.844155284,1240.336517
12.2050,181.0932301,9.796368394,1240.317656
12.2100,181.3182681,9.748102239,1240.297603
12.2150,181.5494519,9.699117826,1240.276558
12.2200,181.7861653,9.647695866,1240.254225
12.2250,182.0292039,9.594772868,1240.230682
12.2300,182.2769012,9.538862409,1240.20584
12.2350,182.529088,9.480530534,1240.179829
12.2400,182.7833999,9.418119166,1240.152637
12.2450,183.0394385,9.35308436,1240.124633
12.2500,183.2949704,9.283429309,1240.095685
12.2550,183.5491523,9.20859971,1240.0658
12.2600,183.800428,9.128304526,1240.035129
12.2650,184.0473886,9.04314108,1240.003993
12.2700,184.2886933,8.951443752,1239.972209
12.2750,184.5230603,8.852949604,1239.939916
12.2800,184.749495,8.747192869,1239.907103
12.2850,184.9669534,8.634400395,1239.873957
12.2900,185.1738393,8.514630268,1239.840711
12.2950,185.3691739,8.387726885,1239.807453
12.3000,185.5519126,8.253938547,1239.774385
12.3050,185.7219803,8.114127429,1239.741685
12.3100,185.8792709,7.967850285,1239.709261
12.3150,186.0233985,7.816591864,1239.677479
12.3200,186.1536637,7.660860039,1239.646533
12.3250,186.2702446,7.50088981,1239.616437
12.3300,186.3732789,7.336864399,1239.587203
12.3350,186.4635099,7.170636026,1239.55912
12.3400,186.5422714,7.001967041,1239.531935
12.3450,186.6093383,6.830670777,1239.505615
12.3500,186.6645764,6.656661692,1239.480159
12.3550,186.7074473,6.481138324,1239.455858
12.3600,186.7374878,6.303925466,1239.432725
12.3650,186.7530544,6.125650394,1239.411103
12.3700,186.7561682,5.947078157,1239.390898
12.3750,186.7470684,5.768376312,1239.372117
12.3800,186.7265327,5.58961244,1239.354672
12.3850,186.6940039,5.411679479,1239.338832
12.3900,186.6508117,5.235823269,1239.324706
12.3950,186.598463,5.063308094,1239.312363
12.4000,186.5378441,4.893211428,1239.301507
12.4050,186.4711314,4.726526674,1239.292075
12.4100,186.3996782,4.563150672,1239.283877
12.4150,186.3250816,4.40290967,1239.276666
12.4200,186.2476472,4.244864267,1239.270223
12.4250,186.1693907,4.089251519,1239.264317
12.4300,186.0915386,3.935061234,1239.258576
12.4350,186.0160299,3.781905633,1239.25266
12.4400,185.9431199,3.629088913,1239.246394
12.4450,185.8751405,3.476651392,1239.239466
12.4500,185.8124787,3.323329948,1239.231577
12.4550,185.7580605,3.16948993,1239.222415
12.4600,185.7123953,3.013920573,1239.211684
12.4650,185.676901,2.856334435,1239.19913
12.4700,185.6527692,2.695069442,1239.184286
12.4750,185.640608,2.53034741,1239.167107
12.4800,185.6403311,2.360892962,1239.147378
12.4850,185.650614,2.187936813,1239.125542
12.4900,185.6727281,2.009911794,1239.10113
12.4950,185.7058366,1.826304614,1239.074176
12.5000,185.7487119,1.637550541,1239.044937
12.5050,185.8009528,1.443340667,1239.013396
12.5100,185.8615509,1.243420422,1238.979663
12.5150,185.9309654,1.038632709,1238.943836
12.5200,186.008672,0.8290247832,1238.906009
12.5250,186.0924485,0.6136271452,1238.866299
12.5300,186.1824028,0.3931663495,1238.824827
12.5350,186.2763145,0.1674091912,1238.78186
12.5400,186.3748644,-0.0623117426,1238.737569
12.5450,186.4783578,-0.2965485506,1238.69182
12.5500,186.5857052,-0.5348616779,1238.644862
12.5550,186.6956082,-0.7764214084,1238.596998
12.5600,186.8073372,-1.021269573,1238.548324
12.5650,186.9198959,-1.269017481,1238.499062
12.5700,187.0324626,-1.518655181,1238.449487
12.5750,187.144845,-1.769770081,1238.399693
12.5800,187.2548268,-2.020477625,1238.350319
12.5850,187.3632623,-2.271753421,1238.301081
12.5900,187.4694496,-2.522155233,1238.252331
12.5950,187.5728605,-2.771676126,1238.204137
12.6000,187.6733796,-3.019761767,1238.156611
12.6050,187.7701734,-3.265917835,1238.109944
12.6100,187.8628361,-3.510095205,1238.064203
12.6150,187.9500586,-3.751287891,1238.019736
12.6200,188.0315118,-3.988952217,1237.976675
12.6250,188.107374,-4.222515487,1237.935091
12.6300,188.176544,-4.451030553,1237.895283
12.6350,188.2389472,-4.675111345,1237.857144
12.6400,188.2928212,-4.893379492,1237.821113
12.6450,188.3390721,-5.105494772,1237.787122
12.6500,188.3769534,-5.310834474,1237.755345
12.6550,188.4058985,-5.510681008,1237.725618
12.6600,188.4260125,-5.703887896,1237.698133
12.6650,188.4389832,-5.890465164,1237.672665
12.6700,188.4453587,-6.069885798,1237.649221
12.6750,188.444354,-6.243209555,1237.627708
12.6800,188.4362703,-6.408566572,1237.608396
12.6850,188.4223282,-6.566041397,1237.591117
12.6900,188.4037308,-6.71625475,1237.575603
12.6950,188.3799006,-6.860401899,1237.561728
12.7000,188.3511804,-6.997766734,1237.549571
12.7050,188.3185901,-7.128685449,1237.538941
12.7100,188.2820287,-7.252524147,1237.529948
12.7150,188.2410399,-7.370707731,1237.522416
12.7200,188.1972531,-7.483678665,1237.516065
12.7250,188.150785,-7.592003196,1237.510788
12.7300,188.1016886,-7.696148104,1237.506505
12.7350,188.0494211,-7.796811112,1237.503161
12.7400,187.9967398,-7.893948566,1237.500433
12.7450,187.9431713,-7.988248576,1237.49827
12.7500,187.8899474,-8.080134909,1237.496446
12.7550,187.8369368,-8.170616253,1237.494811
12.7600,187.7854738,-8.259210613,1237.493272
12.7650,187.7363828,-8.347316179,1237.491506
12.7700,187.6903031,-8.43386622,1237.489588
12.7750,187.6478196,-8.520172061,1237.487238
12.7800,187.6093521,-8.605539322,1237.484513
12.7850,187.5761475,-8.692112281,1237.480892
12.7900,187.5484113,-8.77953077,1237.476422
12.7950,187.5262292,-8.867342923,1237.471145
12.8000,187.5099759,-8.956904764,1237.464805
12.8050,187.4995716,-9.047143106,1237.457589
12.8100,187.4951778,-9.138255767,1237.449433
12.8150,187.4951682,-9.230454507,1237.440514
12.8200,187.4992584,-9.323329898,1237.430938
12.8250,187.5069195,-9.416936961,1237.420756
12.8300,187.5174429,-9.510334458,1237.410217
12.8350,187.5299416,-9.603548071,1237.399426
12.8400,187.5437039,-9.696566102,1237.38849
12.8450,187.5567774,-9.78893231,1237.37771
12.8500,187.5696614,-9.881164575,1237.366959
12.8550,187.581523,-9.971854808,1237.35656
12.8600,187.5919353,-10.06105774,1237.346554
12.8650,187.5995745,-10.14894676,1237.337073
12.8700,187.6040921,-10.23613961,1237.328073
12.8750,187.6047656,-10.3218873,1237.319753
12.8800,187.6026387,-10.40743678,1237.311793
12.8850,187.5963198,-10.49118589,1237.304621
12.8900,187.5868456,-10.57404292,1237.297967
12.8950,187.57349,-10.65596883,1237.291931
12.9000,187.5561673,-10.73756014,1237.286436
12.9050,187.5340432,-10.81933891,1237.281508
12.9100,187.5077703,-10.90101455,1237.277122
12.9150,187.4773528,-10.98332721,1237.273153
12.9200,187.4425615,-11.06612815,1237.269656
12.9250,187.4031786,-11.15025665,1237.266529
12.9300,187.3604321,-11.23563929,1237.263629
12.9350,187.3143281,-11.32222547,1237.260967
12.9400,187.2660861,-11.41206713,1237.258082
12.9450,187.2142875,-11.5051814,1237.255148
12.9500,187.1599169,-11.60211264,1237.251969
12.9550,187.1033375,-11.70251286,1237.248563
12.9600,187.0447429,-11.80801459,1237.24465
12.9650,186.9838776,-11.91867818,1237.240277
12.9700,186.9189426,-12.0346076,1237.235637
12.9750,186.8502968,-12.15443811,1237.230904
12.9800,186.7786161,-12.28014267,1237.22571
12.9850,186.7035853,-12.41267476,1237.21994
12.9900,186.6251994,-12.55094757,1237.21378
12.9950,186.544017,-12.69430385,1237.207269
13.0000,186.4603954,-12.84349517,1237.200256
13.0050,186.3750809,-12.99826249,1237.192684
13.0100,186.2886313,-13.15966473,1237.184342
13.0150,186.2019381,-13.32725586,1237.175175
13.0200,186.1147404,-13.50049256,1237.165303
13.0250,186.0265151,-13.68020105,1237.154676
13.0300,185.9373019,-13.86524768,1237.143462
13.0350,185.8469239,-14.05617672,1237.131605
13.0400,185.7539552,-14.25314235,1237.119257
13.0450,185.6570912,-14.45556796,1237.10669
13.0500,185.5560216,-14.66290823,1237.094018
13.0550,185.4502776,-14.87446496,1237.081417
13.0600,185.3399066,-15.08945526,1237.068996
13.0650,185.2229096,-15.30614499,1237.057271
13.0700,185.0988334,-15.5242049,1237.046349
13.0750,184.9671829,-15.74330089,1237.036348
13.0800,184.8281705,-15.96261725,1237.027364
13.0850,184.6799336,-16.18081653,1237.019836
13.0900,184.5223643,-16.3970599,1237.013899
13.0950,184.3534134,-16.61102505,1237.009884
13.1000,184.1735533,-16.82051304,1237.008032
13.1050,183.9818875,-17.02623602,1237.008384
13.1100,183.7785313,-17.22658146,1237.011164
13.1150,183.5646385,-17.42151179,1237.016232
13.1200,183.3404341,-17.61071006,1237.023614
13.1250,183.1076304,-17.79300505,1237.033265
13.1300,182.8673332,-17.96941286,1237.044903
13.1350,182.6221077,-18.13914874,1237.058296
13.1400,182.3739617,-18.30202705,1237.073184
13.1450,182.1257128,-18.45906856,1237.089061
13.1500,181.878281,-18.61039049,1237.105756
13.1550,181.6355653,-18.75626215,1237.122704
13.1600,181.398339,-18.89747061,1237.13968
13.1650,181.1698569,-19.03484017,1237.156093
13.1700,180.9522961,-19.16821104,1237.171628
13.1750,180.7469125,-19.29887335,1237.185932
13.1800,180.5543263,-19.42654667,1237.198928
13.1850,180.3762477,-19.55233769,1237.210201
13.1900,180.2125917,-19.67626453,1237.219748
13.1950,180.0649802,-19.79833387,1237.227301
13.2000,178.5440551,-18.99419128,1237.800682
13.2050,178.5771722,-19.13654359,1237.763283
13.2100,178.6167779,-19.27580056,1237.726425
13.2150,178.6631677,-19.4124467,1237.689999
13.2200,178.7162228,-19.54585198,1237.654122
13.2250,178.7750882,-19.67675916,1237.618787
13.2300,178.8387017,-19.80508816,1237.58403
13.2350,178.9060428,-19.9308226,1237.550013
13.2400,178.9758651,-20.05339905,1237.516909
13.2450,179.0469866,-20.17231138,1237.484846
13.2500,179.1180816,-20.28711904,1237.454062
13.2550,179.1890905,-20.39790498,1237.424509
13.2600,179.258732,-20.50396714,1237.39639
13.2650,179.325485,-20.60391326,1237.370096
13.2700,179.3893135,-20.6988697,1237.345515
13.2750,179.4507482,-20.78891749,1237.322568
13.2800,179.508142,-20.87266557,1237.3016
13.2850,179.560652,-20.9507795,1237.282646
13.2900,179.6059317,-21.02253799,1237.266152
13.2950,179.6440884,-21.08735408,1237.252225
13.3000,179.6738795,-21.1451289,1237.24103
13.3050,179.6944985,-21.19579857,1237.232704
13.3100,179.7056745,-21.23901285,1237.227278
13.3150,179.7070254,-21.27442138,1237.224826
13.3200,179.6973912,-21.30260113,1237.225491
13.3250,179.6771296,-21.32262826,1237.229284
13.3300,179.6456739,-21.33506512,1237.236286
13.3350,179.6040017,-21.33952029,1237.246394
13.3400,179.5517116,-21.33640472,1237.259585
13.3450,179.4900649,-21.32526652,1237.275934
13.3500,179.419193,-21.30686343,1237.295268
13.3550,179.3396838,-21.28091542,1237.317706
13.3600,179.2518331,-21.24837999,1237.34307
13.3650,179.1570413,-21.20981805,1237.371294
13.3700,179.0550382,-21.16545555,1237.402432
13.3750,178.9463024,-21.11569459,1237.436432
13.3800,178.8307683,-21.06048964,1237.473451
13.3850,178.7088891,-21.00037482,1237.513361
13.3900,178.5808796,-20.93537207,1237.556163
13.3950,179.9982101,-21.76924002,1237.009518
13.4000,180.0226474,-21.74300042,1237.007387
13.4050,180.0550937,-21.7178193,1237.003842
13.4100,180.0943803,-21.69415571,1236.998994
13.4150,180.1414443,-21.67199363,1236.99272
13.4200,180.196859,-21.65219497,1236.984824
13.4250,180.2607737,-21.63469986,1236.975296
13.4300,180.3351777,-21.6198596,1236.963808
13.4350,180.419589,-21.60851588,1236.950336
13.4400,180.5144136,-21.60053713,1236.934846
13.4450,180.6196821,-21.59576601,1236.917349
13.4500,180.7351479,-21.59448161,1236.897863
13.4550,180.8604011,-21.59792596,1236.876287
13.4600,180.9957485,-21.60586906,1236.852611
13.4650,181.1406576,-21.61847088,1236.826907
13.4700,181.2947044,-21.63585989,1236.799239
13.4750,181.4580236,-21.65755784,1236.769648
13.4800,181.6306288,-21.68406924,1236.738075
13.4850,181.8115763,-21.71483102,1236.704734
13.4900,182.0018965,-21.75071232,1236.669387
13.4950,182.2000879,-21.79051901,1236.632405
13.5000,182.4058427,-21.83402165,1236.59386
13.5050,182.6177531,-21.881334,1236.553953
13.5100,182.8356227,-21.93206957,1236.512757
13.5150,183.0571933,-21.98577106,1236.470655
13.5200,183.2811858,-22.04239795,1236.427842
13.5250,183.5051102,-22.10036523,1236.384839
13.5300,183.7287631,-22.16007043,1236.341627
13.5350,183.9498193,-22.22039048,1236.29865
13.5400,184.1665274,-22.27965401,1236.256345
13.5450,184.3776164,-22.3382241,1236.214824
13.5500,184.5817843,-22.3953658,1236.174336
13.5550,184.7774383,-22.45035982,1236.135169
13.5600,184.9627822,-22.50158895,1236.097734
13.5650,185.1377201,-22.54932748,1236.061996
13.5700,185.3002281,-22.5919692,1236.028405
13.5750,185.4491177,-22.62845151,1235.997222
13.5800,185.583654,-22.66012798,1235.968361
13.5850,185.7037424,-22.68450474,1235.94212
13.5900,185.8095976,-22.70217844,1235.918384
13.5950,185.9002001,-22.71222163,1235.89738
13.6000,185.9764724,-22.71484844,1235.878962
13.6050,186.0378219,-22.70936277,1235.863291
13.6100,186.0831795,-22.69655772,1235.850376
13.6150,186.1132827,-22.67685521,1235.840091
13.6200,186.1294515,-22.64926072,1235.832376
13.6250,186.1321206,-22.61482999,1235.827057
13.6300,186.1221848,-22.57369681,1235.824003
13.6350,186.0997611,-22.52612244,1235.823178
13.6400,186.0658366,-22.47190011,1235.824478
13.6450,186.0201572,-22.4119503,1235.82784
13.6500,185.9638062,-22.34667929,1235.833079
13.6550,185.895975,-22.27607155,1235.840312
13.6600,185.8178805,-22.20017026,1235.849377
13.6650,185.7296967,-22.11949739,1235.860212
13.6700,185.6325898,-22.03556182,1235.87249
13.6750,185.5269676,-21.94803055,1235.886214
13.6800,185.415538,-21.85641153,1235.901119
13.6850,185.299231,-21.76182755,1235.916938
13.6900,185.1783986,-21.66582626,1235.93345
13.6950,185.0549235,-21.56744598,1235.950542
13.7000,184.9298467,-21.46780869,1235.967933
13.7050,184.8027472,-21.36700891,1235.985672
13.7100,184.6757671,-21.26616263,1236.003333
13.7150,184.5498942,-21.16680758,1236.020611
13.7200,184.4260984,-21.06858798,1236.037406
13.7250,184.3050031,-20.9726207,1236.053488
13.7300,184.1876509,-20.88043881,1236.068523
13.7350,184.0752999,-20.79156544,1236.082379
13.7400,183.9689383,-20.70650607,1236.094858
13.7450,183.8691559,-20.62660344,1236.105706
13.7500,183.7785211,-20.55119083,1236.114632
13.7550,183.6961114,-20.48045394,1236.121735
13.7600,183.6232061,-20.41492149,1236.126763
13.7650,183.5609611,-20.35449004,1236.12955
13.7700,183.5088675,-20.29797259,1236.130292
13.7750,183.4675165,-20.24557821,1236.128885
13.7800,183.436521,-20.19734526,1236.125363
13.7850,183.4160489,-20.15278915,1236.119759
13.7900,183.4050348,-20.11186381,1236.112207
13.7950,183.4037988,-20.07397055,1236.102748
13.8000,183.4107205,-20.03903805,1236.091618
13.8050,183.4259206,-20.00646828,1236.078866
