type,name,time_units,begin_time,frequency,count,units
signal_3d,"Noraxon MyoMotion-Trajectories-Body center of mass","s",0.0000,200,5108,"mm"

time,x,y,z
0.0000,1.068691796,17.89301369,1075.289416
0.0050,1.067331616,17.89417392,1075.289783
0.0100,1.065971518,17.89533421,1075.29015
0.0150,1.064611501,17.89649456,1075.290517
0.0200,1.062967163,17.89764763,1075.290919
0.0250,1.061012735,17.89876779,1075.291354
0.0300,1.058724168,17.89982869,1075.291821
0.0350,1.056079869,17.90080454,1075.292319
0.0400,1.05306133,17.90167125,1075.292847
0.0450,1.049653619,17.90240725,1075.293401
0.0500,1.045845709,17.90299421,1075.293981
0.0550,1.04163084,17.90341754,1075.294586
0.0600,1.037007054,17.90366678,1075.295213
0.0650,1.031977703,17.90373583,1075.295863
0.0700,1.026551856,17.90362301,1075.296533
0.0750,1.020744709,17.9033311,1075.297224
0.0800,1.01457812,17.90286705,1075.297934
0.0850,1.008081036,17.90224164,1075.298662
0.0900,1.001289622,17.90146908,1075.299407
0.0950,0.9942471526,17.90056634,1075.300166
0.1000,0.9870037616,17.89955253,1075.300937
0.1050,0.9796161107,17.89844812,1075.301718
0.1100,0.9721470399,17.89727442,1075.302503
0.1150,0.9646650973,17.89605307,1075.303288
0.1200,0.9572438639,17.89480571,1075.304069
0.1250,0.9499610998,17.89355359,1075.304838
0.1300,0.9428975174,17.89231716,1075.305588
0.1350,0.9361349204,17.89111562,1075.306313
0.1400,0.929753847,17.88996625,1075.307003
0.1450,0.9238310923,17.88888376,1075.30765
0.1500,0.9184372637,17.88787967,1075.308248
0.1550,0.9102517189,17.88627809,1075.30912
0.1600,0.9026713641,17.88471011,1075.309921
0.1650,0.8957529415,17.88313245,1075.310638
0.1700,0.8895277601,17.8815931,1075.31127
0.1750,0.8839776453,17.88005941,1075.311814
0.1800,0.8791661897,17.878527,1075.312258
0.1850,0.8750391318,17.87698253,1075.312606
0.1900,0.8715668108,17.8754551,1075.312866
0.1950,0.8687914693,17.87390771,1075.313023
0.2000,0.8666066629,17.87237712,1075.313096
0.2050,0.8649772738,17.87084533,1075.313086
0.2100,0.8638491848,17.86933033,1075.313001
0.2150,0.863131198,17.86781832,1075.312854
0.2200,0.8627735438,17.86630182,1075.312647
0.2250,0.862704325,17.86478677,1075.312392
0.2300,0.8628030534,17.86328888,1075.31211
0.2350,0.8630686132,17.86179276,1075.311795
0.2400,0.8634325682,17.86035492,1075.311466
0.2450,0.8638202966,17.85892803,1075.311128
0.2500,0.8641724272,17.85750308,1075.310788
0.2550,0.8644607749,17.85607647,1075.310451
0.2600,0.8646344345,17.8546476,1075.310123
0.2650,0.8646591144,17.85319409,1075.309808
0.2700,0.8645341846,17.85171382,1075.309506
0.2750,0.8642071453,17.85016863,1075.309217
0.2800,0.8637163627,17.84860331,1075.308944
0.2850,0.8630675907,17.84692842,1075.308675
0.2900,0.8622833276,17.84521391,1075.308417
0.2950,0.8613157541,17.84339291,1075.308167
0.3000,0.8602017795,17.84144003,1075.307916
0.3050,0.8589383707,17.83936187,1075.307667
0.3100,0.8575188256,17.83715082,1075.307418
0.3150,0.856019536,17.83479119,1075.307156
0.3200,0.8544176149,17.832253,1075.306882
0.3250,0.8527458129,17.82953085,1075.30659
0.3300,0.8509731626,17.82663426,1075.306286
0.3350,0.8491702948,17.82358518,1075.305962
0.3400,0.8472947989,17.82041368,1075.305632
0.3450,0.8453530789,17.81711258,1075.305291
0.3500,0.843357666,17.81369342,1075.30494
0.3550,0.8413179799,17.81017881,1075.304583
0.3600,0.8391823475,17.80654898,1075.304223
0.3650,0.8370059187,17.80285857,1075.303859
0.3700,0.8348360544,17.7991341,1075.30349
0.3750,0.8326571282,17.79537864,1075.303119
0.3800,0.8304489291,17.7916468,1075.302759
0.3850,0.828258219,17.78793466,1075.302403
0.3900,0.8260594113,17.78424126,1075.302055
0.3950,0.8239134542,17.78058005,1075.301708
0.4000,0.8218160805,17.77693471,1075.301359
0.4050,0.819769662,17.77337665,1075.30102
0.4100,0.817793595,17.76985849,1075.300678
0.4150,0.8159045049,17.7664282,1075.300342
0.4200,0.8141212233,17.76305775,1075.300004
0.4250,0.8124235803,17.75978527,1075.299671
0.4300,0.8108517478,17.75658603,1075.299336
0.4350,0.8094048276,17.75345933,1075.298997
0.4400,0.8080962843,17.75042666,1075.298655
0.4450,0.8068852326,17.74751718,1075.298322
0.4500,0.805846196,17.74472896,1075.297986
0.4550,0.8049207217,17.74206385,1075.297656
0.4600,0.8041094509,17.73950685,1075.29733
0.4650,0.8034029951,17.7370908,1075.297014
0.4700,0.8028251959,17.73481235,1075.296703
0.4750,0.8023681753,17.73264219,1075.296391
0.4800,0.8020125767,17.73058938,1075.296087
0.4850,0.8017669914,17.72867547,1075.295788
0.4900,0.8016491825,17.72685982,1075.295487
0.4950,0.8016018146,17.72518225,1075.295199
0.5000,0.801670166,17.72360159,1075.29491
0.5050,0.8018154341,17.72216015,1075.294633
0.5100,0.8020254304,17.72079887,1075.29436
0.5150,0.8023375172,17.71954614,1075.294091
0.5200,0.8027036466,17.71836368,1075.293825
0.5250,0.8031278803,17.7172459,1075.293563
0.5300,0.8036047551,17.71614534,1075.293297
0.5350,0.8041527365,17.71508377,1075.293028
0.5400,0.8047172799,17.71399317,1075.292754
0.5450,0.8053028045,17.71290138,1075.292478
0.5500,0.8059172471,17.71182112,1075.2922
0.5550,0.8065342838,17.7107233,1075.29192
0.5600,0.8071551942,17.70959929,1075.291636
0.5650,0.8077923947,17.70847708,1075.291349
0.5700,0.8084400798,17.70732608,1075.291058
0.5750,0.8091264954,17.70617131,1075.290762
0.5800,0.8098647227,17.70498463,1075.290453
0.5850,0.8106376432,17.7037969,1075.29014
0.5900,0.8114591379,17.7026157,1075.289823
0.5950,0.8123731909,17.70143616,1075.289493
0.6000,0.8133726689,17.70026674,1075.289153
0.6050,0.8144580287,17.69913691,1075.288809
0.6100,0.8156634997,17.69799499,1075.288448
0.6150,0.8169662549,17.69685555,1075.288074
0.6200,0.8183937979,17.69572692,1075.287686
0.6250,0.8199051307,17.69464446,1075.287294
0.6300,0.8215439182,17.69357814,1075.28689
0.6350,0.8232554556,17.69251732,1075.28648
0.6400,0.8250529764,17.69147684,1075.286061
0.6450,0.8269645002,17.69048685,1075.285637
0.6500,0.8289571464,17.6895154,1075.285207
0.6550,0.8310167182,17.6885806,1075.284776
0.6600,0.8331433094,17.68770323,1075.284347
0.6650,0.8353158239,17.68685241,1075.283918
0.6700,0.8375091198,17.68604623,1075.283495
0.6750,0.8397077834,17.68529054,1075.283081
0.6800,0.8419202303,17.68455205,1075.282669
0.6850,0.8441019915,17.68388148,1075.282273
0.6900,0.8462595052,17.68325383,1075.281887
0.6950,0.8483709159,17.68269013,1075.281514
0.7000,0.8504286002,17.68220977,1075.281163
0.7050,0.8524381897,17.68179237,1075.280826
0.7100,0.8544076341,17.68146039,1075.280507
0.7150,0.8562816621,17.68116843,1075.280205
0.7200,0.8580495726,17.68092108,1075.279922
0.7250,0.8597860771,17.6806987,1075.279645
0.7300,0.8614262615,17.6804831,1075.279379
0.7350,0.8630054261,17.68026874,1075.279119
0.7400,0.8645223783,17.6799914,1075.278856
0.7450,0.8660413609,17.6796353,1075.278577
0.7500,0.8674610175,17.67915622,1075.278291
0.7550,0.8688640315,17.67854052,1075.277983
0.7600,0.8702425964,17.67777391,1075.277654
0.7650,0.8716226325,17.67680752,1075.277289
0.7700,0.8730083138,17.67563926,1075.276891
0.7750,0.8744263408,17.67428611,1075.276458
0.7800,0.8758661686,17.67272734,1075.275989
0.7850,0.8774011627,17.6709533,1075.275471
0.7900,0.8789918502,17.66895866,1075.274911
0.7950,0.8806932701,17.66677264,1075.274303
0.8000,0.8824742401,17.66436843,1075.273652
0.8050,0.8843507178,17.66171651,1075.272948
0.8100,0.8863298628,17.65886083,1075.272199
0.8150,0.8883586877,17.65579213,1075.271413
0.8200,0.8904745073,17.65254135,1075.270587
0.8250,0.8926040906,17.64915723,1075.26974
0.8300,0.8947770549,17.64565658,1075.268871
0.8350,0.8969456234,17.6420037,1075.267981
0.8400,0.8991003974,17.63829018,1075.267086
0.8450,0.901239059,17.6344987,1075.266183
0.8500,0.9033157629,17.63063981,1075.265281
0.8550,0.9052896745,17.62673473,1075.264388
0.8600,0.9071139904,17.62281431,1075.263516
0.8650,0.908758867,17.61890262,1075.262672
0.8700,0.910159126,17.6150136,1075.261865
0.8750,0.9112712876,17.61117612,1075.261108
0.8800,0.9120587696,17.60741536,1075.26041
0.8850,0.9124760309,17.60373693,1075.259774
0.8900,0.9124602976,17.60018664,1075.259219
0.8950,0.9119946112,17.59673787,1075.258742
0.9000,0.9110372632,17.59343529,1075.258354
0.9050,0.909589904,17.59021266,1075.258048
0.9100,0.9076087457,17.58715368,1075.25784
0.9150,0.9050669967,17.58417782,1075.257725
0.9200,0.9019632738,17.58135138,1075.25771
0.9250,0.8983302019,17.57860073,1075.25778
0.9300,0.8941795334,17.57596604,1075.257942
0.9350,0.8894729204,17.57346817,1075.258204
0.9400,0.884253818,17.57102426,1075.258551
0.9450,0.8785347985,17.56863401,1075.258978
0.9500,0.872368329,17.56632162,1075.259486
0.9550,0.8657529941,17.56407344,1075.26007
0.9600,0.8587615855,17.56185042,1075.260718
0.9650,0.8514350142,17.55966594,1075.261424
0.9700,0.8437949101,17.55751724,1075.262187
0.9750,0.8359014228,17.55542872,1075.263002
0.9800,0.8278152668,17.55335776,1075.263855
0.9850,0.8195768346,17.55130671,1075.26474
0.9900,0.8112189269,17.54932295,1075.26566
0.9950,0.8027563994,17.54735293,1075.266609
1.0000,0.794313857,17.54537524,1075.267562
1.0050,0.7858846986,17.54342,1075.268527
1.0100,0.7775041714,17.54148074,1075.269499
1.0150,0.7692453783,17.53959208,1075.27047
1.0200,0.7611631926,17.53770727,1075.271426
1.0250,0.7532304557,17.53585486,1075.272379
1.0300,0.7455149234,17.5339997,1075.273311
1.0350,0.7380491134,17.53215927,1075.274224
1.0400,0.7308620071,17.53035156,1075.275115
1.0450,0.7239570208,17.52854715,1075.27598
1.0500,0.7173433803,17.52674644,1075.27682
1.0550,0.7110276884,17.5249564,1075.277635
1.0600,0.7050270424,17.52317082,1075.278422
1.0650,0.6992993385,17.52138517,1075.279188
1.0700,0.6938355205,17.51958801,1075.279934
1.0750,0.688604775,17.51780587,1075.280667
1.0800,0.6836186211,17.51600827,1075.281382
1.0850,0.6787953936,17.51421734,1075.282098
1.0900,0.6741429635,17.5124691,1075.282815
1.0950,0.6695674742,17.51070144,1075.28354
1.1000,0.6650713713,17.50896587,1075.284279
1.1050,0.6606134629,17.50727539,1075.285042
1.1100,0.6561680154,17.50564835,1075.285832
1.1150,0.6517444967,17.50406485,1075.286648
1.1200,0.6473119162,17.50253805,1075.287496
1.1250,0.6428643249,17.50106692,1075.288376
1.1300,0.6383974652,17.49964695,1075.289289
1.1350,0.6338705651,17.49829769,1075.290245
1.1400,0.629280275,17.49699272,1075.291243
1.1450,0.6246124382,17.49578926,1075.29229
1.1500,0.6199095467,17.49464596,1075.293377
1.1550,0.615141322,17.49360639,1075.294514
1.1600,0.6103132742,17.49262711,1075.295698
1.1650,0.605438365,17.49169636,1075.296924
1.1700,0.6004879665,17.49083561,1075.298204
1.1750,0.5955022005,17.49000808,1075.299527
1.1800,0.5904511705,17.4892114,1075.300902
1.1850,0.5853328342,17.48842997,1075.302328
1.1900,0.5801972821,17.48760904,1075.303791
1.1950,0.5749813102,17.48681305,1075.305313
1.2000,0.5697167542,17.48601178,1075.306889
1.2050,0.5644005674,17.48521113,1075.308522
1.2100,0.5590090389,17.48433568,1075.310211
1.2150,0.5535246394,17.48346395,1075.311972
1.2200,0.5479389365,17.48253924,1075.313806
1.2250,0.5422701285,17.48157902,1075.315715
1.2300,0.5364782351,17.48055761,1075.317706
1.2350,0.5305950975,17.47944112,1075.319772
1.2400,0.5246236818,17.47827675,1075.321923
1.2450,0.5185694526,17.47703981,1075.324162
1.2500,0.5124199018,17.4757202,1075.326488
1.2550,0.5062105606,17.47429789,1075.328898
1.2600,0.4999339971,17.47277691,1075.331398
1.2650,0.4935619599,17.47119332,1075.334
1.2700,0.4871386356,17.46952802,1075.336696
1.2750,0.4806318257,17.46774833,1075.339488
1.2800,0.4740711924,17.46592973,1075.342387
1.2850,0.4674009831,17.46406819,1075.345403
1.2900,0.4606485385,17.46215765,1075.348533
1.2950,0.4538073719,17.46021,1075.351782
1.3000,0.4468473977,17.45829803,1075.355169
1.3050,0.4397215325,17.45639557,1075.358698
1.3100,0.4324307986,17.45451529,1075.362372
1.3150,0.424965531,17.45267218,1075.366196
1.3200,0.417281065,17.45091375,1075.370187
1.3250,0.4093900931,17.44919218,1075.374338
1.3300,0.4012472821,17.44762846,1075.378669
1.3350,0.3927951548,17.44616842,1075.383182
1.3400,0.3840437706,17.4448664,1075.387888
1.3450,0.3749229556,17.443731,1075.392798
1.3500,0.3654944259,17.44277627,1075.397907
1.3550,0.3557238955,17.44201086,1075.403221
1.3600,0.3455674404,17.44145407,1075.408749
1.3650,0.3350507039,17.44111312,1075.414494
1.3700,0.3241647085,17.44099445,1075.420452
1.3750,0.3128962297,17.44106396,1075.426628
1.3800,0.3012398309,17.4413574,1075.433029
1.3850,0.2891916191,17.44180786,1075.439649
1.3900,0.2767422152,17.44243578,1075.446498
1.3950,0.263952489,17.44324012,1075.453569
1.4000,0.2508042088,17.4442219,1075.460868
1.4050,0.237349244,17.44536576,1075.468387
1.4100,0.2235407444,17.44665646,1075.47614
1.4150,0.2094097184,17.44809336,1075.484121
1.4200,0.1949304901,17.4496478,1075.492338
1.4250,0.1801456608,17.45130383,1075.500787
1.4300,0.1650170602,17.45308859,1075.509486
1.4350,0.149603406,17.45497575,1075.518425
1.4400,0.1338720547,17.45693124,1075.527609
1.4450,0.1178607338,17.45892926,1075.537039
1.4500,0.101518383,17.46101059,1075.546737
1.4550,0.0849188482,17.46313267,1075.556689
1.4600,0.06804878146,17.4653148,1075.566912
1.4650,0.05091234707,17.46752046,1075.577399
1.4700,0.03353511487,17.46975157,1075.588152
1.4750,0.01586780901,17.4719869,1075.599182
1.4800,-0.002037980916,17.47418685,1075.610479
1.4850,-0.02016205581,17.47641488,1075.622052
1.4900,-0.03854046245,17.47865562,1075.633914
1.4950,-0.05713548631,17.48087416,1075.646055
1.5000,-0.07594694851,17.4830541,1075.658477
1.5050,-0.09501359198,17.48520789,1075.67119
1.5100,-0.1143260198,17.48737095,1075.684196
1.5150,-0.1338459433,17.48950921,1075.697484
1.5200,-0.1536113001,17.49163339,1075.711062
1.5250,-0.1736184256,17.4937257,1075.724923
1.5300,-0.1938826137,17.49581088,1075.739077
1.5350,-0.2144102394,17.49789204,1075.75352
1.5400,-0.2351908452,17.49993607,1075.76825
1.5450,-0.2562489523,17.50197441,1075.783273
1.5500,-0.2775676344,17.50397915,1075.798579
1.5550,-0.2991662123,17.50593006,1075.814172
1.5600,-0.3210795556,17.5078693,1075.83006
1.5650,-0.343287386,17.50978346,1075.846232
1.5700,-0.3657671974,17.51169258,1075.862689
1.5750,-0.3884512722,17.51359824,1075.879417
1.5800,-0.4114152087,17.5155106,1075.896422
1.5850,-0.4345670196,17.51743338,1075.913686
1.5900,-0.4579242512,17.51937866,1075.931209
1.5950,-0.481472533,17.52137237,1075.948988
1.6000,-0.5052362131,17.52342157,1075.967019
1.6050,-0.5291275367,17.52553505,1075.98529
1.6100,-0.5531523466,17.52771395,1076.003801
1.6150,-0.5773258753,17.52997081,1076.022552
1.6200,-0.6015938437,17.53234674,1076.041537
1.6250,-0.6259606127,17.53485361,1076.060758
1.6300,-0.6503434938,17.53744044,1076.080199
1.6350,-0.6747790205,17.54015673,1076.099866
1.6400,-0.6992525014,17.54297297,1076.119754
1.6450,-0.723737322,17.54587226,1076.139857
1.6500,-0.7482380865,17.54886132,1076.160176
1.6550,-0.7727447516,17.55193532,1076.180713
1.6600,-0.7971903584,17.55507819,1076.201462
1.6650,-0.8215825168,17.55832798,1076.222422
1.6700,-0.84590662,17.56166737,1076.243598
1.6750,-0.8701279732,17.56507438,1076.26498
1.6800,-0.8942262387,17.56856824,1076.286564
1.6850,-0.9181460251,17.57218079,1076.308342
1.6900,-0.9418968067,17.57587842,1076.330311
1.6950,-0.9654921254,17.57968896,1076.352473
1.7000,-0.9888728416,17.58358335,1076.374817
1.7050,-1.012055398,17.58756689,1076.397338
1.7100,-1.035021039,17.59165381,1076.420033
1.7150,-1.057777389,17.5958351,1076.4429
1.7200,-1.080289711,17.6001906,1076.465943
1.7250,-1.102530553,17.60471627,1076.489156
1.7300,-1.124477931,17.60939798,1076.512526
1.7350,-1.146174651,17.61424133,1076.536057
1.7400,-1.167571838,17.61929825,1076.559749
1.7450,-1.188708447,17.6245401,1076.583603
1.7500,-1.209528883,17.62998249,1076.607609
1.7550,-1.230090648,17.63561585,1076.631774
1.7600,-1.250370663,17.64145505,1076.656087
1.7650,-1.270434177,17.64748824,1076.680565
1.7700,-1.290276581,17.65370638,1076.705201
1.7750,-1.309906491,17.66014779,1076.729992
1.7800,-1.329380682,17.66678585,1076.754952
1.7850,-1.348693425,17.67358111,1076.78007
1.7900,-1.367880414,17.6805237,1076.805335
1.7950,-1.386925898,17.68759686,1076.830746
1.8000,-1.405876319,17.69480782,1076.856314
1.8050,-1.424710101,17.7021045,1076.88202
1.8100,-1.443444581,17.70943937,1076.907861
1.8150,-1.462142062,17.7168033,1076.933846
1.8200,-1.480763159,17.72417413,1076.959958
1.8250,-1.499383119,17.73157396,1076.986222
1.8300,-1.517975836,17.73897959,1077.012611
1.8350,-1.5365593,17.74636697,1077.03913
1.8400,-1.555176108,17.75373148,1077.065782
1.8450,-1.573774856,17.7610713,1077.092558
1.8500,-1.592372495,17.76844483,1077.119465
1.8550,-1.610974918,17.77589353,1077.146508
1.8600,-1.629552129,17.78339251,1077.173669
1.8650,-1.648059626,17.79095671,1077.200961
1.8700,-1.666540828,17.79859748,1077.228388
1.8750,-1.68498976,17.8063554,1077.255954
1.8800,-1.703369972,17.81425522,1077.283658
1.8850,-1.721668711,17.82230408,1077.311502
1.8900,-1.7399056,17.83052308,1077.33948
1.8950,-1.758055086,17.83897212,1077.367613
1.9000,-1.776115625,17.84763187,1077.395895
1.9050,-1.794050839,17.85650452,1077.424328
1.9100,-1.811931952,17.86562885,1077.452927
1.9150,-1.829703773,17.87498449,1077.481697
1.9200,-1.847419967,17.884591,1077.510637
1.9250,-1.865061841,17.89439925,1077.539745
1.9300,-1.882718669,17.90442162,1077.56903
1.9350,-1.900341284,17.91464849,1077.598492
1.9400,-1.917957046,17.92507423,1077.628118
1.9450,-1.935550359,17.93568322,1077.657915
1.9500,-1.953161973,17.9464671,1077.687883
1.9550,-1.970813021,17.9573807,1077.718018
1.9600,-1.988554097,17.96840038,1077.748316
1.9650,-2.006401588,17.97948352,1077.778776
1.9700,-2.024339428,17.99066877,1077.809406
1.9750,-2.042396519,18.00195535,1077.840211
1.9800,-2.060527683,18.01334109,1077.871186
1.9850,-2.078765333,18.02483637,1077.90233
1.9900,-2.097075043,18.03639049,1077.933636
1.9950,-2.115429988,18.0479878,1077.965106
2.0000,-2.133859546,18.05962427,1077.996747
2.0050,-2.152380339,18.07125668,1078.028565
2.0100,-2.170980629,18.08284626,1078.060542
2.0150,-2.189635295,18.09444546,1078.092693
2.0200,-2.208398592,18.10603742,1078.125024
2.0250,-2.227252752,18.11764356,1078.157543
2.0300,-2.246148053,18.12932086,1078.190241
2.0350,-2.265067457,18.14108478,1078.223141
2.0400,-2.283981464,18.15292764,1078.256232
2.0450,-2.302865968,18.16483576,1078.289499
2.0500,-2.321760808,18.17683353,1078.322964
2.0550,-2.340730986,18.18893075,1078.356633
2.0600,-2.359746457,18.20110567,1078.390502
2.0650,-2.378761033,18.21335539,1078.424557
2.0700,-2.397792817,18.22565663,1078.458786
2.0750,-2.416842349,18.23795244,1078.493186
2.0800,-2.435914694,18.25026034,1078.527742
2.0850,-2.45504623,18.26255327,1078.562475
2.0900,-2.474220587,18.27476989,1078.597369
2.0950,-2.493468645,18.28690601,1078.632434
2.1000,-2.51278263,18.29895665,1078.667657
2.1050,-2.53217667,18.31093179,1078.703044
2.1100,-2.551614738,18.32284962,1078.738592
2.1150,-2.571034973,18.33469051,1078.774292
2.1200,-2.590461015,18.34650286,1078.810149
2.1250,-2.609840197,18.35820843,1078.846134
2.1300,-2.629194189,18.36980046,1078.882256
2.1350,-2.648520612,18.38130953,1078.918522
2.1400,-2.667798259,18.3927695,1078.954924
2.1450,-2.687017699,18.40413553,1078.991451
2.1500,-2.706185831,18.41533172,1079.028085
2.1550,-2.725301609,18.42638998,1079.064823
2.1600,-2.74432054,18.43732211,1079.101665
2.1650,-2.763315395,18.44811862,1079.138605
2.1700,-2.782254422,18.45880625,1079.175646
2.1750,-2.801152176,18.46940072,1079.21279
2.1800,-2.819988804,18.47992399,1079.250026
2.1850,-2.838761871,18.49036338,1079.287347
2.1900,-2.857468812,18.50070115,1079.324751
2.1950,-2.876158437,18.51093883,1079.362223
2.2000,-2.894828446,18.52107087,1079.39975
2.2050,-2.913517258,18.53110773,1079.437333
2.2100,-2.932219754,18.54104624,1079.474958
2.2150,-2.950998398,18.55089777,1079.512616
2.2200,-2.969841241,18.56058376,1079.550296
2.2250,-2.988811644,18.57015157,1079.58801
2.2300,-3.007833619,18.57963553,1079.625746
2.2350,-3.026911874,18.58910104,1079.663514
2.2400,-3.046060547,18.59858879,1079.701317
2.2450,-3.065231175,18.60813801,1079.739149
2.2500,-3.084351805,18.61774881,1079.776995
2.2550,-3.103429138,18.62742548,1079.814849
2.2600,-3.122400493,18.63711969,1079.852682
2.2650,-3.141275434,18.64679609,1079.89048
2.2700,-3.160114544,18.65643577,1079.928249
2.2750,-3.178964509,18.66601003,1079.965992
2.2800,-3.197902666,18.675487,1080.003721
2.2850,-3.216964441,18.68481686,1080.04142
2.2900,-3.236142658,18.69403661,1080.079085
2.2950,-3.255452656,18.70313076,1080.116716
2.3000,-3.274895729,18.71216638,1080.154321
2.3050,-3.294406588,18.72118394,1080.191885
2.3100,-3.313965701,18.73024871,1080.229426
2.3150,-3.333579309,18.7393398,1080.266928
2.3200,-3.353201844,18.74843111,1080.304362
2.3250,-3.372842457,18.75754943,1080.341733
2.3300,-3.392516739,18.7666498,1080.379042
2.3350,-3.412240303,18.77574928,1080.416281
2.3400,-3.432028791,18.78482656,1080.453455
2.3450,-3.451883121,18.79389446,1080.490592
2.3500,-3.471784786,18.80292973,1080.527661
2.3550,-3.491657453,18.81196299,1080.564659
2.3600,-3.511452908,18.82099742,1080.601574
2.3650,-3.531145793,18.83009148,1080.63842
2.3700,-3.550670508,18.83926277,1080.675207
2.3750,-3.569970917,18.84850407,1080.711923
2.3800,-3.588977947,18.85778295,1080.748543
2.3850,-3.607698199,18.86714385,1080.785069
2.3900,-3.626082394,18.8765184,1080.821481
2.3950,-3.644140327,18.88589191,1080.857762
2.4000,-3.661861516,18.89519273,1080.893901
2.4050,-3.67923809,18.90440336,1080.929881
2.4100,-3.696274807,18.91347977,1080.96569
2.4150,-3.713017551,18.92244263,1081.001347
2.4200,-3.729461672,18.93126646,1081.036816
2.4250,-3.745610498,18.93998947,1081.072107
2.4300,-3.76141867,18.94863674,1081.107213
2.4350,-3.776833702,18.95725616,1081.142115
2.4400,-3.791871401,18.96585032,1081.17683
2.4450,-3.806554621,18.97441802,1081.211347
2.4500,-3.820926689,18.98302433,1081.245698
2.4550,-3.834938474,18.99163612,1081.279848
2.4600,-3.848651804,19.00027474,1081.313804
2.4650,-3.861998931,19.00894169,1081.347561
2.4700,-3.875000593,19.01765752,1081.381114
2.4750,-3.887636817,19.02637475,1081.414434
2.4800,-3.899972846,19.03503677,1081.447523
2.4850,-3.912047418,19.04367215,1081.480382
2.4900,-3.92389663,19.05230434,1081.513033
2.4950,-3.935497162,19.06088902,1081.545452
2.5000,-3.946848496,19.06943454,1081.577646
2.5050,-3.95802843,19.07793233,1081.609624
2.5100,-3.969023365,19.0863611,1081.641373
2.5150,-3.97982669,19.09469495,1081.67288
2.5200,-3.990439356,19.1029805,1081.704147
2.5250,-4.000870576,19.11122948,1081.735172
2.5300,-4.011134482,19.11940719,1081.765943
2.5350,-4.021261446,19.12741767,1081.796439
2.5400,-4.031289034,19.13519915,1081.826671
2.5450,-4.041279913,19.14274265,1081.856641
2.5500,-4.05134582,19.15005987,1081.886385
2.5550,-4.061442473,19.15720716,1081.915919
2.5600,-4.071597761,19.16428648,1081.945272
2.5650,-4.081784692,19.17128461,1081.974449
2.5700,-4.09193923,19.17823396,1082.003438
2.5750,-4.101965757,19.18514956,1082.032206
2.5800,-4.111844811,19.19203783,1082.060758
2.5850,-4.121530164,19.1988587,1082.089089
2.5900,-4.131025441,19.20563513,1082.117211
2.5950,-4.140323061,19.21234349,1082.145116
2.6000,-4.149418443,19.2188728,1082.172761
2.6050,-4.158360265,19.22520359,1082.200172
2.6100,-4.167145233,19.23126675,1082.227319
2.6150,-4.175789026,19.23702401,1082.254209
2.6200,-4.184293337,19.24248822,1082.280857
2.6250,-4.192640717,19.24758493,1082.307229
2.6300,-4.200879839,19.25230701,1082.333346
2.6350,-4.208970921,19.25663142,1082.359197
2.6400,-4.216898406,19.26063437,1082.38478
2.6450,-4.224638748,19.26436716,1082.4101
2.6500,-4.232216183,19.26782549,1082.435175
2.6550,-4.239565385,19.27101708,1082.459997
2.6600,-4.246699873,19.2739345,1082.48457
2.6650,-4.253618573,19.27657661,1082.508899
2.6700,-4.260295017,19.27894011,1082.532969
2.6750,-4.266756858,19.28104925,1082.556806
2.6800,-4.27301942,19.28293487,1082.580445
2.6850,-4.279028443,19.28456172,1082.603851
2.6900,-4.284766924,19.2860631,1082.627083
2.6950,-4.290161914,19.28745848,1082.65013
2.7000,-4.295157673,19.28878404,1082.672993
2.7050,-4.299747321,19.2900618,1082.695676
2.7100,-4.303953952,19.29133162,1082.718206
2.7150,-4.307729236,19.292516,1082.740538
2.7200,-4.311055518,19.2936378,1082.7627
2.7250,-4.313982023,19.29467964,1082.784699
2.7300,-4.3165043,19.29562022,1082.806532
2.7350,-4.318686292,19.29641287,1082.828209
2.7400,-4.320536957,19.29703676,1082.849713
2.7450,-4.322063543,19.29753766,1082.871067
2.7500,-4.32327183,19.2978789,1082.892253
2.7550,-4.324150757,19.29804337,1082.913256
2.7600,-4.324738721,19.29803722,1082.934095
2.7650,-4.325079099,19.29788948,1082.954773
2.7700,-4.325188687,19.29758021,1082.975301
2.7750,-4.325104945,19.29714773,1082.995715
2.7800,-4.324764023,19.29662531,1083.016008
2.7850,-4.324135357,19.29605342,1083.036191
2.7900,-4.323150478,19.29544589,1083.05624
2.7950,-4.32177543,19.29478944,1083.076139
2.8000,-4.32001728,19.29407512,1083.095889
2.8050,-4.317836848,19.2932805,1083.115482
2.8100,-4.315205036,19.29238731,1083.134903
2.8150,-4.312161487,19.29136699,1083.154172
2.8200,-4.308736333,19.29018195,1083.173283
2.8250,-4.304924962,19.28875429,1083.192231
2.8300,-4.300774225,19.28707878,1083.211032
2.8350,-4.296340347,19.28514552,1083.229715
2.8400,-4.291597185,19.28301604,1083.248278
2.8450,-4.286580554,19.28065186,1083.26672
2.8500,-4.281298458,19.27801992,1083.285049
2.8550,-4.275808831,19.27510896,1083.303268
2.8600,-4.270204656,19.27186488,1083.321416
2.8650,-4.264563767,19.26835093,1083.339518
2.8700,-4.258994961,19.26452318,1083.357596
2.8750,-4.253610479,19.26045522,1083.375719
2.8800,-4.248439588,19.2561608,1083.393883
2.8850,-4.243506151,19.25175122,1083.412129
2.8900,-4.238905138,19.24722991,1083.43047
2.8950,-4.234698481,19.2426613,1083.448937
2.9000,-4.230911196,19.23815613,1083.467566
2.9050,-4.227549637,19.23379925,1083.486377
2.9100,-4.224608535,19.22966781,1083.50538
2.9150,-4.222037146,19.22588002,1083.524573
2.9200,-4.21982269,19.2224435,1083.543939
2.9250,-4.217958424,19.21945047,1083.56349
2.9300,-4.216383488,19.21693393,1083.583192
2.9350,-4.215071661,19.21494547,1083.603049
2.9400,-4.21403228,19.2134613,1083.623049
2.9450,-4.213260378,19.21243159,1083.643161
2.9500,-4.212720891,19.21184919,1083.663367
2.9550,-4.212418149,19.21164143,1083.683612
2.9600,-4.212349186,19.21182225,1083.703897
2.9650,-4.212467534,19.21236848,1083.724192
2.9700,-4.212796596,19.21324542,1083.744484
2.9750,-4.213289835,19.21449668,1083.764757
2.9800,-4.21392726,19.21605568,1083.78497
2.9850,-4.214657333,19.21792222,1083.805117
2.9900,-4.215466339,19.22002425,1083.825147
2.9950,-4.216358309,19.222376,1083.845064
3.0000,-4.217381485,19.22496483,1083.864878
3.0050,-4.218469211,19.22776536,1083.884569
3.0100,-4.219598206,19.23075087,1083.90411
3.0150,-4.220772557,19.23401408,1083.923535
3.0200,-4.222000927,19.23750831,1083.942837
3.0250,-4.223251923,19.24122427,1083.961984
3.0300,-4.224519162,19.24520942,1083.980995
3.0350,-4.225810787,19.24946006,1083.999866
3.0400,-4.227122274,19.25395327,1084.018588
3.0450,-4.228447031,19.25867624,1084.037151
3.0500,-4.229750158,19.26366256,1084.055545
3.0550,-4.231027602,19.26891627,1084.073785
3.0600,-4.232258057,19.27440459,1084.091848
3.0650,-4.233377986,19.28013217,1084.109704
3.0700,-4.234420795,19.2860632,1084.127345
3.0750,-4.235338562,19.29218109,1084.144745
3.0800,-4.236148841,19.29844951,1084.161895
3.0850,-4.236864458,19.30479744,1084.178776
3.0900,-4.237524418,19.31116868,1084.195388
3.0950,-4.238157119,19.31761489,1084.21177
3.1000,-4.238740229,19.32407405,1084.227885
3.1050,-4.23925208,19.33057967,1084.243756
3.1100,-4.239721567,19.33710159,1084.259382
3.1150,-4.240110217,19.3436277,1084.274756
3.1200,-4.240397796,19.35016711,1084.289885
3.1250,-4.240630684,19.3567253,1084.304794
3.1300,-4.240789405,19.3633114,1084.319492
3.1350,-4.240830791,19.36995726,1084.333976
3.1400,-4.240822617,19.37661589,1084.348272
3.1450,-4.240746211,19.38332945,1084.362392
3.1500,-4.240611743,19.39011029,1084.376358
3.1550,-4.240488909,19.3969239,1084.390184
3.1600,-4.240348018,19.40375641,1084.403864
3.1650,-4.240285316,19.41056284,1084.417434
3.1700,-4.240328742,19.41736333,1084.430898
3.1750,-4.240480837,19.42407801,1084.444244
3.1800,-4.240837862,19.43070464,1084.457505
3.1850,-4.241484349,19.43718401,1084.470694
3.1900,-4.242431538,19.44352418,1084.483823
3.1950,-4.243673569,19.44976424,1084.496907
3.2000,-4.245225763,19.45581941,1084.50993
3.2050,-4.247142094,19.46165385,1084.522881
3.2100,-4.249469106,19.46727724,1084.535791
3.2150,-4.252237593,19.47264312,1084.548659
3.2200,-4.255412961,19.47780411,1084.561491
3.2250,-4.259069571,19.48271658,1084.574306
3.2300,-4.263130543,19.48741662,1084.587109
3.2350,-4.267585903,19.49186788,1084.599858
3.2400,-4.272408853,19.49607096,1084.612552
3.2450,-4.277514303,19.5000426,1084.625167
3.2500,-4.282871222,19.50380498,1084.637682
3.2550,-4.288449931,19.50737589,1084.65012
3.2600,-4.294211762,19.51076997,1084.662478
3.2650,-4.300152907,19.51398413,1084.674739
3.2700,-4.306175305,19.5170313,1084.686887
3.2750,-4.312210747,19.5198774,1084.698875
3.2800,-4.318200006,19.52257614,1084.710709
3.2850,-4.324120039,19.52511312,1084.722371
3.2900,-4.329959444,19.5274945,1084.733867
3.2950,-4.335706857,19.5296746,1084.745182
3.3000,-4.3412927,19.5316588,1084.756283
3.3050,-4.346771761,19.53344475,1084.767196
3.3100,-4.352125236,19.53500061,1084.777911
3.3150,-4.357337561,19.53629322,1084.788411
3.3200,-4.362401385,19.53735315,1084.798706
3.3250,-4.367246482,19.53820831,1084.80879
3.3300,-4.371879575,19.53880143,1084.81864
3.3350,-4.376265107,19.53916228,1084.828255
3.3400,-4.38040058,19.53929083,1084.837639
3.3450,-4.38426526,19.539209,1084.846803
3.3500,-4.387903267,19.53889818,1084.855764
3.3550,-4.391336605,19.53836248,1084.864537
3.3600,-4.394532679,19.53762943,1084.873125
3.3650,-4.397556981,19.53666971,1084.881548
3.3700,-4.400346093,19.53550299,1084.889781
3.3750,-4.402921931,19.53411649,1084.897844
3.3800,-4.40528066,19.53251784,1084.905734
3.3850,-4.407454908,19.53073409,1084.913478
3.3900,-4.409463615,19.5287525,1084.92108
3.3950,-4.411306971,19.52654075,1084.928521
3.4000,-4.41303206,19.52413803,1084.935852
3.4050,-4.414647485,19.52152723,1084.943048
3.4100,-4.416137323,19.51871368,1084.950123
3.4150,-4.417510961,19.51576882,1084.957098
3.4200,-4.418792073,19.51265611,1084.963989
3.4250,-4.419937052,19.50943708,1084.970784
3.4300,-4.421001694,19.50606361,1084.977497
3.4350,-4.422033291,19.50252368,1084.984167
3.4400,-4.42299864,19.49882908,1084.99078
3.4450,-4.423959678,19.4949654,1084.997371
3.4500,-4.424922098,19.49096054,1085.003943
3.4550,-4.425876474,19.48687036,1085.010524
3.4600,-4.426896534,19.48270855,1085.01714
3.4650,-4.427902718,19.47850374,1085.023767
3.4700,-4.428928083,19.47421374,1085.030393
3.4750,-4.429987537,19.46994114,1085.037043
3.4800,-4.431078044,19.46566576,1085.043706
3.4850,-4.432182225,19.46146769,1085.050384
3.4900,-4.433330974,19.45732106,1085.057067
3.4950,-4.434545699,19.453195,1085.06374
3.5000,-4.435807752,19.44915887,1085.070402
3.5050,-4.437126084,19.44523963,1085.077051
3.5100,-4.438474006,19.44142163,1085.083642
3.5150,-4.439884484,19.4377012,1085.09018
3.5200,-4.441352953,19.43407469,1085.096635
3.5250,-4.442865708,19.43055301,1085.103001
3.5300,-4.444461581,19.42710341,1085.109258
3.5350,-4.446137967,19.42379738,1085.115438
3.5400,-4.447825896,19.42059773,1085.121487
3.5450,-4.449542326,19.41754121,1085.127418
3.5500,-4.451212506,19.41463019,1085.133202
3.5550,-4.452756546,19.41188636,1085.138789
3.5600,-4.454150378,19.40928845,1085.144161
3.5650,-4.455357945,19.40680956,1085.149306
3.5700,-4.456405294,19.40445948,1085.154234
3.5750,-4.457290887,19.40224274,1085.158961
3.5800,-4.458010822,19.40014204,1085.163499
3.5850,-4.458529269,19.39813759,1085.167828
3.5900,-4.458848282,19.39623325,1085.171959
3.5950,-4.458947524,19.39440095,1085.175886
3.6000,-4.458824561,19.39257986,1085.179596
3.6050,-4.458467021,19.39074381,1085.183074
3.6100,-4.45786015,19.38889012,1085.186326
3.6150,-4.457057681,19.38697787,1085.189369
3.6200,-4.456094607,19.3849089,1085.192192
3.6250,-4.455061377,19.38266864,1085.194839
3.6300,-4.453993942,19.3802337,1085.197334
3.6350,-4.452924999,19.37757926,1085.199685
3.6400,-4.451894056,19.37471497,1085.201931
3.6450,-4.450926625,19.37163318,1085.204086
3.6500,-4.449983195,19.36830974,1085.206125
3.6550,-4.449140642,19.36475416,1085.208107
3.6600,-4.448426626,19.36093462,1085.210027
3.6650,-4.447871695,19.3568874,1085.211927
3.6700,-4.447493828,19.35259746,1085.213825
3.6750,-4.447322376,19.34808326,1085.215729
3.6800,-4.447344635,19.3433718,1085.217654
3.6850,-4.447572528,19.33845821,1085.219602
3.6900,-4.44794895,19.33339794,1085.22156
3.6950,-4.448492476,19.32822088,1085.223564
3.7000,-4.449196776,19.32297959,1085.225628
3.7050,-4.450037232,19.3176997,1085.227745
3.7100,-4.451051155,19.31240767,1085.229937
3.7150,-4.45215927,19.30716026,1085.232193
3.7200,-4.453382083,19.30200641,1085.234515
3.7250,-4.454725421,19.29692831,1085.236899
3.7300,-4.456150573,19.29202173,1085.23936
3.7350,-4.457655338,19.28728857,1085.241859
3.7400,-4.45925319,19.28275916,1085.244423
3.7450,-4.460888765,19.27845519,1085.247005
3.7500,-4.46258075,19.27438784,1085.249625
3.7550,-4.464315989,19.27056819,1085.252259
3.7600,-4.466041829,19.26702909,1085.254892
3.7650,-4.467784372,19.26381209,1085.257525
3.7700,-4.469491752,19.26092859,1085.260154
3.7750,-4.471191555,19.25839521,1085.262783
3.7800,-4.472866146,19.25623106,1085.265402
3.7850,-4.474528355,19.25441721,1085.268003
3.7900,-4.476162414,19.25298803,1085.270589
3.7950,-4.477776896,19.25194637,1085.273148
3.8000,-4.479418161,19.25128473,1085.275683
3.8050,-4.481068605,19.25101973,1085.278201
3.8100,-4.482728384,19.25115661,1085.280698
3.8150,-4.484337774,19.25169896,1085.283124
3.8200,-4.485933947,19.25262012,1085.285484
3.8250,-4.487458513,19.25393249,1085.287736
3.8300,-4.488898825,19.25565353,1085.289882
3.8350,-4.490242273,19.25773971,1085.291895
3.8400,-4.491497588,19.26019303,1085.293767
3.8450,-4.4927107,19.26298038,1085.295516
3.8500,-4.493876154,19.26610483,1085.297134
3.8550,-4.495040854,19.2695053,1085.298638
3.8600,-4.496180038,19.27316884,1085.300003
3.8650,-4.497315697,19.27710522,1085.301249
3.8700,-4.498443039,19.28120769,1085.302332
3.8750,-4.499577933,19.28545414,1085.303266
3.8800,-4.50070413,19.28978423,1085.304002
3.8850,-4.501844447,19.2941866,1085.304563
3.8900,-4.503004093,19.29858342,1085.304923
3.8950,-4.50418758,19.30295757,1085.305082
3.9000,-4.505445879,19.30727412,1085.305048
3.9050,-4.506807905,19.31152737,1085.304851
3.9100,-4.508311029,19.31568684,1085.304497
3.9150,-4.509908373,19.31974307,1085.303975
3.9200,-4.511610665,19.32373115,1085.303311
3.9250,-4.513379957,19.32764145,1085.302493
3.9300,-4.515249098,19.33141945,1085.301519
3.9350,-4.517230678,19.33504706,1085.300401
3.9400,-4.519291007,19.33851967,1085.299116
3.9450,-4.521508537,19.34178002,1085.297676
3.9500,-4.523862553,19.3448639,1085.296102
3.9550,-4.526303118,19.3477487,1085.29435
3.9600,-4.528841423,19.35047466,1085.29244
3.9650,-4.531446814,19.3529742,1085.290339
3.9700,-4.534107864,19.35530954,1085.288071
3.9750,-4.536815135,19.35746037,1085.285629
3.9800,-4.53960159,19.3594443,1085.283028
3.9850,-4.542428922,19.36125799,1085.280266
3.9900,-4.545317237,19.36291308,1085.277352
3.9950,-4.548224122,19.36441312,1085.274265
4.0000,-4.55114427,19.36572651,1085.270989
4.0050,-4.554038538,19.36686443,1085.267511
4.0100,-4.556895612,19.36786195,1085.263835
4.0150,-4.559808848,19.3686626,1085.259984
4.0200,-4.562725827,19.36929903,1085.255951
4.0250,-4.565633453,19.36978561,1085.251734
4.0300,-4.568531864,19.37008886,1085.247319
4.0350,-4.571398383,19.37026164,1085.242719
4.0400,-4.57420808,19.37033504,1085.237924
4.0450,-4.576989738,19.37030346,1085.232957
4.0500,-4.579709592,19.37022099,1085.227797
4.0550,-4.582371629,19.37006868,1085.222457
4.0600,-4.584976111,19.36986952,1085.216939
4.0650,-4.587480639,19.36963594,1085.21123
4.0700,-4.589914828,19.36945197,1085.205362
4.0750,-4.592250228,19.36926724,1085.199314
4.0800,-4.594486649,19.36910493,1085.193092
4.0850,-4.596602735,19.36896566,1085.186688
4.0900,-4.598546173,19.36888875,1085.180087
4.0950,-4.600338655,19.36886232,1085.173301
4.1000,-4.601967609,19.36890526,1085.166336
4.1050,-4.603463793,19.36893288,1085.159158
4.1100,-4.604787005,19.36903399,1085.151789
4.1150,-4.605998915,19.36917015,1085.144252
4.1200,-4.607063535,19.36934553,1085.13653
4.1250,-4.607992747,19.36957384,1085.128627
4.1300,-4.608774901,19.36982066,1085.120519
4.1350,-4.609444142,19.37005437,1085.112209
4.1400,-4.609985437,19.37032661,1085.10371
4.1450,-4.610346842,19.37059288,1085.094977
4.1500,-4.610575152,19.37082833,1085.086032
4.1550,-4.610683896,19.37105828,1085.076871
4.1600,-4.610715917,19.37125722,1085.067518
4.1650,-4.610691319,19.37138264,1085.057965
4.1700,-4.610602401,19.37146394,1085.048224
4.1750,-4.610455974,19.37152761,1085.038291
4.1800,-4.610278019,19.37156766,1085.028193
4.1850,-4.610111385,19.3716,1085.017943
4.1900,-4.609938698,19.37163219,1085.007529
4.1950,-4.609764404,19.37166759,1084.996959
4.2000,-4.609551569,19.37177027,1084.986259
4.2050,-4.609305012,19.37192393,1084.975411
4.2100,-4.60900251,19.37216384,1084.96442
4.2150,-4.608678883,19.3725014,1084.953292
4.2200,-4.608303977,19.37290132,1084.941991
4.2250,-4.607933624,19.37335331,1084.930534
4.2300,-4.607523463,19.37388852,1084.91891
4.2350,-4.607086029,19.37447444,1084.907107
4.2400,-4.606637712,19.37513158,1084.895134
4.2450,-4.606136907,19.37585897,1084.882977
4.2500,-4.605600383,19.37661586,1084.870603
4.2550,-4.605061629,19.37743794,1084.858034
4.2600,-4.604480055,19.37826736,1084.845246
4.2650,-4.603857319,19.37914598,1084.83224
4.2700,-4.603142606,19.38004984,1084.818978
4.2750,-4.602305534,19.38098971,1084.805437
4.2800,-4.601340949,19.38194511,1084.791614
4.2850,-4.600239763,19.382918,1084.77749
4.2900,-4.598963651,19.38389026,1084.763046
4.2950,-4.597580662,19.3848269,1084.748289
4.3000,-4.596047741,19.38572898,1084.733198
4.3050,-4.594441384,19.38660587,1084.717827
4.3100,-4.592746378,19.38741517,1084.702149
4.3150,-4.590946065,19.38819821,1084.686174
4.3200,-4.589043025,19.38897409,1084.669904
4.3250,-4.587029521,19.38976159,1084.653352
4.3300,-4.584902779,19.39060118,1084.63652
4.3350,-4.582601903,19.39150939,1084.619387
4.3400,-4.58014924,19.39247032,1084.601963
4.3450,-4.577525266,19.39348822,1084.584235
4.3500,-4.57473936,19.3945364,1084.566213
4.3550,-4.571795169,19.39562671,1084.547896
4.3600,-4.568713801,19.39673065,1084.529276
4.3650,-4.565513364,19.39786638,1084.510382
4.3700,-4.562257061,19.39898576,1084.491244
4.3750,-4.55895432,19.40009044,1084.471858
4.3800,-4.555596882,19.40122913,1084.452243
4.3850,-4.552208688,19.40239268,1084.432421
4.3900,-4.548782927,19.40358357,1084.412382
4.3950,-4.545337902,19.40483575,1084.392156
4.4000,-4.541846286,19.40614604,1084.371734
4.4050,-4.53830524,19.40753383,1084.351132
4.4100,-4.534762673,19.40892137,1084.330344
4.4150,-4.531188826,19.41034266,1084.309366
4.4200,-4.527639706,19.4117701,1084.288226
4.4250,-4.524109066,19.41320752,1084.266943
4.4300,-4.52061974,19.41463428,1084.245537
4.4350,-4.517169666,19.41607786,1084.22401
4.4400,-4.513819814,19.41751276,1084.202398
4.4450,-4.510555966,19.41897894,1084.180702
4.4500,-4.507402698,19.42047656,1084.15894
4.4550,-4.504349337,19.42199716,1084.137118
4.4600,-4.501359791,19.42357089,1084.115231
4.4650,-4.498396525,19.42520981,1084.09327
4.4700,-4.495446383,19.42694558,1084.071236
4.4750,-4.492516913,19.42871288,1084.049121
4.4800,-4.489592445,19.43051996,1084.026904
4.4850,-4.486642917,19.43232611,1084.004571
4.4900,-4.483655985,19.43414083,1083.982131
4.4950,-4.480650082,19.43593314,1083.959585
4.5000,-4.477638965,19.43765313,1083.936907
4.5050,-4.474590384,19.43926056,1083.914079
4.5100,-4.471537473,19.44073086,1083.891102
4.5150,-4.468483058,19.442064,1083.867988
4.5200,-4.465428553,19.4432135,1083.84472
4.5250,-4.462383789,19.4442036,1083.821322
4.5300,-4.459357193,19.44503152,1083.797786
4.5350,-4.456370947,19.44565689,1083.774107
4.5400,-4.453428619,19.44605874,1083.750282
4.5450,-4.450554828,19.44622494,1083.726304
4.5500,-4.447768304,19.44617145,1083.7022
4.5550,-4.445009267,19.44585923,1083.677925
4.5600,-4.442239178,19.44531953,1083.653478
4.5650,-4.43946907,19.44455317,1083.628869
4.5700,-4.436713948,19.44350446,1083.604078
4.5750,-4.43401221,19.44220518,1083.579145
4.5800,-4.431329067,19.44064709,1083.554047
4.5850,-4.428690671,19.43886789,1083.528818
4.5900,-4.42612362,19.43686132,1083.503475
4.5950,-4.423588563,19.43468481,1083.478034
4.6000,-4.421120583,19.43238515,1083.452535
4.6050,-4.418646252,19.43000537,1083.426956
4.6100,-4.416158313,19.42755999,1083.401287
4.6150,-4.413616775,19.42502929,1083.375538
4.6200,-4.410994455,19.42245187,1083.349707
4.6250,-4.408278825,19.41981595,1083.323789
4.6300,-4.405459591,19.41710972,1083.29779
4.6350,-4.402607633,19.41428584,1083.271713
4.6400,-4.399671901,19.41131582,1083.245544
4.6450,-4.396698744,19.4082146,1083.219319
4.6500,-4.393648572,19.4049996,1083.193025
4.6550,-4.390559868,19.40168172,1083.166681
4.6600,-4.387394182,19.39827708,1083.140305
4.6650,-4.384180412,19.39481735,1083.113917
4.6700,-4.380807447,19.39129241,1083.087467
4.6750,-4.377285176,19.38773167,1083.060967
4.6800,-4.373587783,19.38410319,1083.034423
4.6850,-4.369685625,19.38041829,1083.007813
4.6900,-4.365610296,19.37669422,1082.981171
4.6950,-4.361266808,19.37288337,1082.954445
4.7000,-4.356662472,19.36902862,1082.927663
4.7050,-4.351781523,19.36516057,1082.900845
4.7100,-4.346529578,19.36132182,1082.873977
4.7150,-4.340961285,19.3575197,1082.847097
4.7200,-4.335078107,19.35380176,1082.820223
4.7250,-4.328850841,19.35015871,1082.793336
4.7300,-4.322333787,19.34664324,1082.766456
4.7350,-4.315510394,19.34326195,1082.7396
4.7400,-4.308354244,19.34003738,1082.712747
4.7450,-4.300891906,19.33701514,1082.685924
4.7500,-4.293052032,19.33419338,1082.659104
4.7550,-4.284885717,19.33158393,1082.632297
4.7600,-4.276422915,19.32918577,1082.605505
4.7650,-4.267675335,19.32696676,1082.578717
4.7700,-4.258713084,19.32493714,1082.551948
4.7750,-4.249535336,19.32309019,1082.525192
4.7800,-4.240182672,19.32141846,1082.498462
4.7850,-4.230680433,19.31987298,1082.47174
4.7900,-4.221145789,19.31844731,1082.445057
4.7950,-4.211585433,19.31713028,1082.418384
4.8000,-4.202091467,19.31592947,1082.391759
4.8050,-4.192685282,19.31484618,1082.365189
4.8100,-4.183390278,19.31385404,1082.338656
4.8150,-4.174263045,19.31292894,1082.312177
4.8200,-4.165287571,19.31209033,1082.285743
4.8250,-4.156477868,19.31132876,1082.259357
4.8300,-4.14784047,19.31057599,1082.233001
4.8350,-4.139333636,19.3098907,1082.206679
4.8400,-4.130971356,19.30924881,1082.180386
4.8450,-4.122704255,19.30863432,1082.154118
4.8500,-4.114567323,19.30798759,1082.127871
4.8550,-4.106625552,19.30731483,1082.101674
4.8600,-4.098925418,19.30661448,1082.075527
4.8650,-4.091469732,19.30584032,1082.049422
4.8700,-4.084311465,19.30501952,1082.02337
4.8750,-4.077410687,19.3041251,1081.997347
4.8800,-4.070778228,19.30318079,1081.971381
4.8850,-4.064359199,19.30220223,1081.945463
4.8900,-4.058104971,19.30119814,1081.919587
4.8950,-4.052007534,19.30019749,1081.893743
4.9000,-4.04602699,19.2991445,1081.867899
4.9050,-4.0401837,19.29798912,1081.842052
4.9100,-4.034497346,19.29674681,1081.816214
4.9150,-4.029017837,19.2953693,1081.790356
4.9200,-4.0237361,19.29375265,1081.764461
4.9250,-4.018664259,19.29191901,1081.738538
4.9300,-4.013805978,19.28986079,1081.712597
4.9350,-4.009162738,19.28760382,1081.686654
4.9400,-4.004774518,19.28518282,1081.660708
4.9450,-4.000597097,19.2825859,1081.634738
4.9500,-3.996677894,19.27983733,1081.608769
4.9550,-3.99291164,19.27691987,1081.582774
4.9600,-3.989305357,19.27386009,1081.556746
4.9650,-3.985763535,19.27054474,1081.530629
4.9700,-3.982279869,19.26702831,1081.504438
4.9750,-3.978822988,19.26324855,1081.47816
4.9800,-3.975411495,19.25917207,1081.451763
4.9850,-3.972048483,19.25479959,1081.425263
4.9900,-3.968687689,19.25009601,1081.398633
4.9950,-3.965329963,19.24510902,1081.371884
5.0000,-3.961987455,19.23981084,1081.345005
5.0050,-3.958567128,19.23426965,1081.317993
5.0100,-3.955130709,19.22847499,1081.290844
5.0150,-3.95157164,19.22248495,1081.263542
5.0200,-3.947852525,19.21632591,1081.236083
5.0250,-3.943951214,19.21003843,1081.20847
5.0300,-3.939798692,19.20365079,1081.180697
5.0350,-3.935375905,19.19722916,1081.152764
5.0400,-3.930673288,19.19073918,1081.124664
5.0450,-3.925679523,19.18419942,1081.096402
5.0500,-3.920433341,19.17763073,1081.067983
5.0550,-3.914868738,19.17107959,1081.039404
5.0600,-3.908943861,19.16456205,1081.010655
5.0650,-3.902638872,19.15813921,1080.981764
5.0700,-3.895892366,19.15182965,1080.952726
5.0750,-3.888720087,19.14563498,1080.923541
5.0800,-3.88113201,19.13956637,1080.894201
5.0850,-3.873160733,19.13364368,1080.864727
5.0900,-3.86473971,19.12791692,1080.83511
5.0950,-3.855917182,19.12233829,1080.805364
5.1000,-3.846651806,19.1169253,1080.775493
5.1050,-3.837019257,19.11166427,1080.745503
5.1100,-3.827065019,19.10653018,1080.715433
5.1150,-3.816764731,19.10146695,1080.685247
5.1200,-3.806178182,19.09647144,1080.654983
5.1250,-3.795305485,19.09147465,1080.624628
5.1300,-3.784197025,19.08651519,1080.59421
5.1350,-3.772904191,19.08155088,1080.563736
5.1400,-3.76142565,19.07662157,1080.533233
5.1450,-3.749825173,19.07169946,1080.502718
5.1500,-3.73810228,19.06682248,1080.472183
5.1550,-3.726235675,19.06201147,1080.44163
5.1600,-3.714250971,19.05721447,1080.411062
5.1650,-3.702132546,19.05251783,1080.380502
5.1700,-3.689880731,19.04786015,1080.349952
5.1750,-3.677503138,19.04329218,1080.319426
5.1800,-3.665046614,19.03876816,1080.288935
5.1850,-3.652521472,19.0342634,1080.258461
5.1900,-3.640018676,19.029743,1080.22801
5.1950,-3.627522365,19.02515511,1080.197589
5.2000,-3.615086095,19.020496,1080.167197
5.2050,-3.602743448,19.01573841,1080.13685
5.2100,-3.590493386,19.0108365,1080.106537
5.2150,-3.578347443,19.00582455,1080.076268
5.2200,-3.566364601,19.0007315,1080.04606
5.2250,-3.554557054,18.9954986,1080.015901
5.2300,-3.542945347,18.99012925,1079.98577
5.2350,-3.531528234,18.98461998,1079.955673
5.2400,-3.520273248,18.97895032,1079.925606
5.2450,-3.509163579,18.97311978,1079.895581
5.2500,-3.498213167,18.96711519,1079.86559
5.2550,-3.487482352,18.96093931,1079.835661
5.2600,-3.476937951,18.95458379,1079.805768
5.2650,-3.466596206,18.94807789,1079.775938
5.2700,-3.456455244,18.94142375,1079.746176
5.2750,-3.446482502,18.9346874,1079.716496
5.2800,-3.436636955,18.92792087,1079.686901
5.2850,-3.426879026,18.92114211,1079.65739
5.2900,-3.417207046,18.91440041,1079.627979
5.2950,-3.407595904,18.9077029,1079.598664
5.3000,-3.398008105,18.90106343,1079.569441
5.3050,-3.388470368,18.89449529,1079.540312
5.3100,-3.378950212,18.88801324,1079.511287
5.3150,-3.369487666,18.88160255,1079.482366
5.3200,-3.36004673,18.87524932,1079.453534
5.3250,-3.350665761,18.86895,1079.424799
5.3300,-3.341370435,18.86270166,1079.396177
5.3350,-3.332065877,18.85647985,1079.367641
5.3400,-3.322777554,18.85028402,1079.339215
5.3450,-3.313490977,18.84408418,1079.310873
5.3500,-3.304169686,18.83791805,1079.282611
5.3550,-3.294827854,18.83175412,1079.254421
5.3600,-3.285513921,18.82564339,1079.226316
5.3650,-3.276231067,18.81958551,1079.198273
5.3700,-3.266984189,18.81358321,1079.170295
5.3750,-3.257761634,18.80772294,1079.14239
5.3800,-3.248566857,18.80199589,1079.114561
5.3850,-3.239342947,18.79646992,1079.086803
5.3900,-3.230087524,18.79111939,1079.059102
5.3950,-3.220788022,18.7859651,1079.031481
5.4000,-3.211416715,18.78102128,1079.003913
5.4050,-3.201919801,18.77630491,1078.976414
5.4100,-3.192270019,18.77183294,1078.94897
5.4150,-3.182467609,18.76763788,1078.921599
5.4200,-3.172508967,18.76373697,1078.894289
5.4250,-3.162386795,18.76013846,1078.867045
5.4300,-3.152084856,18.75683913,1078.83987
5.4350,-3.141621022,18.75388569,1078.812771
5.4400,-3.130969924,18.75123285,1078.785736
5.4450,-3.120126007,18.74892507,1078.758766
5.4500,-3.109093232,18.74696735,1078.731891
5.4550,-3.09787098,18.74528532,1078.705091
5.4600,-3.086472479,18.74390688,1078.678378
5.4650,-3.074913728,18.74270972,1078.651734
5.4700,-3.06321515,18.74173328,1078.625165
5.4750,-3.051365064,18.74089268,1078.598672
5.4800,-3.039349609,18.74019623,1078.572246
5.4850,-3.02714838,18.73960388,1078.545881
5.4900,-3.014725551,18.73910911,1078.519581
5.4950,-3.002049588,18.73868063,1078.493332
5.5000,-2.989128778,18.73833063,1078.467141
5.5050,-2.975987123,18.73806856,1078.441006
5.5100,-2.962613681,18.73793813,1078.414946
5.5150,-2.949028841,18.73790132,1078.388961
5.5200,-2.935189729,18.73795459,1078.363034
5.5250,-2.921120664,18.73809651,1078.337167
5.5300,-2.90681182,18.73831114,1078.311373
5.5350,-2.892248753,18.73856654,1078.285638
5.5400,-2.877440026,18.73882305,1078.259968
5.5450,-2.862417032,18.73904047,1078.234366
5.5500,-2.847147817,18.7391573,1078.208826
5.5550,-2.831640141,18.73915712,1078.183338
5.5600,-2.815937233,18.73899928,1078.157925
5.5650,-2.800031286,18.73872804,1078.132586
5.5700,-2.783955802,18.73832928,1078.107327
5.5750,-2.76772349,18.73776234,1078.082134
5.5800,-2.751358086,18.73701377,1078.057027
5.5850,-2.734879957,18.73608174,1078.031994
5.5900,-2.718289684,18.7349514,1078.007026
5.5950,-2.70158899,18.73359663,1077.982129
5.6000,-2.684793955,18.73204821,1077.957308
5.6050,-2.667903939,18.73026258,1077.932554
5.6100,-2.650915993,18.7282455,1077.907862
5.6150,-2.633826448,18.72602421,1077.883245
5.6200,-2.616657001,18.72359537,1077.858718
5.6250,-2.599381854,18.72103017,1077.834286
5.6300,-2.581961574,18.71832384,1077.809929
5.6350,-2.564507315,18.71551513,1077.785682
5.6400,-2.546986116,18.7126303,1077.761525
5.6450,-2.52942811,18.70970272,1077.737471
5.6500,-2.511850878,18.70672488,1077.713528
5.6550,-2.494260548,18.70372524,1077.689709
5.6600,-2.476656435,18.70066141,1077.666005
5.6650,-2.459076303,18.6975157,1077.64242
5.6700,-2.441559241,18.69432269,1077.61897
5.6750,-2.424101067,18.69103095,1077.595652
5.6800,-2.406711628,18.68764263,1077.572466
5.6850,-2.389414379,18.68414883,1077.549425
5.6900,-2.372239028,18.68053348,1077.52653
5.6950,-2.355181666,18.67690759,1077.503793
5.7000,-2.338301222,18.67316165,1077.48121
5.7050,-2.321568415,18.66934343,1077.458781
5.7100,-2.304981321,18.66541602,1077.436496
5.7150,-2.288529545,18.6614176,1077.414364
5.7200,-2.272236108,18.65733852,1077.392391
5.7250,-2.256085565,18.65316873,1077.370576
5.7300,-2.240043025,18.64894695,1077.348917
5.7350,-2.224030195,18.64463948,1077.327401
5.7400,-2.208078084,18.64026758,1077.306041
5.7450,-2.192149696,18.63587321,1077.284833
5.7500,-2.176188791,18.63146001,1077.263778
5.7550,-2.160181439,18.62706041,1077.242896
5.7600,-2.144077226,18.62265901,1077.222174
5.7650,-2.127839189,18.61833752,1077.201628
5.7700,-2.111429906,18.61411791,1077.181261
5.7750,-2.0948465,18.60999329,1077.161065
5.7800,-2.078046354,18.60598834,1077.141037
5.7850,-2.061080563,18.60212348,1077.121197
5.7900,-2.043905507,18.59839115,1077.101525
5.7950,-2.026566401,18.59478445,1077.08202
5.8000,-2.009056633,18.59132503,1077.062689
5.8050,-1.991337751,18.58794813,1077.043505
5.8100,-1.973447489,18.58463066,1077.024479
5.8150,-1.955379444,18.58134821,1077.005601
5.8200,-1.93721227,18.57807434,1076.986888
5.8250,-1.918946786,18.57482323,1076.968341
5.8300,-1.90062937,18.57152533,1076.949956
5.8350,-1.882324053,18.5681608,1076.931743
5.8400,-1.864028408,18.56474172,1076.913694
5.8450,-1.845759647,18.56132058,1076.895808
5.8500,-1.827522205,18.55785587,1076.878082
5.8550,-1.809280558,18.55438619,1076.860514
5.8600,-1.791055759,18.55093875,1076.843109
5.8650,-1.772891792,18.5474779,1076.825865
5.8700,-1.754766476,18.5440079,1076.808778
5.8750,-1.736722842,18.54058574,1076.791868
5.8800,-1.71875041,18.53720128,1076.775124
5.8850,-1.700837078,18.53385671,1076.758556
5.8900,-1.682991663,18.53057906,1076.742173
5.8950,-1.665223027,18.5273981,1076.725977
5.9000,-1.647549862,18.52425862,1076.709962
5.9050,-1.629995979,18.52120006,1076.694144
5.9100,-1.612531275,18.51818476,1076.678508
5.9150,-1.595202492,18.51523132,1076.663063
5.9200,-1.577977999,18.51236145,1076.647794
5.9250,-1.560880134,18.50953523,1076.632693
5.9300,-1.543994254,18.50673999,1076.617771
5.9350,-1.527255417,18.50394997,1076.603005
5.9400,-1.51068468,18.50122256,1076.5884
5.9450,-1.494286587,18.49851632,1076.57395
5.9500,-1.478078956,18.49584337,1076.559654
5.9550,-1.46207382,18.4931857,1076.545501
5.9600,-1.4462547,18.49051967,1076.531482
5.9650,-1.430631704,18.48787801,1076.517603
5.9700,-1.415201379,18.48519634,1076.503857
5.9750,-1.39997754,18.48246213,1076.490243
5.9800,-1.384971219,18.47968987,1076.476761
5.9850,-1.370168215,18.476861,1076.463398
5.9900,-1.355547902,18.47399484,1076.450167
5.9950,-1.341126451,18.47100494,1076.437049
6.0000,-1.326845635,18.46796434,1076.424051
6.0050,-1.312719211,18.46486679,1076.411173
6.0100,-1.298754274,18.46171956,1076.398424
6.0150,-1.284932291,18.45848913,1076.385795
6.0200,-1.271205516,18.45521396,1076.373288
6.0250,-1.257553295,18.4518786,1076.360898
6.0300,-1.243971125,18.44850228,1076.348631
6.0350,-1.230408985,18.44510518,1076.336492
6.0400,-1.216854249,18.44168237,1076.32447
6.0450,-1.203263467,18.43817268,1076.312565
6.0500,-1.189638187,18.43463452,1076.300779
6.0550,-1.175909999,18.43103266,1076.289094
6.0600,-1.162073039,18.4274182,1076.277524
6.0650,-1.148072088,18.42376279,1076.266053
6.0700,-1.133943898,18.42002935,1076.254687
6.0750,-1.119633446,18.41625444,1076.243423
6.0800,-1.105158219,18.41240528,1076.232258
6.0850,-1.090481368,18.40847823,1076.221184
6.0900,-1.075630598,18.40448662,1076.210217
6.0950,-1.060581071,18.40044548,1076.199352
6.1000,-1.045354621,18.39626837,1076.18858
6.1050,-1.029980551,18.39203574,1076.17792
6.1100,-1.014440624,18.387718,1076.167359
6.1150,-0.9987437493,18.38333305,1076.156898
6.1200,-0.9828452695,18.37884253,1076.146518
6.1250,-0.966786858,18.37426997,1076.13623
6.1300,-0.9505930223,18.36959725,1076.126031
6.1350,-0.9342334215,18.36485302,1076.115916
6.1400,-0.9177543576,18.36000509,1076.105886
6.1450,-0.9012029689,18.35500389,1076.09594
6.1500,-0.8846223203,18.34992119,1076.086092
6.1550,-0.8680690475,18.34467225,1076.076337
6.1600,-0.8515433458,18.33927246,1076.066678
6.1650,-0.8351121137,18.33375371,1076.057129
6.1700,-0.8187928034,18.32806091,1076.047679
6.1750,-0.8025614646,18.3221587,1076.038313
6.1800,-0.7865013328,18.31607176,1076.029052
6.1850,-0.7706203262,18.30980471,1076.019887
6.1900,-0.7549253996,18.30333102,1076.010815
6.1950,-0.7394705314,18.29668804,1076.001849
6.2000,-0.724223097,18.28987212,1075.992988
6.2050,-0.7092282032,18.28286039,1075.984224
6.2100,-0.6945433626,18.27569736,1075.975573
6.2150,-0.6801556228,18.2683391,1075.967025
6.2200,-0.6660725283,18.2607895,1075.958579
6.2250,-0.652350253,18.25301701,1075.95024
6.2300,-0.6389682922,18.24506842,1075.942006
6.2350,-0.6259627087,18.23694271,1075.93388
6.2400,-0.6133737052,18.22862342,1075.925867
6.2450,-0.6012269677,18.22012933,1075.917968
6.2500,-0.5895027996,18.21146305,1075.910179
6.2550,-0.5782558432,18.20262493,1075.902502
6.2600,-0.5674986138,18.19369616,1075.89495
6.2650,-0.5572108204,18.18461887,1075.887507
6.2700,-0.5473860356,18.17544191,1075.880168
6.2750,-0.5380131561,18.16616401,1075.872925
6.2800,-0.5290687208,18.15678685,1075.865779
6.2850,-0.5205658476,18.14734313,1075.858735
6.2900,-0.5124615458,18.13779089,1075.851778
6.2950,-0.5047500554,18.1281575,1075.844907
6.3000,-0.4974166923,18.11843261,1075.838119
6.3050,-0.4904394023,18.1086191,1075.831416
6.3100,-0.4837711545,18.09877242,1075.824792
6.3150,-0.4773433108,18.08890527,1075.818244
6.3200,-0.4711553473,18.07899118,1075.81176
6.3250,-0.4651315308,18.0691148,1075.805348
6.3300,-0.4592365407,18.05924042,1075.798992
6.3350,-0.4534521182,18.04940684,1075.792694
6.3400,-0.4477259628,18.03961084,1075.786452
6.3450,-0.4420254566,18.02992822,1075.780266
6.3500,-0.4362471589,18.02030322,1075.774106
6.3550,-0.430455689,18.01079582,1075.767993
6.3600,-0.4246353378,18.00139106,1075.761919
6.3650,-0.4187789168,17.99206643,1075.755872
6.3700,-0.412833391,17.98287792,1075.749855
6.3750,-0.4068573675,17.97381726,1075.743874
6.3800,-0.4007812248,17.96491643,1075.737921
6.3850,-0.3945889445,17.95614801,1075.731987
6.3900,-0.3883107554,17.947512,1075.726072
6.3950,-0.3819393959,17.93902907,1075.720179
6.4000,-0.3754992141,17.93074779,1075.714321
6.4050,-0.3689459074,17.92261577,1075.708484
6.4100,-0.3622785743,17.91460494,1075.702658
6.4150,-0.3555407887,17.90673221,1075.696856
6.4200,-0.3487594922,17.8989926,1075.691081
6.4250,-0.3419009776,17.89135891,1075.685327
6.4300,-0.3349731909,17.88382368,1075.679594
6.4350,-0.3279693971,17.87639859,1075.673885
6.4400,-0.3209238534,17.86905107,1075.668205
6.4450,-0.3138131177,17.86180977,1075.662552
6.4500,-0.3066234546,17.8546411,1075.656924
6.4550,-0.2993469605,17.84756194,1075.651321
6.4600,-0.2919953631,17.84051521,1075.645739
6.4650,-0.2845275237,17.83348493,1075.640173
6.4700,-0.27697469,17.82653549,1075.634639
6.4750,-0.2693140306,17.81965331,1075.629136
6.4800,-0.261510421,17.81281929,1075.623651
6.4850,-0.2535378489,17.80604726,1075.618189
6.4900,-0.2454546011,17.79931552,1075.612756
6.4950,-0.2372201639,17.79260015,1075.60734
6.5000,-0.2288707222,17.78591907,1075.601947
6.5050,-0.2204058709,17.77924962,1075.596581
6.5100,-0.2118021023,17.77255484,1075.591232
6.5150,-0.2030575165,17.7658452,1075.585901
6.5200,-0.194216018,17.75911526,1075.580596
6.5250,-0.1852272238,17.75236359,1075.575313
6.5300,-0.1760439553,17.74557862,1075.570042
6.5350,-0.1666551731,17.73872167,1075.56478
6.5400,-0.1571088791,17.73183214,1075.559542
6.5450,-0.1473092447,17.72487076,1075.554309
6.5500,-0.1373235864,17.71785759,1075.549096
6.5550,-0.1270761679,17.71080825,1075.543898
6.5600,-0.1166004243,17.70362107,1075.538706
6.5650,-0.1059160054,17.69638175,1075.533538
6.5700,-0.09501638942,17.68904166,1075.528386
6.5750,-0.08392172144,17.68164128,1075.523263
6.5800,-0.07261863815,17.67417851,1075.518167
6.5850,-0.06114997702,17.66658079,1075.513093
6.5900,-0.04958653077,17.65891912,1075.508061
6.5950,-0.03790355846,17.65120564,1075.50307
6.6000,-0.02611309792,17.64343148,1075.498115
6.6050,-0.01422352229,17.63559568,1075.493199
6.6100,-0.00228288949,17.62766416,1075.48832
6.6150,0.009659373178,17.6196697,1075.483486
6.6200,0.02161973421,17.61162502,1075.478702
6.6250,0.03352002463,17.60351648,1075.473971
6.6300,0.04532513383,17.59538208,1075.469303
6.6350,0.05695696874,17.58720923,1075.464701
6.6400,0.06835685528,17.5790635,1075.460182
6.6450,0.07951457997,17.57091214,1075.455739
6.6500,0.09032671555,17.56275219,1075.451389
6.6550,0.1008261313,17.55459854,1075.447129
6.6600,0.1109836948,17.54646006,1075.442959
6.6650,0.1207655904,17.53836498,1075.438889
6.6700,0.1301227951,17.53030779,1075.434925
6.6750,0.1390979586,17.5223093,1075.431062
6.6800,0.1475824381,17.51437355,1075.427314
6.6850,0.155521189,17.50650548,1075.423692
6.6900,0.1629197731,17.49877393,1075.420205
6.6950,0.1697833316,17.491142,1075.416842
6.7000,0.1761088546,17.48360564,1075.413603
6.7050,0.1818999277,17.4761327,1075.410482
6.7100,0.187102207,17.46876568,1075.407492
6.7150,0.1918049514,17.46148671,1075.404617
6.7200,0.1959911784,17.45427521,1075.401853
6.7250,0.1996565081,17.44711115,1075.399199
6.7300,0.2028669683,17.44000443,1075.39664
6.7350,0.2055737646,17.43291604,1075.394178
6.7400,0.2078516488,17.42589795,1075.391804
6.7450,0.2097069177,17.41889218,1075.38951
6.7500,0.2111782057,17.41190407,1075.387283
6.7550,0.2122397582,17.40496566,1075.385134
6.7600,0.2129621298,17.39811227,1075.383048
6.7650,0.213332829,17.39130117,1075.381017
6.7700,0.21341274,17.38453233,1075.379029
6.7750,0.21317658,17.37781592,1075.377087
6.7800,0.2126589648,17.37116554,1075.375187
6.7850,0.2118416499,17.36459323,1075.373327
6.7900,0.2107829024,17.35809676,1075.3715
6.7950,0.2094701968,17.35167825,1075.369705
6.8000,0.2079481744,17.34535913,1075.367939
6.8050,0.2062812637,17.33914425,1075.366193
6.8100,0.2044719679,17.33307357,1075.364474
6.8150,0.2025555966,17.32710001,1075.36277
6.8200,0.2005927141,17.32124103,1075.361078
6.8250,0.1985916121,17.31546955,1075.359392
6.8300,0.1965872462,17.30977705,1075.357708
6.8350,0.1945497053,17.30418133,1075.356036
6.8400,0.1925804765,17.29864731,1075.354359
6.8450,0.1906714178,17.29316652,1075.352678
6.8500,0.1888781058,17.28769765,1075.350985
6.8550,0.1872346721,17.28222966,1075.349274
6.8600,0.1857812063,17.27679446,1075.347548
6.8650,0.184585994,17.27134521,1075.345791
6.8700,0.1836238659,17.26587778,1075.344013
6.8750,0.1829261108,17.26037494,1075.342206
6.8800,0.1825057342,17.2548552,1075.340375
6.8850,0.1824049347,17.24932055,1075.338516
6.8900,0.1826588996,17.24374646,1075.336624
6.8950,0.1832332658,17.23812504,1075.334704
6.9000,0.1840923833,17.23249375,1075.332768
6.9050,0.185215193,17.22682748,1075.330818
6.9100,0.1866180429,17.22118366,1075.328859
6.9150,0.1882661851,17.21555236,1075.326899
6.9200,0.1900762955,17.20996144,1075.324957
6.9250,0.1920513596,17.2044121,1075.323032
6.9300,0.1942110517,17.19895954,1075.321127
6.9350,0.1965220082,17.19358391,1075.319249
6.9400,0.1990066457,17.18827622,1075.317393
6.9450,0.2016364977,17.18308837,1075.315571
6.9500,0.2043870863,17.17803226,1075.313787
6.9550,0.207263697,17.17314686,1075.312042
6.9600,0.210236726,17.16844342,1075.310347
6.9650,0.2133016208,17.1639333,1075.308701
6.9700,0.2164583242,17.15964105,1075.307108
6.9750,0.2196918125,17.15556572,1075.305568
6.9800,0.2230550351,17.15169317,1075.304073
6.9850,0.2265800787,17.14808132,1075.302622
6.9900,0.230283745,17.1447036,1075.301208
6.9950,0.2341612792,17.14156871,1075.299835
7.0000,0.2382490884,17.13867526,1075.298493
7.0050,0.2425029201,17.13609094,1075.297198
7.0100,0.2470020512,17.13382767,1075.295936
7.0150,0.2516951626,17.13182876,1075.29471
7.0200,0.2566089583,17.13020522,1075.293526
7.0250,0.2616990239,17.12891652,1075.292386
7.0300,0.2669057637,17.1279843,1075.291301
7.0350,0.2722381844,17.12739558,1075.290266
7.0400,0.2776150714,17.12713988,1075.289291
7.0450,0.2829826104,17.12724899,1075.288388
7.0500,0.2882855659,17.12772737,1075.287566
7.0550,0.2935294707,17.12856372,1075.286817
7.0600,0.2985777564,17.12974512,1075.286163
7.0650,0.3034775499,17.13130648,1075.285598
7.0700,0.3081207963,17.13318618,1075.285133
7.0750,0.3124960193,17.13543787,1075.284771
7.0800,0.3165566341,17.13804412,1075.284517
7.0850,0.3202913502,17.14094117,1075.284363
7.0900,0.3236428849,17.1441734,1075.284323
7.0950,0.3266198257,17.14768732,1075.284387
7.1000,0.3292114344,17.15148894,1075.284555
7.1050,0.3314250156,17.15558804,1075.284827
7.1100,0.3332344083,17.15992457,1075.285196
7.1150,0.3346270978,17.16452234,1075.285668
7.1200,0.335607148,17.16933213,1075.286234
7.1250,0.3361934507,17.17437397,1075.286893
7.1300,0.3363360459,17.1796342,1075.287652
7.1350,0.3360717224,17.18506668,1075.288499
7.1400,0.3354141666,17.19064587,1075.28943
7.1450,0.3343057954,17.19636956,1075.290453
7.1500,0.3327804914,17.20222788,1075.291562
7.1550,0.3307926378,17.20815289,1075.292757
7.1600,0.3283528109,17.21415825,1075.294037
7.1650,0.3254204926,17.22014098,1075.295399
7.1700,0.3220311323,17.22613337,1075.29684
7.1750,0.3181908606,17.23209244,1075.298358
7.1800,0.3138836677,17.23795273,1075.299949
7.1850,0.3091279912,17.24373544,1075.301612
7.1900,0.3038972135,17.24937652,1075.303347
7.1950,0.2982524801,17.25483773,1075.30514
7.2000,0.2922756758,17.26010999,1075.306983
7.2050,0.2859774659,17.26516634,1075.308872
7.2100,0.2794111097,17.26994137,1075.310796
7.2150,0.2726472376,17.274451,1075.312745
7.2200,0.2657590137,17.27864309,1075.314704
7.2250,0.258772665,17.28253942,1075.316676
7.2300,0.2517458008,17.28606593,1075.318646
7.2350,0.2447607355,17.28924853,1075.320605
7.2400,0.2378457873,17.29205839,1075.322548
7.2450,0.2310475623,17.29448428,1075.32447
7.2500,0.2244254818,17.29657848,1075.326372
7.2550,0.2180201755,17.29830171,1075.328243
7.2600,0.2118150685,17.29966295,1075.33009
7.2650,0.2058422981,17.30070986,1075.331919
7.2700,0.2001475491,17.30143989,1075.333722
7.2750,0.1946708556,17.30189632,1075.335518
7.2800,0.1893914142,17.30212342,1075.337318
7.2850,0.1842903695,17.30212413,1075.339128
7.2900,0.1793417114,17.30194191,1075.34096
7.2950,0.1744567889,17.30157793,1075.342833
7.3000,0.1696307706,17.30110261,1075.344757
7.3050,0.1648220085,17.30050053,1075.346739
7.3100,0.159924678,17.29978409,1075.348799
7.3150,0.154890343,17.29902141,1075.350955
7.3200,0.1496908891,17.29819059,1075.35321
7.3250,0.1443218149,17.29732252,1075.355571
7.3300,0.1387068418,17.29646152,1075.358058
7.3350,0.1328637605,17.29560641,1075.360671
7.3400,0.1267660199,17.29482063,1075.363426
7.3450,0.1204243658,17.29407871,1075.366318
7.3500,0.1138438566,17.29339602,1075.369352
7.3550,0.1069970354,17.2927497,1075.372533
7.3600,0.09988806759,17.29217254,1075.375867
7.3650,0.09247141957,17.29168318,1075.379365
7.3700,0.08474174946,17.29130162,1075.383033
7.3750,0.07665909988,17.29099424,1075.386873
7.3800,0.06822160491,17.29077015,1075.390887
7.3850,0.05942871961,17.29067992,1075.395087
7.3900,0.05025897239,17.29069783,1075.399472
7.3950,0.04068617751,17.29085832,1075.404052
7.4000,0.0306805346,17.29114143,1075.408833
7.4050,0.02017238033,17.29154735,1075.413827
7.4100,0.009202578062,17.29207092,1075.41903
7.4150,-0.002282961388,17.29271735,1075.42445
7.4200,-0.01432817578,17.29350301,1075.430098
7.4250,-0.02697510451,17.29438879,1075.435979
7.4300,-0.04020586038,17.29533498,1075.442086
7.4350,-0.05404761853,17.29639859,1075.448429
7.4400,-0.0685236,17.29748261,1075.455006
7.4450,-0.08358268671,17.29860152,1075.461817
7.4500,-0.09926540372,17.29970046,1075.468861
7.4550,-0.1155557917,17.30081373,1075.476146
7.4600,-0.1324325345,17.30185117,1075.483661
7.4650,-0.1498629418,17.30288919,1075.491419
7.4700,-0.1678171423,17.30386085,1075.499412
7.4750,-0.1863001552,17.30477177,1075.507646
7.4800,-0.2052796326,17.30565234,1075.516124
7.4850,-0.2247206431,17.30644907,1075.524839
7.4900,-0.2445641613,17.30718938,1075.533792
7.4950,-0.2648431437,17.30788201,1075.54299
7.5000,-0.2855317059,17.30849336,1075.552431
7.5050,-0.3066221468,17.30906422,1075.562119
7.5100,-0.3280756173,17.30963927,1075.572052
7.5150,-0.3499184667,17.31017532,1075.582233
7.5200,-0.3721313972,17.31073254,1075.592666
7.5250,-0.3946825515,17.31130138,1075.603343
7.5300,-0.4175827325,17.31193951,1075.614271
7.5350,-0.4408635483,17.31262253,1075.625457
7.5400,-0.4644630437,17.31340827,1075.636897
7.5450,-0.4883972797,17.31430793,1075.648593
7.5500,-0.5126771831,17.31528474,1075.660541
7.5550,-0.5373302461,17.31641344,1075.672755
7.5600,-0.5622717806,17.31769402,1075.685222
7.5650,-0.5875176006,17.31912908,1075.69794
7.5700,-0.6130631086,17.32072716,1075.710915
7.5750,-0.6388317542,17.32251297,1075.724136
7.5800,-0.6647963618,17.32448368,1075.737598
7.5850,-0.6909207934,17.32664603,1075.751298
7.5900,-0.7172029684,17.32896672,1075.765234
7.5950,-0.7435448491,17.33150808,1075.779397
7.6000,-0.7699387202,17.33425939,1075.793784
7.6050,-0.7963667314,17.33722439,1075.808392
7.6100,-0.8227602933,17.34043211,1075.823213
7.6150,-0.8490836351,17.34388532,1075.838242
7.6200,-0.8753302694,17.34757135,1075.853476
7.6250,-0.9015033596,17.35149474,1075.868918
7.6300,-0.9275109448,17.35566295,1075.884546
7.6350,-0.953409862,17.36004405,1075.900363
7.6400,-0.979093685,17.3646204,1075.916344
7.6450,-1.004615325,17.36940399,1075.932498
7.6500,-1.029975031,17.37435781,1075.948818
7.6550,-1.055183108,17.37953036,1075.965305
7.6600,-1.080202562,17.38485039,1075.981943
7.6650,-1.105035207,17.39029848,1075.998721
7.6700,-1.129654605,17.39583933,1076.015632
7.6750,-1.154035215,17.40148983,1076.032669
7.6800,-1.178160793,17.40721969,1076.049827
7.6850,-1.202068034,17.41298041,1076.067102
7.6900,-1.225717785,17.41875184,1076.084488
7.6950,-1.249108012,17.42448255,1076.101982
7.7000,-1.272240776,17.43015194,1076.119575
7.7050,-1.295074428,17.43570207,1076.137251
7.7100,-1.317635054,17.44116188,1076.155027
7.7150,-1.339863494,17.44648073,1076.172884
7.7200,-1.361786368,17.45165005,1076.190822
7.7250,-1.383373033,17.45668135,1076.208842
7.7300,-1.40463002,17.46158965,1076.226947
7.7350,-1.425495688,17.46631819,1076.245121
7.7400,-1.445972523,17.47091327,1076.263368
7.7450,-1.466113414,17.47537654,1076.281695
7.7500,-1.485907703,17.47969145,1076.300097
7.7550,-1.505427554,17.48388514,1076.318587
7.7600,-1.524665696,17.48795811,1076.337148
7.7650,-1.543659071,17.49191335,1076.355785
7.7700,-1.562465589,17.49572198,1076.374498
7.7750,-1.581057746,17.49937013,1076.393278
7.7800,-1.599475342,17.50287809,1076.412137
7.7850,-1.617732736,17.50625934,1076.431072
7.7900,-1.635882531,17.50955871,1076.450092
7.7950,-1.653873351,17.51276247,1076.469181
7.8000,-1.671750627,17.51589915,1076.488347
7.8050,-1.689512133,17.51896509,1076.507588
7.8100,-1.707217078,17.52196931,1076.526909
7.8150,-1.724831699,17.52491173,1076.546302
7.8200,-1.742384308,17.52778469,1076.565771
7.8250,-1.759883616,17.53062624,1076.585322
7.8300,-1.777297591,17.53339845,1076.604947
7.8350,-1.794619359,17.53616172,1076.624648
7.8400,-1.811800257,17.53891581,1076.644416
7.8450,-1.828814807,17.54167513,1076.664248
7.8500,-1.84561964,17.54450371,1076.684147
7.8550,-1.862169714,17.54736627,1076.704105
7.8600,-1.878466132,17.55032066,1076.724125
7.8650,-1.894441686,17.55340362,1076.744205
7.8700,-1.910126864,17.55662188,1076.764349
7.8750,-1.925448112,17.56002464,1076.784544
7.8800,-1.940431391,17.56358538,1076.804802
7.8850,-1.955094458,17.56736054,1076.825122
7.8900,-1.969395814,17.57138528,1076.845502
7.8950,-1.983394904,17.57566459,1076.865947
7.9000,-1.997070747,17.58017663,1076.886449
7.9050,-2.010401219,17.58497588,1076.907011
7.9100,-2.023427226,17.59002532,1076.927635
7.9150,-2.036144178,17.59535541,1076.948322
7.9200,-2.048603529,17.60094828,1076.969081
7.9250,-2.060749236,17.60686409,1076.989899
7.9300,-2.072612073,17.61306569,1077.010786
7.9350,-2.084172634,17.61956763,1077.031734
7.9400,-2.095532371,17.62633681,1077.052763
7.9450,-2.106634576,17.63334931,1077.073861
7.9500,-2.117543771,17.6406342,1077.095042
7.9550,-2.128207178,17.64811081,1077.116288
7.9600,-2.138684615,17.65581964,1077.137613
7.9650,-2.148997362,17.66369889,1077.159026
7.9700,-2.15914696,17.67177799,1077.180516
7.9750,-2.1691552,17.67999565,1077.202101
7.9800,-2.179064215,17.68829438,1077.223771
7.9850,-2.188885123,17.69669565,1077.24553
7.9900,-2.198623488,17.70519342,1077.267371
7.9950,-2.208274788,17.71378651,1077.289299
8.0000,-2.2178871,17.72243274,1077.311323
8.0050,-2.227471517,17.73117429,1077.333446
8.0100,-2.237085546,17.73994729,1077.35566
8.0150,-2.246775096,17.74876875,1077.377985
8.0200,-2.256523556,17.75761155,1077.400415
8.0250,-2.266415117,17.76646714,1077.422956
8.0300,-2.276455926,17.77533281,1077.445612
8.0350,-2.286724746,17.78420471,1077.468395
8.0400,-2.297228762,17.79307622,1077.491298
8.0450,-2.307983475,17.80194631,1077.514323
8.0500,-2.318987391,17.81086158,1077.537474
8.0550,-2.330177234,17.81981234,1077.560751
8.0600,-2.341589867,17.82878691,1077.584174
8.0650,-2.353212149,17.83780664,1077.607729
8.0700,-2.36503912,17.84691917,1077.631423
8.0750,-2.377071529,17.85611872,1077.655253
8.0800,-2.389327303,17.86536789,1077.679213
8.0850,-2.401801946,17.8747175,1077.703307
8.0900,-2.414443425,17.88411382,1077.727513
8.0950,-2.427310008,17.89359368,1077.751853
8.1000,-2.440366335,17.90314405,1077.776305
8.1050,-2.453598993,17.91275567,1077.800869
8.1100,-2.466964302,17.92242463,1077.825547
8.1150,-2.480462262,17.93215958,1077.850336
8.1200,-2.494051735,17.94197536,1077.875213
8.1250,-2.507665774,17.95180679,1077.900152
8.1300,-2.521316349,17.96171949,1077.925178
8.1350,-2.534958922,17.97167088,1077.950266
8.1400,-2.548614828,17.98167883,1077.975429
8.1450,-2.562291874,17.99170576,1078.000662
8.1500,-2.575983256,18.00174575,1078.025953
8.1550,-2.58966513,18.01181789,1078.051308
8.1600,-2.603284625,18.02192059,1078.076725
8.1650,-2.616856109,18.03203036,1078.102189
8.1700,-2.630269003,18.0421873,1078.127696
8.1750,-2.643596377,18.05234058,1078.153247
8.1800,-2.656802023,18.06255879,1078.178836
8.1850,-2.669866107,18.07281116,1078.204464
8.1900,-2.682809296,18.08308469,1078.230127
8.1950,-2.69556838,18.09338732,1078.255817
8.2000,-2.70815868,18.10372052,1078.281544
8.2050,-2.720598091,18.1140484,1078.307301
8.2100,-2.732837532,18.12442998,1078.333089
8.2150,-2.744884689,18.13480494,1078.358896
8.2200,-2.756730137,18.14516134,1078.384718
8.2250,-2.768440126,18.15546931,1078.410566
8.2300,-2.779979425,18.16572602,1078.436425
8.2350,-2.791368374,18.17593148,1078.462294
8.2400,-2.802590111,18.18609539,1078.488179
8.2450,-2.813670623,18.19622698,1078.514078
8.2500,-2.82459179,18.20628306,1078.539984
8.2550,-2.835423649,18.21630664,1078.565925
8.2600,-2.846113092,18.22630236,1078.591893
8.2650,-2.856641341,18.23625133,1078.617877
8.2700,-2.867001289,18.24617645,1078.643891
8.2750,-2.877191353,18.25603796,1078.669918
8.2800,-2.887214574,18.26588095,1078.695981
8.2850,-2.897075218,18.27568694,1078.722072
8.2900,-2.9067823,18.2854007,1078.748191
8.2950,-2.9164561,18.29504593,1078.774367
8.3000,-2.926041813,18.30465894,1078.800583
8.3050,-2.935628685,18.31414137,1078.826845
8.3100,-2.945253346,18.3235262,1078.853153
8.3150,-2.95490824,18.33279466,1078.879512
8.3200,-2.964606541,18.34197468,1078.905927
8.3250,-2.974305234,18.35107832,1078.932383
8.3300,-2.984044863,18.36009987,1078.958883
8.3350,-2.993838532,18.36902496,1078.985436
8.3400,-3.003711108,18.37781753,1079.012023
8.3450,-3.013627847,18.38646206,1079.038636
8.3500,-3.023610309,18.3949474,1079.065284
8.3550,-3.033719012,18.40321669,1079.091963
8.3600,-3.043917104,18.41138581,1079.118686
8.3650,-3.054211254,18.41937823,1079.145438
8.3700,-3.06457887,18.4272422,1079.172211
8.3750,-3.075073686,18.43497469,1079.19901
8.3800,-3.085688225,18.44261053,1079.225843
8.3850,-3.096465625,18.45010895,1079.252709
8.3900,-3.107409795,18.45750523,1079.279603
8.3950,-3.118487635,18.46483151,1079.306534
8.4000,-3.129699018,18.47209387,1079.333501
8.4050,-3.140975856,18.4793127,1079.360493
8.4100,-3.152331722,18.48650094,1079.387503
8.4150,-3.163780432,18.49368723,1079.414538
8.4200,-3.175301855,18.50085894,1079.441609
8.4250,-3.186948031,18.50805667,1079.468734
8.4300,-3.198722829,18.51525258,1079.495883
8.4350,-3.21060938,18.52244842,1079.523066
8.4400,-3.222620337,18.529614,1079.550278
8.4450,-3.234748561,18.53675745,1079.577521
8.4500,-3.2469505,18.54389371,1079.604792
8.4550,-3.259225995,18.55102984,1079.632083
8.4600,-3.271586288,18.55814246,1079.659392
8.4650,-3.283985967,18.56525959,1079.686715
8.4700,-3.29644149,18.57243938,1079.714072
8.4750,-3.3089509,18.5796978,1079.741469
8.4800,-3.32143153,18.58706537,1079.768897
8.4850,-3.333836627,18.59457254,1079.79635
8.4900,-3.346125274,18.6022484,1079.82383
8.4950,-3.358304147,18.61007494,1079.851336
8.5000,-3.370376593,18.61808377,1079.878881
8.5050,-3.382286642,18.6263283,1079.906467
8.5100,-3.394036914,18.63477827,1079.934085
8.5150,-3.405632631,18.64347938,1079.96176
8.5200,-3.417081328,18.65247172,1079.989488
8.5250,-3.428314114,18.66171991,1080.017241
8.5300,-3.439386609,18.67119234,1080.045021
8.5350,-3.450280244,18.68088313,1080.072838
8.5400,-3.461000594,18.69073794,1080.100664
8.5450,-3.471564159,18.70071394,1080.1285
8.5500,-3.481962971,18.71074626,1080.156322
8.5550,-3.492170726,18.72076934,1080.184102
8.5600,-3.502165578,18.73074082,1080.211828
8.5650,-3.512008803,18.74061898,1080.239511
8.5700,-3.521696976,18.7503292,1080.267116
8.5750,-3.531248106,18.75991262,1080.294663
8.5800,-3.540675187,18.76937183,1080.322152
8.5850,-3.549968668,18.77865963,1080.349571
8.5900,-3.559164524,18.78777125,1080.376925
8.5950,-3.5681455,18.79667248,1080.404171
8.6000,-3.576921212,18.80534998,1080.431307
8.6050,-3.585434518,18.81382425,1080.458337
8.6100,-3.593676754,18.82212998,1080.485258
8.6150,-3.601639381,18.83028638,1080.512061
8.6200,-3.609336877,18.83827519,1080.538753
8.6250,-3.616779508,18.84613074,1080.565358
8.6300,-3.623975938,18.85388768,1080.591881
8.6350,-3.630915258,18.86154462,1080.618316
8.6400,-3.637559618,18.869144,1080.644686
8.6450,-3.643943375,18.87662556,1080.670958
8.6500,-3.650127096,18.88398291,1080.697166
8.6550,-3.65610077,18.89119848,1080.723294
8.6600,-3.6619492,18.89818642,1080.749334
8.6650,-3.66771302,18.90496912,1080.775309
8.6700,-3.673406836,18.91147108,1080.801224
8.6750,-3.679021743,18.91770715,1080.827079
8.6800,-3.684555163,18.9236483,1080.852849
8.6850,-3.689991188,18.92931352,1080.878545
8.6900,-3.695355808,18.93473477,1080.90418
8.6950,-3.70068593,18.93988496,1080.929747
8.7000,-3.706063046,18.94479828,1080.95528
8.7050,-3.711513695,18.94950806,1080.980789
8.7100,-3.717056436,18.95404247,1081.006287
8.7150,-3.722625808,18.95838944,1081.031747
8.7200,-3.728227495,18.96255929,1081.057172
8.7250,-3.733828413,18.96654831,1081.082545
8.7300,-3.739431335,18.97034151,1081.107865
8.7350,-3.745089922,18.97397205,1081.133151
8.7400,-3.750857746,18.97742209,1081.158391
8.7450,-3.756792023,18.98077265,1081.183624
8.7500,-3.762913845,18.9840065,1081.208851
8.7550,-3.769293066,18.98718378,1081.234101
8.7600,-3.775895866,18.99030994,1081.259377
8.7650,-3.782727555,18.99340736,1081.284677
8.7700,-3.789820307,18.99643682,1081.309991
8.7750,-3.797094719,18.99948918,1081.335321
8.7800,-3.804568812,19.00255368,1081.360677
8.7850,-3.812285723,19.00566665,1081.386065
8.7900,-3.820230043,19.0088264,1081.411496
8.7950,-3.828381761,19.01211395,1081.436973
8.8000,-3.836775235,19.01553152,1081.462511
8.8050,-3.845440075,19.01906935,1081.488114
8.8100,-3.854318285,19.02274979,1081.513776
8.8150,-3.863379499,19.02655995,1081.539476
8.8200,-3.872607061,19.03049548,1081.565213
8.8250,-3.882023739,19.03458856,1081.59102
8.8300,-3.891527939,19.03882001,1081.616866
8.8350,-3.901131238,19.04321459,1081.64276
8.8400,-3.910805765,19.0477696,1081.668696
8.8450,-3.920456627,19.0525202,1081.694661
8.8500,-3.930028678,19.05748953,1081.720645
8.8550,-3.939510277,19.06262571,1081.74663
8.8600,-3.948940033,19.06790856,1081.772619
8.8650,-3.95824342,19.07335626,1081.798572
8.8700,-3.967456248,19.07892127,1081.824499
8.8750,-3.976578197,19.0845803,1081.850391
8.8800,-3.985591303,19.09032171,1081.876225
8.8850,-3.994496617,19.09611951,1081.901981
8.8900,-4.00327162,19.10200157,1081.927665
8.8950,-4.01193069,19.10795086,1081.95327
8.9000,-4.020516336,19.11399046,1081.978823
8.9050,-4.028976153,19.12017925,1082.004302
8.9100,-4.037275793,19.12649293,1082.029705
8.9150,-4.045428235,19.13296978,1082.055036
8.9200,-4.053383906,19.13962904,1082.080279
8.9250,-4.061117356,19.14639011,1082.105379
8.9300,-4.06859731,19.15324272,1082.130332
8.9350,-4.075833928,19.16018604,1082.155144
8.9400,-4.082876114,19.16723032,1082.179824
8.9450,-4.089714529,19.1743643,1082.204389
8.9500,-4.096282289,19.18157661,1082.22879
8.9550,-4.102562723,19.18888728,1082.25302
8.9600,-4.108490869,19.19630994,1082.277076
8.9650,-4.11408655,19.20377882,1082.300942
8.9700,-4.119347252,19.2113279,1082.324617
8.9750,-4.124271706,19.21892101,1082.348087
8.9800,-4.128847375,19.226586,1082.371358
8.9850,-4.133135311,19.23428681,1082.394439
8.9900,-4.137105003,19.24198211,1082.417323
8.9950,-4.14073728,19.24969552,1082.439998
9.0000,-4.144020437,19.25735759,1082.462421
9.0050,-4.147022359,19.26499364,1082.484628
9.0100,-4.149777411,19.27254745,1082.506614
9.0150,-4.152379157,19.28007358,1082.528435
9.0200,-4.154873647,19.28759697,1082.550112
9.0250,-4.157301021,19.29515453,1082.571674
9.0300,-4.159679294,19.30275833,1082.593144
9.0350,-4.162009245,19.31039942,1082.614506
9.0400,-4.164256014,19.31805278,1082.63575
9.0450,-4.166403319,19.32570305,1082.656869
9.0500,-4.168482949,19.33335787,1082.677861
9.0550,-4.17047963,19.34097099,1082.698711
9.0600,-4.172443333,19.34854653,1082.71943
9.0650,-4.174439647,19.35604768,1082.74004
9.0700,-4.176448877,19.36348502,1082.760533
9.0750,-4.178535184,19.37081692,1082.780918
9.0800,-4.180700549,19.37802982,1082.801198
9.0850,-4.182905964,19.38518002,1082.821398
9.0900,-4.18509205,19.39230098,1082.841499
9.0950,-4.187274805,19.39933942,1082.86149
9.1000,-4.189348603,19.40634523,1082.881349
9.1050,-4.191305648,19.41327938,1082.901056
9.1100,-4.193215811,19.42016019,1082.920644
9.1150,-4.195070051,19.42698179,1082.940103
9.1200,-4.196839304,19.43372579,1082.959425
9.1250,-4.198511274,19.440364,1082.978598
9.1300,-4.200101238,19.44696723,1082.997661
9.1350,-4.201617966,19.45353202,1083.016597
9.1400,-4.203015854,19.46006697,1083.035398
9.1450,-4.204317633,19.46655352,1083.05407
9.1500,-4.205560416,19.47298081,1083.072608
9.1550,-4.206757729,19.47938818,1083.091032
9.1600,-4.207908552,19.48570993,1083.109315
9.1650,-4.209049143,19.4919831,1083.127486
9.1700,-4.210171686,19.49820736,1083.145533
9.1750,-4.211259205,19.50440757,1083.163452
9.1800,-4.212228293,19.51056452,1083.181203
9.1850,-4.213117487,19.51671063,1083.19883
9.1900,-4.213895506,19.52281702,1083.216286
9.1950,-4.214606281,19.52888426,1083.233602
9.2000,-4.215219466,19.53493896,1083.250742
9.2050,-4.215753517,19.5409609,1083.267703
9.2100,-4.216162649,19.54696104,1083.284475
9.2150,-4.216414293,19.55290265,1083.301044
9.2200,-4.216502617,19.55878048,1083.317406
9.2250,-4.216410845,19.56465179,1083.333579
9.2300,-4.21613213,19.5704684,1083.349539
9.2350,-4.215616283,19.57624791,1083.365267
9.2400,-4.214806654,19.58197466,1083.380738
9.2450,-4.213734893,19.58765807,1083.395963
9.2500,-4.212428977,19.59325475,1083.41094
9.2550,-4.210927205,19.59875417,1083.42568
9.2600,-4.20928644,19.60411936,1083.440185
9.2650,-4.207471272,19.60937014,1083.454454
9.2700,-4.205532172,19.614456,1083.468494
9.2750,-4.203480567,19.61937513,1083.482314
9.2800,-4.201379317,19.62408022,1083.495925
9.2850,-4.199206078,19.62859048,1083.50932
9.2900,-4.197009821,19.63291154,1083.522505
9.2950,-4.194785087,19.63702851,1083.535495
9.3000,-4.192530496,19.64100251,1083.548324
9.3050,-4.190246872,19.64479965,1083.560979
9.3100,-4.187939644,19.64844379,1083.573478
9.3150,-4.185606576,19.65191836,1083.585814
9.3200,-4.183209447,19.65522162,1083.597969
9.3250,-4.180740713,19.65836616,1083.609958
9.3300,-4.178232904,19.66132795,1083.621786
9.3350,-4.175679129,19.66414374,1083.633478
9.3400,-4.173099201,19.66685421,1083.645069
9.3450,-4.170450736,19.66942065,1083.656514
9.3500,-4.167763837,19.67186635,1083.667869
9.3550,-4.164991034,19.67416346,1083.679115
9.3600,-4.162128899,19.6763644,1083.690259
9.3650,-4.159124701,19.67850015,1083.701311
9.3700,-4.15600206,19.68058403,1083.712285
9.3750,-4.152691647,19.68261835,1083.723176
9.3800,-4.149259439,19.68463959,1083.734008
9.3850,-4.145708907,19.6865846,1083.744754
9.3900,-4.142074964,19.68847967,1083.755445
9.3950,-4.138407307,19.69033855,1083.766107
9.4000,-4.134723157,19.69214695,1083.776731
9.4050,-4.131078531,19.69397599,1083.787385
9.4100,-4.127409973,19.69582974,1083.798035
9.4150,-4.123728605,19.69776726,1083.808706
9.4200,-4.120017493,19.6998113,1083.819407
9.4250,-4.116264584,19.70202216,1083.83014
9.4300,-4.112492402,19.70436174,1083.840902
9.4350,-4.108648052,19.70683389,1083.851688
9.4400,-4.104763795,19.70944335,1083.8625
9.4450,-4.10083382,19.71217075,1083.873322
9.4500,-4.096822563,19.71502183,1083.884155
9.4550,-4.092761448,19.71796077,1083.894992
9.4600,-4.088649351,19.72103787,1083.905839
9.4650,-4.084462573,19.72417595,1083.916658
9.4700,-4.080224683,19.72739439,1083.927461
9.4750,-4.075938634,19.73063753,1083.938206
9.4800,-4.071715472,19.73387514,1083.948946
9.4850,-4.067510149,19.73712993,1083.959639
9.4900,-4.063335079,19.74040103,1083.970322
9.4950,-4.059184863,19.74373203,1083.98097
9.5000,-4.054997119,19.74711333,1083.991596
9.5050,-4.050794911,19.75056011,1084.002204
9.5100,-4.046561341,19.75404449,1084.012776
9.5150,-4.0423202,19.75762253,1084.023337
9.5200,-4.038074324,19.76127166,1084.033879
9.5250,-4.033810406,19.7649986,1084.044412
9.5300,-4.029547002,19.76879652,1084.054945
9.5350,-4.02529272,19.7726499,1084.065477
9.5400,-4.021099844,19.77653506,1084.076025
9.5450,-4.016917969,19.78046226,1084.086574
9.5500,-4.012749406,19.78438483,1084.097111
9.5550,-4.008558088,19.78828499,1084.107614
9.5600,-4.004324563,19.79215142,1084.118086
9.5650,-4.000082466,19.79593228,1084.128507
9.5700,-3.995801529,19.79958815,1084.138848
9.5750,-3.991517579,19.80312843,1084.149129
9.5800,-3.987156198,19.80654241,1084.159316
9.5850,-3.982726664,19.80981823,1084.169392
9.5900,-3.978216052,19.81294115,1084.179362
9.5950,-3.973672941,19.81587894,1084.189214
9.6000,-3.969088189,19.8186216,1084.19894
9.6050,-3.964423537,19.82115885,1084.208524
9.6100,-3.959679618,19.82347349,1084.217932
9.6150,-3.954869069,19.82552746,1084.227166
9.6200,-3.95001679,19.82733388,1084.236233
9.6250,-3.945097805,19.82886672,1084.245101
9.6300,-3.940128587,19.83017407,1084.253811
9.6350,-3.935074831,19.83124119,1084.262347
9.6400,-3.929925565,19.83208618,1084.270712
9.6450,-3.924733335,19.83274663,1084.278944
9.6500,-3.919448194,19.83321258,1084.287018
9.6550,-3.914088262,19.8335828,1084.294966
9.6600,-3.908619986,19.83382947,1084.302784
9.6650,-3.903055938,19.8339782,1084.310476
9.6700,-3.897364856,19.83399796,1084.318026
9.6750,-3.891568802,19.83391359,1084.325447
9.6800,-3.885617643,19.83369995,1084.332716
9.6850,-3.879537962,19.83338449,1084.339865
9.6900,-3.873385438,19.83290475,1084.346879
9.6950,-3.867143184,19.8323174,1084.353787
9.7000,-3.860816033,19.83159569,1084.360576
9.7050,-3.854335941,19.83077055,1084.367229
9.7100,-3.847784673,19.82982192,1084.373785
9.7150,-3.841178078,19.82877082,1084.380258
9.7200,-3.834502194,19.82763675,1084.386644
9.7250,-3.827753796,19.82642669,1084.392945
9.7300,-3.820925377,19.82517499,1084.399164
9.7350,-3.814032587,19.82388283,1084.405309
9.7400,-3.807076159,19.82258118,1084.411394
9.7450,-3.800080136,19.82126698,1084.417423
9.7500,-3.793080224,19.81996166,1084.423419
9.7550,-3.786046062,19.81867578,1084.429371
9.7600,-3.778918672,19.81741545,1084.435276
9.7650,-3.771698119,19.81619253,1084.441142
9.7700,-3.764379841,19.81498732,1084.446963
9.7750,-3.756935557,19.81381702,1084.452757
9.7800,-3.749353423,19.81270338,1084.458513
9.7850,-3.74164732,19.81158546,1084.464224
9.7900,-3.733849729,19.8104843,1084.469904
9.7950,-3.725903292,19.80938393,1084.47556
9.8000,-3.717872879,19.80828116,1084.481206
9.8050,-3.709735738,19.80719491,1084.486869
9.8100,-3.701514386,19.80615727,1084.49257
9.8150,-3.693163339,19.80513762,1084.498287
9.8200,-3.684708792,19.8041432,1084.504051
9.8250,-3.67621719,19.80317401,1084.509876
9.8300,-3.667664385,19.8022315,1084.515762
9.8350,-3.659123341,19.80131164,1084.521737
9.8400,-3.650556333,19.80043424,1084.527799
9.8450,-3.642009001,19.79958834,1084.533968
9.8500,-3.633451403,19.79882057,1084.54026
9.8550,-3.624968103,19.79809236,1084.5467
9.8600,-3.616622807,19.79738775,1084.553286
9.8650,-3.608440406,19.79677605,1084.560063
9.8700,-3.600470699,19.79626009,1084.567047
9.8750,-3.592720921,19.79582641,1084.574225
9.8800,-3.585281273,19.79549425,1084.581629
9.8850,-3.578138238,19.79529506,1084.589271
9.8900,-3.571327837,19.7951868,1084.597119
9.8950,-3.56484078,19.79521232,1084.605174
9.9000,-3.558688114,19.79539243,1084.613439
9.9050,-3.552930465,19.79569542,1084.621905
9.9100,-3.547576762,19.79615569,1084.630581
9.9150,-3.54263889,19.79679886,1084.639456
9.9200,-3.538113588,19.79758476,1084.648511
9.9250,-3.534082026,19.7985388,1084.657775
9.9300,-3.53050593,19.79966746,1084.667205
9.9350,-3.527401244,19.80095706,1084.676778
9.9400,-3.524763178,19.80242517,1084.686487
9.9450,-3.522567525,19.80408282,1084.696317
9.9500,-3.520843208,19.80588956,1084.706239
9.9550,-3.519552626,19.80786843,1084.71625
9.9600,-3.518732486,19.81003306,1084.726351
9.9650,-3.518337108,19.8123894,1084.736516
9.9700,-3.51839127,19.81497671,1084.746746
9.9750,-3.518863016,19.81778416,1084.757018
9.9800,-3.519738506,19.82083581,1084.767325
9.9850,-3.520993905,19.82411193,1084.777639
9.9900,-3.522590977,19.82767557,1084.787981
9.9950,-3.52450016,19.83150422,1084.798305
10.0000,-3.526664317,19.83563056,1084.808612
10.0050,-3.529103013,19.8400021,1084.818866
10.0100,-3.531761406,19.84463113,1084.829051
10.0150,-3.534602334,19.84951455,1084.839146
10.0200,-3.537638454,19.85462524,1084.849143
10.0250,-3.540827787,19.85995545,1084.859015
10.0300,-3.544128845,19.86551097,1084.868747
10.0350,-3.547545583,19.87122298,1084.878294
10.0400,-3.551025138,19.87705147,1084.88764
10.0450,-3.554549476,19.88300877,1084.896765
10.0500,-3.55811,19.88904574,1084.905639
10.0550,-3.561652396,19.89512621,1084.914237
10.0600,-3.565215608,19.90122778,1084.922546
10.0650,-3.568809661,19.90732891,1084.930567
10.0700,-3.572396482,19.91342894,1084.938296
10.0750,-3.575995504,19.91948194,1084.945716
10.0800,-3.57964047,19.92543891,1084.952812
10.0850,-3.583286441,19.93131581,1084.959583
10.0900,-3.586940749,19.93706298,1084.966004
10.0950,-3.590636286,19.94271046,1084.972106
10.1000,-3.594343161,19.94819928,1084.977853
10.1050,-3.598055936,19.95350638,1084.983232
10.1100,-3.601791026,19.95864679,1084.988256
10.1150,-3.605573116,19.96358779,1084.992926
10.1200,-3.609369009,19.9683511,1084.997227
10.1250,-3.613139656,19.97292549,1085.001147
10.1300,-3.616932459,19.97729525,1085.004703
10.1350,-3.620675219,19.98149289,1085.00788
10.1400,-3.624399033,19.98548281,1085.010682
10.1450,-3.628117162,19.98929094,1085.013128
10.1500,-3.631880859,19.99291708,1085.015245
10.1550,-3.635629224,19.99645052,1085.017036
10.1600,-3.639329241,19.99987615,1085.018488
10.1650,-3.642966628,20.00317,1085.019585
10.1700,-3.646564933,20.00634842,1085.020337
10.1750,-3.650115547,20.0094406,1085.020747
10.1800,-3.653585096,20.01246154,1085.020819
10.1850,-3.657022668,20.01537804,1085.020552
10.1900,-3.660431941,20.01821236,1085.019969
10.1950,-3.663847996,20.02098673,1085.019096
10.2000,-3.667232776,20.02366443,1085.017894
10.2050,-3.670607809,20.02630971,1085.016406
10.2100,-3.673978188,20.02890585,1085.01463
10.2150,-3.677298576,20.03148954,1085.012569
10.2200,-3.68062386,20.03408654,1085.010258
10.2250,-3.683907625,20.03670769,1085.007682
10.2300,-3.687135928,20.03935365,1085.004842
10.2350,-3.690302317,20.04207644,1085.001768
10.2400,-3.693442555,20.04488072,1084.998474
10.2450,-3.69651718,20.04777618,1084.994959
10.2500,-3.699508,20.05081111,1084.991237
10.2550,-3.702423594,20.05392806,1084.987287
10.2600,-3.705246873,20.05716497,1084.983124
10.2650,-3.70799337,20.06051923,1084.978754
10.2700,-3.71063379,20.06400307,1084.974183
10.2750,-3.713205293,20.06763682,1084.969437
10.2800,-3.715670579,20.07142632,1084.964494
10.2850,-3.718035352,20.07535547,1084.959355
10.2900,-3.720265342,20.07945254,1084.954015
10.2950,-3.722365216,20.08372123,1084.948491
10.3000,-3.724376026,20.08814955,1084.94279
10.3050,-3.726318422,20.09272999,1084.936934
10.3100,-3.72821189,20.09749294,1084.930936
10.3150,-3.730038196,20.10235213,1084.924758
10.3200,-3.731796624,20.1073858,1084.91842
10.3250,-3.733554358,20.11254728,1084.911945
10.3300,-3.735312251,20.11780946,1084.905322
10.3350,-3.737025883,20.12321726,1084.898564
10.3400,-3.738749457,20.12873441,1084.891659
10.3450,-3.740460745,20.13433293,1084.884604
10.3500,-3.742188909,20.14003004,1084.877432
10.3550,-3.74394205,20.14582551,1084.870134
10.3600,-3.745701742,20.15169669,1084.862711
10.3650,-3.747498974,20.15763498,1084.855177
10.3700,-3.749340128,20.16360336,1084.847517
10.3750,-3.751229622,20.16962192,1084.839754
10.3800,-3.753133853,20.17569102,1084.831885
10.3850,-3.755101797,20.18178987,1084.823924
10.3900,-3.757096115,20.18794211,1084.815882
10.3950,-3.759118057,20.19406527,1084.807704
10.4000,-3.761139411,20.20016839,1084.799394
10.4050,-3.763219026,20.2062385,1084.79097
10.4100,-3.765318531,20.21222554,1084.782413
10.4150,-3.767458617,20.21814119,1084.773733
10.4200,-3.76966984,20.22395494,1084.764948
10.4250,-3.771960951,20.22967498,1084.756064
10.4300,-3.774285918,20.2352984,1084.747067
10.4350,-3.776665565,20.24079194,1084.737966
10.4400,-3.779108099,20.24621691,1084.728792
10.4450,-3.781610763,20.25149801,1084.719517
10.4500,-3.784159755,20.25667724,1084.710155
10.4550,-3.786747264,20.26170404,1084.700694
10.4600,-3.789386152,20.26658938,1084.691155
10.4650,-3.792040432,20.27133079,1084.681531
10.4700,-3.794703821,20.27593642,1084.671837
10.4750,-3.79736086,20.28036404,1084.662062
10.4800,-3.800060688,20.28461085,1084.65223
10.4850,-3.802766478,20.28869307,1084.642342
10.4900,-3.805465468,20.29263416,1084.632401
10.4950,-3.808135266,20.29640785,1084.622403
10.5000,-3.810842841,20.30002,1084.612384
10.5050,-3.813533909,20.30350413,1084.602344
10.5100,-3.81620185,20.30685212,1084.592282
10.5150,-3.818852808,20.31006343,1084.582211
10.5200,-3.82145286,20.31316975,1084.572115
10.5250,-3.824011871,20.31613063,1084.56199
10.5300,-3.826570863,20.31895822,1084.551839
10.5350,-3.829151375,20.32158897,1084.541666
10.5400,-3.831665227,20.32406267,1084.531437
10.5450,-3.834154104,20.32637489,1084.521158
10.5500,-3.83661622,20.32850939,1084.510817
10.5550,-3.839054142,20.33050087,1084.500422
10.5600,-3.841485887,20.33231615,1084.489964
10.5650,-3.843912289,20.33399246,1084.479458
10.5700,-3.846315346,20.33553351,1084.468889
10.5750,-3.848709025,20.33696506,1084.458278
10.5800,-3.851127201,20.33831186,1084.447654
10.5850,-3.853545686,20.3395738,1084.436997
10.5900,-3.856014556,20.34074849,1084.426329
10.5950,-3.858453991,20.34186172,1084.415617
10.6000,-3.860888416,20.34293322,1084.404886
10.6050,-3.863265489,20.34396942,1084.394101
10.6100,-3.865551389,20.3449301,1084.383241
10.6150,-3.867798968,20.34585604,1084.372324
10.6200,-3.869985048,20.34668278,1084.36133
10.6250,-3.872121627,20.34740762,1084.350254
10.6300,-3.874254147,20.34804346,1084.339117
10.6350,-3.87638386,20.34857047,1084.327912
10.6400,-3.878531167,20.3489922,1084.316641
10.6450,-3.880667508,20.3493631,1084.305317
10.6500,-3.882824423,20.34962438,1084.293919
10.6550,-3.884997152,20.3498074,1084.282456
10.6600,-3.887198587,20.34987306,1084.270923
10.6650,-3.889404337,20.34988303,1084.259317
10.6700,-3.891640266,20.34980865,1084.247628
10.6750,-3.893898537,20.34963357,1084.235831
10.6800,-3.896196119,20.34933827,1084.223925
10.6850,-3.898500032,20.34893505,1084.211903
10.6900,-3.900804734,20.34843998,1084.199767
10.6950,-3.903166159,20.34786737,1084.187549
10.7000,-3.905586926,20.34724758,1084.175242
10.7050,-3.908015828,20.34655726,1084.162823
10.7100,-3.910504956,20.34581917,1084.150316
10.7150,-3.91300089,20.34503094,1084.13771
10.7200,-3.915501361,20.34421246,1084.124991
10.7250,-3.918015297,20.34334887,1084.112171
10.7300,-3.92055209,20.34242902,1084.099246
10.7350,-3.923085954,20.34145259,1084.086195
10.7400,-3.925618325,20.34037208,1084.073
10.7450,-3.928144462,20.33920134,1084.059659
10.7500,-3.930686333,20.33790496,1084.046163
10.7550,-3.933304807,20.3364238,1084.032516
10.7600,-3.935965523,20.33480213,1084.018719
10.7650,-3.938688451,20.33300717,1084.004761
10.7700,-3.941458192,20.33102052,1083.990619
10.7750,-3.944273364,20.3288867,1083.976319
10.7800,-3.947101622,20.32662155,1083.961846
10.7850,-3.949974614,20.32423923,1083.947222
10.7900,-3.952862736,20.32173127,1083.932446
10.7950,-3.955780725,20.31911305,1083.917513
10.8000,-3.958695591,20.31642054,1083.902423
10.8050,-3.961598928,20.31359517,1083.887148
10.8100,-3.964493393,20.31070066,1083.871715
10.8150,-3.96740332,20.30774255,1083.856126
10.8200,-3.970314649,20.30468521,1083.840375
10.8250,-3.9732288,20.30156614,1083.824468
10.8300,-3.976095026,20.29836948,1083.808404
10.8350,-3.978894088,20.29513912,1083.792172
10.8400,-3.98170907,20.29186674,1083.7758
10.8450,-3.984498258,20.28856052,1083.759294
10.8500,-3.987212342,20.28527494,1083.742643
10.8550,-3.989855427,20.28195519,1083.725837
10.8600,-3.992370799,20.27864756,1083.708873
10.8650,-3.994751699,20.27533729,1083.691748
10.8700,-3.997027072,20.27202705,1083.674474
10.8750,-3.999157988,20.26866093,1083.657017
10.8800,-4.00112186,20.26524091,1083.639377
10.8850,-4.002930617,20.26182394,1083.621588
10.8900,-4.004547273,20.25840469,1083.603636
10.8950,-4.006033903,20.25498919,1083.58556
10.9000,-4.007363273,20.25154834,1083.567335
10.9050,-4.008534726,20.24811042,1083.548992
10.9100,-4.009570127,20.24466523,1083.530533
10.9150,-4.010409221,20.24127305,1083.51198
10.9200,-4.011057194,20.23793676,1083.493341
10.9250,-4.01144173,20.23470124,1083.474616
10.9300,-4.011539429,20.2314897,1083.455769
10.9350,-4.011397582,20.22833717,1083.436839
10.9400,-4.010990858,20.22524484,1083.417825
10.9450,-4.010332087,20.222163,1083.39871
10.9500,-4.009378517,20.2190841,1083.379466
10.9550,-4.008139532,20.21601178,1083.36011
10.9600,-4.006674892,20.21290901,1083.340643
10.9650,-4.005010987,20.20971882,1083.321047
10.9700,-4.003167215,20.20642068,1083.301332
10.9750,-4.001183249,20.20299639,1083.281503
10.9800,-3.999075926,20.19944603,1083.261562
10.9850,-3.996906543,20.19576458,1083.241523
10.9900,-3.994700895,20.19195822,1083.22138
10.9950,-3.99246145,20.1880445,1083.201148
11.0000,-3.990181487,20.18403081,1083.180831
11.0050,-3.987859267,20.17994887,1083.160432
11.0100,-3.985479458,20.1758636,1083.139966
11.0150,-3.983066718,20.17174002,1083.119414
11.0200,-3.980667265,20.16760909,1083.098808
11.0250,-3.978216911,20.16345799,1083.078116
11.0300,-3.975757108,20.15932517,1083.057363
11.0350,-3.973318351,20.15518738,1083.036546
11.0400,-3.970860403,20.15105217,1083.015648
11.0450,-3.968379452,20.14692539,1082.994667
11.0500,-3.965848679,20.14285007,1082.973612
11.0550,-3.963249899,20.13882346,1082.952475
11.0600,-3.960587728,20.13484534,1082.931251
11.0650,-3.957907022,20.13095032,1082.909963
11.0700,-3.955159598,20.12718253,1082.888611
11.0750,-3.952381062,20.12352169,1082.867187
11.0800,-3.949587075,20.11992981,1082.845683
11.0850,-3.946691085,20.11646471,1082.824079
11.0900,-3.943735166,20.11311513,1082.802369
11.0950,-3.940705639,20.10983521,1082.78054
11.1000,-3.937586119,20.10663255,1082.758588
11.1050,-3.93440411,20.1035196,1082.736512
11.1100,-3.931152171,20.10046048,1082.714309
11.1150,-3.927832428,20.09747675,1082.691966
11.1200,-3.924427395,20.09458347,1082.669492
11.1250,-3.920979552,20.09179907,1082.646901
11.1300,-3.917469292,20.08912948,1082.624179
11.1350,-3.913881394,20.08660109,1082.601333
11.1400,-3.910199949,20.08418635,1082.578353
11.1450,-3.906393645,20.08192756,1082.555236
11.1500,-3.902488751,20.07977126,1082.531988
11.1550,-3.898450325,20.07775762,1082.508606
11.1600,-3.894273441,20.07586287,1082.485084
11.1650,-3.889950611,20.07407103,1082.4614
11.1700,-3.885456901,20.07235143,1082.437551
11.1750,-3.880790444,20.07068478,1082.413533
11.1800,-3.875965252,20.06904732,1082.389338
11.1850,-3.870962666,20.06741203,1082.364957
11.1900,-3.865813805,20.06574152,1082.340399
11.1950,-3.860484899,20.06400109,1082.315645
11.2000,-3.854986518,20.06220272,1082.290714
11.2050,-3.849294612,20.06033018,1082.265599
11.2100,-3.843383731,20.05839939,1082.240308
11.2150,-3.83724635,20.05638469,1082.214835
11.2200,-3.830865657,20.0542572,1082.189167
11.2250,-3.824279503,20.0520069,1082.163323
11.2300,-3.817512067,20.04967752,1082.13733
11.2350,-3.81052369,20.04721792,1082.111167
11.2400,-3.803312384,20.04458977,1082.084826
11.2450,-3.795936673,20.0417778,1082.058325
11.2500,-3.788371286,20.03882537,1082.031682
11.2550,-3.780624843,20.03564226,1082.004884
11.2600,-3.772729219,20.03230187,1081.977968
11.2650,-3.764640051,20.02876982,1081.950935
11.2700,-3.756359296,20.02511015,1081.923793
11.2750,-3.747930575,20.02128323,1081.896549
11.2800,-3.739326594,20.01732355,1081.869217
11.2850,-3.730537966,20.01322529,1081.841792
11.2900,-3.721565525,20.00893255,1081.814267
11.2950,-3.712381805,20.00440458,1081.786621
11.3000,-3.703020241,19.99965307,1081.75887
11.3050,-3.69352432,19.99465077,1081.731016
11.3100,-3.683883678,19.98937002,1081.703048
11.3150,-3.674128722,19.98386294,1081.674999
11.3200,-3.664234712,19.97812007,1081.646875
11.3250,-3.654203927,19.97215943,1081.618669
11.3300,-3.644026815,19.96601317,1081.590398
11.3350,-3.633691889,19.95973677,1081.562071
11.3400,-3.623234044,19.95334562,1081.533706
11.3450,-3.61258299,19.94688867,1081.505321
11.3500,-3.601774309,19.94034244,1081.476897
11.3550,-3.590735473,19.93379927,1081.448455
11.3600,-3.57951193,19.92724463,1081.419989
11.3650,-3.568047494,19.9206695,1081.391491
11.3700,-3.556388789,19.91404974,1081.362956
11.3750,-3.54455018,19.907381,1081.33439
11.3800,-3.532514207,19.90068084,1081.305796
11.3850,-3.520413427,19.8938744,1081.277184
11.3900,-3.5082332,19.88697341,1081.24856
11.3950,-3.496006149,19.8800255,1081.219955
11.4000,-3.483788711,19.87300905,1081.191357
11.4050,-3.471615064,19.8660169,1081.162815
11.4100,-3.459473584,19.85903594,1081.134309
11.4150,-3.447361301,19.85207777,1081.105856
11.4200,-3.435268746,19.8451821,1081.077456
11.4250,-3.423152795,19.83837581,1081.049118
11.4300,-3.411044063,19.83165061,1081.020845
11.4350,-3.398943621,19.82502216,1080.992633
11.4400,-3.386831508,19.81853685,1080.964498
11.4450,-3.374765283,19.81216395,1080.936439
11.4500,-3.362739914,19.80590945,1080.908461
11.4550,-3.350772837,19.79980274,1080.880566
11.4600,-3.338904889,19.79383886,1080.852769
11.4650,-3.327156019,19.78805551,1080.825088
11.4700,-3.3155765,19.7824502,1080.797537
11.4750,-3.304175095,19.77705745,1080.770117
11.4800,-3.292931181,19.77189668,1080.742827
11.4850,-3.281823788,19.76699406,1080.715671
11.4900,-3.270808156,19.76235571,1080.688636
11.4950,-3.259908449,19.75796143,1080.661716
11.5000,-3.249118171,19.75381746,1080.634899
11.5050,-3.23844078,19.74989193,1080.608166
11.5100,-3.227906618,19.74611901,1080.581504
11.5150,-3.217537418,19.74247353,1080.554904
11.5200,-3.207425491,19.73891038,1080.528367
11.5250,-3.197574248,19.73537413,1080.501869
11.5300,-3.188009943,19.73183786,1080.475411
11.5350,-3.178735698,19.72832839,1080.448993
11.5400,-3.169809253,19.72482489,1080.422617
11.5450,-3.161160302,19.72133903,1080.396284
11.5500,-3.152769356,19.71784433,1080.369991
11.5550,-3.144642766,19.71440368,1080.343741
11.5600,-3.136704262,19.71098321,1080.317502
11.5650,-3.128975943,19.70761285,1080.291278
11.5700,-3.121421716,19.70425939,1080.265071
11.5750,-3.114023053,19.70095789,1080.238889
11.5800,-3.106716439,19.6977024,1080.212729
11.5850,-3.099519911,19.69451865,1080.186587
11.5900,-3.092418078,19.69140755,1080.160468
11.5950,-3.085390898,19.68842423,1080.134397
11.6000,-3.078476661,19.68555522,1080.108376
11.6050,-3.071600601,19.68281604,1080.082409
11.6100,-3.064757499,19.68017357,1080.056494
11.6150,-3.057888482,19.67764028,1080.030627
11.6200,-3.050912974,19.67515992,1080.004786
11.6250,-3.043854289,19.67276707,1079.978992
11.6300,-3.036637628,19.67042972,1079.953223
11.6350,-3.029297429,19.66812023,1079.927496
11.6400,-3.021766334,19.66584902,1079.901802
11.6450,-3.014086842,19.66360382,1079.876136
11.6500,-3.006232418,19.66135903,1079.850496
11.6550,-2.99821487,19.65910206,1079.824874
11.6600,-2.990007211,19.65677491,1079.799262
11.6650,-2.98163211,19.65440518,1079.77367
11.6700,-2.973085956,19.65203027,1079.748107
11.6750,-2.96435706,19.64961467,1079.722567
11.6800,-2.955476218,19.64716601,1079.697047
11.6850,-2.946393982,19.64471528,1079.671561
11.6900,-2.937149483,19.64225219,1079.646102
11.6950,-2.92770657,19.63976252,1079.620658
11.7000,-2.918060084,19.63725856,1079.595235
11.7050,-2.908173775,19.63470718,1079.5698
11.7100,-2.89805873,19.63212264,1079.54437
11.7150,-2.887749972,19.62951002,1079.518942
11.7200,-2.87729601,19.62685394,1079.493527
11.7250,-2.866672706,19.62410972,1079.468111
11.7300,-2.855892124,19.62137905,1079.442732
11.7350,-2.844979636,19.61862614,1079.417373
11.7400,-2.83400814,19.61580779,1079.392039
11.7450,-2.822967301,19.61293028,1079.366722
11.7500,-2.811889971,19.61002429,1079.341436
11.7550,-2.800790937,19.60704457,1079.316169
11.7600,-2.789687312,19.60402081,1079.290915
11.7650,-2.778619145,19.60093565,1079.265682
11.7700,-2.767527136,19.59779433,1079.240444
11.7750,-2.756450821,19.59457823,1079.215205
11.7800,-2.745420306,19.59130636,1079.189956
11.7850,-2.734488948,19.58795158,1079.164702
11.7900,-2.723695671,19.584513,1079.139434
11.7950,-2.713093365,19.58102362,1079.114165
11.8000,-2.702712245,19.57745584,1079.088891
11.8050,-2.692635126,19.57387131,1079.063631
11.8100,-2.68282838,19.57031614,1079.038374
11.8150,-2.673298502,19.56674272,1079.013126
11.8200,-2.663938749,19.56321366,1078.987859
11.8250,-2.654739848,19.55972929,1078.962589
11.8300,-2.645677395,19.55627859,1078.937303
11.8350,-2.636757573,19.5528118,1078.911987
11.8400,-2.627903411,19.54937589,1078.886646
11.8450,-2.619125658,19.54591983,1078.861264
11.8500,-2.610392807,19.5424415,1078.835832
11.8550,-2.601694636,19.53889765,1078.810356
11.8600,-2.592988991,19.53531765,1078.784852
11.8650,-2.584258793,19.53167044,1078.759327
11.8700,-2.575453091,19.52796122,1078.733761
11.8750,-2.566502069,19.52418239,1078.708175
11.8800,-2.557441669,19.52032977,1078.68255
11.8850,-2.54818343,19.51637282,1078.656901
11.8900,-2.538715916,19.51232921,1078.631239
11.8950,-2.528980408,19.50818452,1078.605548
11.9000,-2.518935725,19.50390599,1078.579822
11.9050,-2.508603519,19.49949143,1078.554067
11.9100,-2.497980761,19.49494213,1078.528278
11.9150,-2.487103334,19.49019091,1078.502459
11.9200,-2.476016224,19.48526213,1078.476618
11.9250,-2.464795037,19.48007706,1078.450761
11.9300,-2.453472692,19.47463319,1078.424885
11.9350,-2.442040254,19.46888016,1078.398989
11.9400,-2.43053728,19.46277594,1078.373086
11.9450,-2.419016192,19.45629167,1078.347176
11.9500,-2.407444127,19.44947915,1078.321278
11.9550,-2.395851154,19.4422923,1078.295398
11.9600,-2.384195026,19.43478711,1078.269545
11.9650,-2.372460097,19.42695088,1078.243723
11.9700,-2.360648034,19.41876953,1078.217941
11.9750,-2.348731154,19.4103064,1078.192217
11.9800,-2.336664744,19.40155417,1078.166545
11.9850,-2.324449848,19.39249986,1078.140916
11.9900,-2.312072489,19.38318924,1078.115357
11.9950,-2.299533953,19.37364715,1078.089863
12.0000,-2.286827378,19.36390959,1078.064463
12.0050,-2.273984163,19.35395069,1078.039172
12.0100,-2.261041069,19.34383788,1078.013995
12.0150,-2.247942902,19.33355959,1077.988929
12.0200,-2.234680146,19.32312278,1077.963969
12.0250,-2.221316272,19.31260207,1077.939131
12.0300,-2.207863778,19.30193557,1077.914403
12.0350,-2.194366782,19.29117378,1077.889806
12.0400,-2.180804271,19.28033996,1077.865329
12.0450,-2.167178672,19.26945111,1077.840967
12.0500,-2.153489386,19.25853889,1077.816706
12.0550,-2.139782439,19.24764397,1077.792563
12.0600,-2.126048713,19.23675898,1077.768548
12.0650,-2.112286137,19.22589645,1077.744662
12.0700,-2.098579382,19.21511031,1077.720922
12.0750,-2.084924847,19.20442595,1077.697329
12.0800,-2.071345226,19.19386817,1077.673889
12.0850,-2.057805603,19.18345787,1077.650585
12.0900,-2.044298743,19.17322077,1077.627419
12.0950,-2.030768784,19.1631656,1077.604379
12.1000,-2.01716839,19.15338068,1077.581468
12.1050,-2.003463644,19.14383891,1077.558672
12.1100,-1.989637226,19.1345448,1077.535987
12.1150,-1.975658124,19.12558323,1077.5134
12.1200,-1.961543043,19.116958,1077.490929
12.1250,-1.947232922,19.10868966,1077.468553
12.1300,-1.932669373,19.10080999,1077.446266
12.1350,-1.917772923,19.09335085,1077.424056
12.1400,-1.902533213,19.08627111,1077.401926
12.1450,-1.886922132,19.07959132,1077.379867
12.1500,-1.870915718,19.0733098,1077.35788
12.1550,-1.854494801,19.06741656,1077.335959
12.1600,-1.837628382,19.06185469,1077.31408
12.1650,-1.820280724,19.05663727,1077.292238
12.1700,-1.80246334,19.05174002,1077.270444
12.1750,-1.784153145,19.04709551,1077.248662
12.1800,-1.765336956,19.04267113,1077.226904
12.1850,-1.745965418,19.03841085,1077.205146
12.1900,-1.726088261,19.03429958,1077.183402
12.1950,-1.705722373,19.03027248,1077.161669
12.2000,-1.684882848,19.02628463,1077.139951
12.2050,-1.663595267,19.02227514,1077.118252
12.2100,-1.641887917,19.01819932,1077.096586
12.2150,-1.619835551,19.0140436,1077.074971
12.2200,-1.597477715,19.00973842,1077.053413
12.2250,-1.574796235,19.00531405,1077.031929
12.2300,-1.551862067,19.00071645,1077.010527
12.2350,-1.528687424,18.99598023,1076.989228
12.2400,-1.505364246,18.99104273,1076.968032
12.2450,-1.481911576,18.98596574,1076.946961
12.2500,-1.458418848,18.98068371,1076.926021
12.2550,-1.434919598,18.97518124,1076.905215
12.2600,-1.411478505,18.96945439,1076.884559
12.2650,-1.388161638,18.9635273,1076.864075
12.2700,-1.365025116,18.95734309,1076.843765
12.2750,-1.342116969,18.95088506,1076.823624
12.2800,-1.31949204,18.94415645,1076.803681
12.2850,-1.297191752,18.93717435,1076.783948
12.2900,-1.275278454,18.92994351,1076.764431
12.2950,-1.253799263,18.92245467,1076.745137
12.3000,-1.232788913,18.91471633,1076.726062
12.3050,-1.21223511,18.90677996,1076.707204
12.3100,-1.192153209,18.8986216,1076.688564
12.3150,-1.172557165,18.89029498,1076.670148
12.3200,-1.153461721,18.88182998,1076.651954
12.3250,-1.134874822,18.87322446,1076.633987
12.3300,-1.116767478,18.86449446,1076.616226
12.3350,-1.099117938,18.85570366,1076.59868
12.3400,-1.081880513,18.84684329,1076.581344
12.3450,-1.065060003,18.83790958,1076.564212
12.3500,-1.048676229,18.82887954,1076.547285
12.3550,-1.032750631,18.81980513,1076.530575
12.3600,-1.017285337,18.81068793,1076.514072
12.3650,-1.002335025,18.80154953,1076.497778
12.3700,-0.987825913,18.79240606,1076.481681
12.3750,-0.9737500773,18.78326564,1076.465782
12.3800,-0.9600923846,18.77412537,1076.450085
12.3850,-0.9468674543,18.76502038,1076.434593
12.3900,-0.9340215849,18.75599572,1076.419302
12.3950,-0.9214989727,18.74709914,1076.404212
12.4000,-0.9092787307,18.73829278,1076.389322
12.4050,-0.8972842803,18.72960354,1076.374624
12.4100,-0.8854772446,18.72102332,1076.360117
12.4150,-0.8738081199,18.71254438,1076.3458
12.4200,-0.8622613287,18.70412437,1076.331653
12.4250,-0.8507854373,18.69577059,1076.317687
12.4300,-0.8393357085,18.68744511,1076.303886
12.4350,-0.8278546181,18.67912584,1076.290246
12.4400,-0.8163217967,18.67078693,1076.276748
12.4450,-0.8046568618,18.66243022,1076.263385
12.4500,-0.792835106,18.65400919,1076.250137
12.4550,-0.7807597173,18.6455223,1076.236992
12.4600,-0.7684094757,18.63691559,1076.22393
12.4650,-0.7557349411,18.62818724,1076.210949
12.4700,-0.7426903015,18.61926065,1076.19802
12.4750,-0.72925528,18.61016189,1076.185151
12.4800,-0.7154387613,18.60082757,1076.172329
12.4850,-0.70129639,18.59129378,1076.159564
12.4900,-0.6867872655,18.58150147,1076.146842
12.4950,-0.6719339623,18.57143443,1076.134157
12.5000,-0.6567947497,18.56110211,1076.121523
12.5050,-0.6413799141,18.55051808,1076.108944
12.5100,-0.6257127839,18.53966617,1076.09641
12.5150,-0.6097835061,18.52858639,1076.083932
12.5200,-0.5936059349,18.51728589,1076.071509
12.5250,-0.5772642498,18.50573164,1076.059147
12.5300,-0.5607685325,18.49396682,1076.046864
12.5350,-0.5441891386,18.48198708,1076.034663
12.5400,-0.5274971734,18.46985204,1076.022548
12.5450,-0.5106893388,18.45754472,1076.010521
12.5500,-0.4938098148,18.44507891,1075.998588
12.5550,-0.4769107764,18.43250666,1075.986771
12.5600,-0.4600270569,18.41982302,1075.975075
12.5650,-0.4431840765,18.4070418,1075.963497
12.5700,-0.4264174848,18.39422114,1075.952056
12.5750,-0.4097357996,18.38138584,1075.94076
12.5800,-0.3931974589,18.36861056,1075.929615
12.5850,-0.3767643854,18.35585861,1075.918606
12.5900,-0.3604745854,18.34317806,1075.907748
12.5950,-0.3443347975,18.33058065,1075.897037
12.6000,-0.3283401466,18.31809475,1075.886474
12.6050,-0.3125310467,18.30574178,1075.876072
12.6100,-0.2968952193,18.29353043,1075.865816
12.6150,-0.2814994976,18.28148432,1075.855722
12.6200,-0.2663397812,18.26963293,1075.845787
12.6250,-0.2514051752,18.25799882,1075.83601
12.6300,-0.2367402221,18.24661388,1075.8264
12.6350,-0.2223401022,18.23545241,1075.816947
12.6400,-0.2082697196,18.22456874,1075.807667
12.6450,-0.1945074161,18.21396891,1075.798559
12.6500,-0.1810776828,18.2036932,1075.789635
12.6550,-0.1679937359,18.19368648,1075.780879
12.6600,-0.1552530654,18.18397485,1075.772292
12.6650,-0.1427989147,18.17455626,1075.763867
12.6700,-0.1306140593,18.16544931,1075.755604
12.6750,-0.1187112262,18.15661857,1075.747494
12.6800,-0.1070731689,18.14813731,1075.739542
12.6850,-0.09565772372,18.13999313,1075.73174
12.6900,-0.08442884786,18.13216175,1075.724082
12.6950,-0.073417779,18.12458226,1075.716562
12.7000,-0.06260858588,18.11727103,1075.709174
12.7050,-0.05196016295,18.11022318,1075.701914
12.7100,-0.04146839077,18.10346241,1075.694781
12.7150,-0.0311681168,18.09691661,1075.687768
12.7200,-0.02099361167,18.09057195,1075.680865
12.7250,-0.01092457521,18.08440431,1075.674059
12.7300,-0.0009803215922,18.07837852,1075.667348
12.7350,0.008828640333,18.07247378,1075.660728
12.7400,0.01859753958,18.06668405,1075.654187
12.7450,0.02830972138,18.06097401,1075.647719
12.7500,0.03798456813,18.0553266,1075.641327
12.7550,0.04764046932,18.04970877,1075.634996
12.7600,0.05731249679,18.04414098,1075.62873
12.7650,0.0670298124,18.03856365,1075.622515
12.7700,0.07681036248,18.03302988,1075.616361
12.7750,0.08668458697,18.027487,1075.610252
12.7800,0.0966478928,18.02195284,1075.604195
12.7850,0.1067501146,18.01636283,1075.598176
12.7900,0.1170118363,18.01071947,1075.592186
12.7950,0.1274132599,18.00505382,1075.586241
12.8000,0.1379753915,17.99930926,1075.580326
12.8050,0.148700287,17.99352437,1075.574444
12.8100,0.1595798344,17.98770318,1075.568602
12.8150,0.170562988,17.98183982,1075.562802
12.8200,0.181640883,17.97594237,1075.557043
12.8250,0.1927920795,17.97002114,1075.551332
12.8300,0.2040099883,17.96410919,1075.545667
12.8350,0.2152575299,17.95820484,1075.540054
12.8400,0.2265128909,17.95229785,1075.534489
12.8450,0.2377051091,17.94641758,1075.528987
12.8500,0.2488572351,17.94052557,1075.523532
12.8550,0.2599490005,17.93468544,1075.518136
12.8600,0.2709655417,17.92889666,1075.512801
12.8650,0.2818725477,17.92315936,1075.507527
12.8700,0.2926582447,17.91743684,1075.502308
12.8750,0.3033015094,17.91176383,1075.49715
12.8800,0.3138281495,17.90608658,1075.492044
12.8850,0.3241906367,17.90046044,1075.487003
12.8900,0.3344507694,17.89485389,1075.482007
12.8950,0.3445891269,17.88926523,1075.477059
12.9000,0.3546010398,17.88366082,1075.472151
12.9050,0.3644674007,17.87801453,1075.467278
12.9100,0.3741987225,17.87232296,1075.462438
12.9150,0.3838122356,17.86656868,1075.457626
12.9200,0.3932821134,17.86074663,1075.452847
12.9250,0.4026163389,17.85482883,1075.448092
12.9300,0.4118476195,17.8488145,1075.44336
12.9350,0.4209786121,17.84270577,1075.438652
12.9400,0.430048797,17.83642054,1075.433951
12.9450,0.439005235,17.82996176,1075.429265
12.9500,0.4478879694,17.82330108,1075.424583
12.9550,0.45668532,17.81644489,1075.419912
12.9600,0.465413667,17.80934388,1075.415244
12.9650,0.4740501782,17.80197464,1075.410576
12.9700,0.4825243476,17.794355,1075.405924
12.9750,0.4908254059,17.78653022,1075.4013
12.9800,0.4989724872,17.77841535,1075.396689
12.9850,0.5069436132,17.76999532,1075.392095
12.9900,0.5147521464,17.76130202,1075.38752
12.9950,0.5224140821,17.75235872,1075.382963
13.0000,0.5299147171,17.74313665,1075.378428
13.0050,0.5372720276,17.73365729,1075.373918
13.0100,0.5444844124,17.72387268,1075.369429
13.0150,0.5515774299,17.71382258,1075.364968
13.0200,0.5585274257,17.70353291,1075.360544
13.0250,0.5652928884,17.69297284,1075.35616
13.0300,0.5718797156,17.68219703,1075.351823
13.0350,0.578253932,17.67119257,1075.34754
13.0400,0.5843535614,17.6599728,1075.343325
13.0450,0.5900984489,17.64854893,1075.339189
13.0500,0.5954861947,17.63696302,1075.33514
13.0550,0.6004701408,17.6252348,1075.331188
13.0600,0.6050391342,17.61340785,1075.327342
13.0650,0.609108312,17.60154585,1075.323621
13.0700,0.6126700482,17.58967433,1075.320028
13.0750,0.6156864485,17.57781051,1075.316573
13.0800,0.618182588,17.56599117,1075.313255
13.0850,0.6200847079,17.55426959,1075.310089
13.0900,0.6213909221,17.54268779,1075.307082
13.0950,0.6220447538,17.53124827,1075.304235
13.1000,0.6220694778,17.52005299,1075.301561
13.1050,0.621439926,17.50906304,1075.299054
13.1100,0.6201660356,17.49833738,1075.296718
13.1150,0.6183171775,17.48788116,1075.294543
13.1200,0.6159148038,17.47770754,1075.292525
13.1250,0.6130377578,17.46784763,1075.290654
13.1300,0.6097361018,17.45826319,1075.288917
13.1350,0.606107647,17.44898215,1075.287303
13.1400,0.6022440893,17.44002558,1075.285804
13.1450,0.5982342423,17.4313307,1075.284394
13.1500,0.5941218939,17.4229202,1075.283075
13.1550,0.5900587318,17.41475881,1075.281815
13.1600,0.5860791141,17.406815,1075.280603
13.1650,0.5822860304,17.39906622,1075.279425
13.1700,0.5787705552,17.39152742,1075.278268
13.1750,0.5755668111,17.38413094,1075.277116
13.1800,0.5727116792,17.37688776,1075.275962
13.1850,0.5702657781,17.36975968,1075.274792
13.1900,0.568222274,17.36273467,1075.273604
13.1950,0.5666339896,17.3558254,1075.272391
13.2000,0.5655314438,17.34904079,1075.271149
13.2050,0.5649316323,17.34238205,1075.269875
13.2100,0.5648217084,17.33587043,1075.268572
13.2150,0.5652160206,17.32947939,1075.267234
13.2200,0.5661163229,17.32323714,1075.265864
13.2250,0.567477241,17.31710829,1075.264464
13.2300,0.5692250581,17.31109897,1075.263042
13.2350,0.5713032653,17.30520209,1075.261606
13.2400,0.5736398663,17.2994478,1075.260172
13.2450,0.5761629461,17.29386492,1075.258752
13.2500,0.5788052618,17.28847274,1075.257359
13.2550,0.5815524338,17.28326438,1075.255993
13.2600,0.5843354854,17.27827814,1075.254671
13.2650,0.5870691649,17.27357349,1075.253414
13.2700,0.5897613993,17.26909724,1075.252212
13.2750,0.5924323466,17.26483664,1075.251062
13.2800,0.5949939881,17.2608615,1075.249987
13.2850,0.5974168602,17.25714259,1075.248984
13.2900,0.599591422,17.25371324,1075.248077
13.2950,0.6015365614,17.2506022,1075.247268
13.3000,0.6031702999,17.24780428,1075.246569
13.3050,0.6044546628,17.24532184,1075.245987
13.3100,0.6053806451,17.24318,1075.245526
13.3150,0.6059227249,17.2413946,1075.245191
13.3200,0.6060250872,17.23993301,1075.244987
13.3250,0.605700646,17.23884468,1075.244919
13.3300,0.6049232431,17.2380947,1075.244987
13.3350,0.6037518064,17.23771152,1075.245186
13.3400,0.6021680724,17.23768196,1075.245515
13.3450,0.6002447303,17.2380081,1075.245969
13.3500,0.5979961698,17.23866963,1075.24654
13.3550,0.5954690073,17.23967052,1075.247226
13.3600,0.5926638132,17.24096139,1075.248019
13.3650,0.589664451,17.24249908,1075.248905
13.3700,0.586464474,17.24427523,1075.249885
13.3750,0.5830920669,17.246269,1075.250951
13.3800,0.5795348487,17.24846159,1075.25211
13.3850,0.5758182203,17.25083387,1075.253352
13.3900,0.5719524167,17.25338448,1075.254677
13.3950,0.5679822353,17.25606371,1075.256077
13.4000,0.5639011681,17.25884441,1075.257549
13.4050,0.5598104231,17.26171099,1075.259079
13.4100,0.5556735684,17.26464447,1075.260671
13.4150,0.5515025223,17.26763311,1075.262324
13.4200,0.5473090523,17.27065485,1075.264036
13.4250,0.5430938762,17.27370587,1075.26581
13.4300,0.5389218018,17.27677655,1075.267638
13.4350,0.5347821983,17.2798253,1075.269517
13.4400,0.5306670328,17.28285062,1075.271453
13.4450,0.52659637,17.28587261,1075.273447
13.4500,0.5225563513,17.2888672,1075.275501
13.4550,0.5185168836,17.29179686,1075.27762
13.4600,0.5145012259,17.29467546,1075.279806
13.4650,0.5104902798,17.29748545,1075.282062
13.4700,0.506466833,17.30020667,1075.284388
13.4750,0.5024392288,17.30286672,1075.286791
13.4800,0.4984148267,17.3054537,1075.289275
13.4850,0.4943489307,17.3079805,1075.291849
13.4900,0.4902817906,17.31041179,1075.294508
13.4950,0.4861670496,17.31279051,1075.297266
13.5000,0.481996029,17.31512968,1075.300132
13.5050,0.4777197345,17.31741469,1075.303111
13.5100,0.4733424127,17.31966676,1075.30621
13.5150,0.4687857358,17.32188647,1075.30944
13.5200,0.4640282899,17.3240615,1075.312801
13.5250,0.4589955328,17.32625844,1075.316313
13.5300,0.4536665297,17.32845413,1075.319979
13.5350,0.4479804192,17.33068961,1075.323813
13.5400,0.4418876486,17.33301635,1075.327826
13.5450,0.435351799,17.33541734,1075.33202
13.5500,0.4283460171,17.33791594,1075.3364
13.5550,0.4208239022,17.34053177,1075.340975
13.5600,0.4127231508,17.34332598,1075.345759
13.5650,0.4040581011,17.34628341,1075.350748
13.5700,0.3947707289,17.34945364,1075.35595
13.5750,0.3848122765,17.35287466,1075.361379
13.5800,0.3741739722,17.35649334,1075.367028
13.5850,0.3628713063,17.36040453,1075.372903
13.5900,0.3509069687,17.36458072,1075.379002
13.5950,0.3382707388,17.36906095,1075.385329
