type,name,time_units,begin_time,frequency,count,units
signal_3d,"Noraxon MyoMotion-Trajectories-Medial humeral epicondyle RT","s",0.0000,200,5108,"mm"

time,x,y,z
0.0000,159.6416208,-9.747963265,1239.531254
0.0050,159.6046378,-9.71834492,1239.540436
0.0100,159.5676577,-9.688724965,1239.549624
0.0150,159.5306806,-9.6591034,1239.558819
0.0200,159.4884292,-9.629287564,1239.56932
0.0250,159.4406242,-9.599864987,1239.581179
0.0300,159.3869984,-9.571443128,1239.594432
0.0350,159.3273009,-9.54461607,1239.609105
0.0400,159.2613007,-9.519935632,1239.625212
0.0450,159.1887908,-9.497891561,1239.642759
0.0500,159.1095922,-9.478897287,1239.661739
0.0550,159.0235622,-9.463279651,1239.682138
0.0600,158.9306103,-9.451273792,1239.70393
0.0650,158.8307189,-9.443021115,1239.72708
0.0700,158.7239627,-9.438567681,1239.751539
0.0750,158.6105279,-9.437864794,1239.777246
0.0800,158.4907341,-9.440773833,1239.804128
0.0850,158.3650526,-9.447074171,1239.832091
0.0900,158.2341174,-9.45647437,1239.861028
0.0950,158.0987271,-9.468628288,1239.890806
0.1000,157.9598426,-9.483154249,1239.921272
0.1050,157.8185787,-9.499652779,1239.952247
0.1100,157.6761974,-9.517719344,1239.983524
0.1150,157.5340969,-9.536952076,1240.014871
0.1200,157.3937974,-9.556956974,1240.046032
0.1250,157.2569184,-9.577353129,1240.076727
0.1300,157.1251458,-9.597779424,1240.106658
0.1350,157.0001847,-9.617901833,1240.135513
0.1400,156.8837006,-9.637422304,1240.162975
0.1450,156.7772608,-9.656090122,1240.18873
0.1500,156.682277,-9.673710314,1240.212477
0.1550,156.5266866,-9.699898527,1240.24709
0.1600,156.3844146,-9.725748318,1240.279307
0.1650,156.2565487,-9.752675439,1240.308599
0.1700,156.1433278,-9.77934377,1240.33496
0.1750,156.0438892,-9.806752647,1240.358222
0.1800,155.9594059,-9.834819507,1240.378083
0.1850,155.8883571,-9.864086595,1240.394607
0.1900,155.8296932,-9.893550268,1240.408025
0.1950,155.7841599,-9.924000971,1240.417998
0.2000,155.7490437,-9.9544884,1240.425058
0.2050,155.723207,-9.985432932,1240.429228
0.2100,155.7050836,-10.01615586,1240.430811
0.2150,155.6923091,-10.0471189,1240.430054
0.2200,155.6842475,-10.07825778,1240.427238
0.2250,155.6788593,-10.10957012,1240.422605
0.2300,155.6735609,-10.14065094,1240.416739
0.2350,155.6686044,-10.17151259,1240.40969
0.2400,155.6628237,-10.20082477,1240.401996
0.2450,155.6545391,-10.22965589,1240.393822
0.2500,155.6429769,-10.25825822,1240.385441
0.2550,155.6279535,-10.28668917,1240.377044
0.2600,155.6085999,-10.31492493,1240.368878
0.2650,155.5839795,-10.34362632,1240.360988
0.2700,155.5553991,-10.37267909,1240.353563
0.2750,155.5214089,-10.40281388,1240.346707
0.2800,155.4836053,-10.43301387,1240.340512
0.2850,155.4423925,-10.46552099,1240.334653
0.2900,155.3986654,-10.49865885,1240.329364
0.2950,155.3515499,-10.53385818,1240.324656
0.3000,155.3021409,-10.57179331,1240.320321
0.3050,155.2505235,-10.61241693,1240.316396
0.3100,155.1967529,-10.65553292,1240.312985
0.3150,155.1431078,-10.70170304,1240.309761
0.3200,155.0885559,-10.7517063,1240.306643
0.3250,155.0342446,-10.80570064,1240.303519
0.3300,154.9795347,-10.86339017,1240.300568
0.3350,154.9257405,-10.92420432,1240.297571
0.3400,154.8721287,-10.98758486,1240.294804
0.3450,154.8187886,-11.05359458,1240.292218
0.3500,154.7660247,-11.12200215,1240.289794
0.3550,154.7139498,-11.19242744,1240.287543
0.3600,154.6613484,-11.26514846,1240.285627
0.3650,154.6090836,-11.33876743,1240.283994
0.3700,154.5588486,-11.41280138,1240.282577
0.3750,154.5094081,-11.48734545,1240.281323
0.3800,154.460446,-11.56089164,1240.280567
0.3850,154.4130562,-11.63408296,1240.279989
0.3900,154.3662822,-11.70682508,1240.279676
0.3950,154.3215192,-11.77879757,1240.279408
0.4000,154.278224,-11.85019577,1240.279126
0.4050,154.2367184,-11.91968574,1240.279031
0.4100,154.1968108,-11.98800462,1240.278864
0.4150,154.1588189,-12.05453483,1240.278606
0.4200,154.1231019,-12.11996843,1240.278065
0.4250,154.0891084,-12.18325212,1240.277469
0.4300,154.057645,-12.24530427,1240.276477
0.4350,154.0281014,-12.30599393,1240.27505
0.4400,154.0013257,-12.36489674,1240.273234
0.4450,153.9758902,-12.42154764,1240.271205
0.4500,153.9537828,-12.47584509,1240.268702
0.4550,153.9334695,-12.52784937,1240.265927
0.4600,153.9149694,-12.57806309,1240.262794
0.4650,153.8983181,-12.62551412,1240.259522
0.4700,153.8840738,-12.67019605,1240.25602
0.4750,153.8721518,-12.71250174,1240.252284
0.4800,153.8621268,-12.75262076,1240.248356
0.4850,153.8543393,-12.78959465,1240.244378
0.4900,153.849556,-12.8244007,1240.240172
0.4950,153.8463029,-12.85637797,1240.236051
0.5000,153.8456936,-12.88608924,1240.231765
0.5050,153.8472567,-12.91272563,1240.227646
0.5100,153.8507038,-12.93767739,1240.22353
0.5150,153.8569592,-12.96026902,1240.219373
0.5200,153.8647426,-12.98131549,1240.215241
0.5250,153.8744569,-13.00118011,1240.211094
0.5300,153.8858031,-13.0206938,1240.206818
0.5350,153.899149,-13.03976786,1240.202329
0.5400,153.9130924,-13.05969119,1240.197668
0.5450,153.9278992,-13.07986382,1240.192907
0.5500,153.9435647,-13.10002192,1240.188037
0.5550,153.9590855,-13.12094369,1240.183002
0.5600,153.9745935,-13.14273551,1240.177797
0.5650,153.9906,-13.16454377,1240.172518
0.5700,154.0064671,-13.18738174,1240.166984
0.5750,154.023193,-13.21078777,1240.161168
0.5800,154.0412605,-13.23516887,1240.154988
0.5850,154.0598669,-13.25990028,1240.148558
0.5900,154.0793432,-13.28505174,1240.141795
0.5950,154.1009159,-13.31038616,1240.134592
0.6000,154.1244468,-13.33584601,1240.126979
0.6050,154.1498058,-13.36082094,1240.119035
0.6100,154.1777009,-13.38655849,1240.110427
0.6150,154.2072238,-13.41258798,1240.101275
0.6200,154.2395763,-13.43867013,1240.091566
0.6250,154.273261,-13.46416596,1240.081495
0.6300,154.3093889,-13.48985758,1240.07078
0.6350,154.3467841,-13.51601337,1240.059615
0.6400,154.3854568,-13.54185669,1240.048046
0.6450,154.4260291,-13.56698136,1240.036015
0.6500,154.4678007,-13.59206341,1240.023565
0.6550,154.5103257,-13.61681611,1240.010783
0.6600,154.5536386,-13.64028323,1239.99783
0.6650,154.5973659,-13.66360089,1239.984631
0.6700,154.6404774,-13.6857775,1239.971412
0.6750,154.682887,-13.70702118,1239.958215
0.6800,154.7244115,-13.72792905,1239.944889
0.6850,154.7641526,-13.74699761,1239.931872
0.6900,154.8021245,-13.76471685,1239.919046
0.6950,154.8382914,-13.78031696,1239.90668
0.7000,154.8724689,-13.79376397,1239.894796
0.7050,154.9047991,-13.80516209,1239.883368
0.7100,154.9358456,-13.81408898,1239.872473
0.7150,154.9644997,-13.82136334,1239.862242
0.7200,154.990601,-13.82694487,1239.852734
0.7250,155.016174,-13.83123478,1239.843615
0.7300,155.0396743,-13.83478344,1239.835062
0.7350,155.0624506,-13.8378055,1239.82694
0.7400,155.0841164,-13.84190548,1239.818977
0.7450,155.106746,-13.8474119,1239.810917
0.7500,155.1275207,-13.85568522,1239.802901
0.7550,155.1486512,-13.86705702,1239.794562
0.7600,155.169837,-13.88225209,1239.785793
0.7650,155.1919185,-13.90200412,1239.776412
0.7700,155.2148504,-13.92687912,1239.766288
0.7750,155.239533,-13.95662636,1239.755362
0.7800,155.2658806,-13.99153672,1239.743664
0.7850,155.2956533,-14.03195948,1239.730846
0.7900,155.3277159,-14.07813061,1239.717011
0.7950,155.3637513,-14.12915125,1239.702122
0.8000,155.4029889,-14.18602383,1239.686158
0.8050,155.4458754,-14.24914041,1239.669017
0.8100,155.4926436,-14.3176586,1239.650811
0.8150,155.5419403,-14.39187896,1239.6317
0.8200,155.5946547,-14.4708459,1239.611689
0.8250,155.6489245,-14.55362933,1239.591185
0.8300,155.7054132,-14.63958455,1239.57018
0.8350,155.7627665,-14.72964831,1239.548701
0.8400,155.8204262,-14.82167003,1239.527061
0.8450,155.8783957,-14.91595484,1239.505244
0.8500,155.9347996,-15.01228802,1239.483381
0.8550,155.9887702,-15.11000637,1239.461746
0.8600,156.0386363,-15.20836668,1239.440576
0.8650,156.0838125,-15.30684191,1239.420073
0.8700,156.12218,-15.40469659,1239.40056
0.8750,156.1526501,-15.5013601,1239.382278
0.8800,156.174135,-15.59614866,1239.36546
0.8850,156.1856929,-15.68858023,1239.350386
0.8900,156.1859909,-15.77766867,1239.337458
0.8950,156.1744487,-15.86389864,1239.326677
0.9000,156.1504016,-15.94603008,1239.318426
0.9050,156.1140514,-16.02573211,1239.312488
0.9100,156.0647344,-16.10101414,1239.309359
0.9150,156.0021477,-16.17380052,1239.308931
0.9200,155.9267139,-16.24225059,1239.311536
0.9250,155.8395089,-16.30803962,1239.316864
0.9300,155.7412982,-16.37045169,1239.325021
0.9350,155.6316742,-16.42893771,1239.336307
0.9400,155.5119025,-16.48596542,1239.35022
0.9450,155.3829539,-16.54107131,1239.366872
0.9500,155.2465055,-16.59408967,1239.386129
0.9550,155.1028734,-16.64509675,1239.40803
0.9600,154.9542128,-16.69557112,1239.43211
0.9650,154.8018731,-16.7448749,1239.458338
0.9700,154.6466348,-16.79353924,1239.486559
0.9750,154.4901974,-16.84077853,1239.516676
0.9800,154.3344812,-16.88788601,1239.548297
0.9850,154.1805053,-16.9347987,1239.581248
0.9900,154.0295013,-16.98061959,1239.615555
0.9950,153.8816856,-17.02702549,1239.650885
1.0000,153.7405481,-17.07408277,1239.686779
1.0050,153.6059526,-17.12145312,1239.723279
1.0100,153.4787606,-17.1692671,1239.760214
1.0150,153.3610513,-17.2166585,1239.797414
1.0200,153.2541179,-17.26479461,1239.834464
1.0250,153.1571235,-17.31340578,1239.871454
1.0300,153.0721959,-17.36326708,1239.908031
1.0350,153.0000279,-17.41452921,1239.943988
1.0400,152.9411948,-17.4664237,1239.979286
1.0450,152.8953845,-17.52002757,1240.013695
1.0500,152.8627949,-17.57538659,1240.04715
1.0550,152.8432025,-17.63251768,1240.079562
1.0600,152.8369353,-17.69135993,1240.110861
1.0650,152.8424409,-17.75249052,1240.141053
1.0700,152.8594477,-17.81616645,1240.170127
1.0750,152.886682,-17.88166517,1240.198252
1.0800,152.9235692,-17.94986214,1240.225158
1.0850,152.9682635,-18.020552,1240.251204
1.0900,153.0202932,-18.09255792,1240.276448
1.0950,153.0770286,-18.16745826,1240.301025
1.1000,153.1380598,-18.24406116,1240.325025
1.1050,153.2024249,-18.32213454,1240.348642
1.1100,153.2689696,-18.40096989,1240.372026
1.1150,153.3380984,-18.48110964,1240.395089
1.1200,153.408815,-18.56237228,1240.417949
1.1250,153.4809296,-18.64452083,1240.440668
1.1300,153.5542134,-18.72791002,1240.463192
1.1350,153.6279348,-18.81186372,1240.485818
1.1400,153.7023804,-18.89717007,1240.508486
1.1450,153.7764976,-18.98226779,1240.5314
1.1500,153.8520718,-19.06797611,1240.554374
1.1550,153.9282093,-19.1533644,1240.577633
1.1600,154.0055393,-19.23942679,1240.601096
1.1650,154.0846381,-19.32619595,1240.624759
1.1700,154.1654394,-19.41350473,1240.648807
1.1750,154.2491606,-19.50202395,1240.673035
1.1800,154.3352237,-19.59217084,1240.697508
1.1850,154.4238718,-19.68427367,1240.722233
1.1900,154.5161955,-19.77957834,1240.746852
1.1950,154.6114011,-19.87667761,1240.771872
1.2000,154.7101903,-19.9763768,1240.797068
1.2050,154.8130175,-20.07870826,1240.822493
1.2100,154.9197754,-20.18559901,1240.848055
1.2150,155.030516,-20.29512392,1240.874118
1.2200,155.1453314,-20.40924227,1240.900482
1.2250,155.2654086,-20.52748765,1240.927214
1.2300,155.3898399,-20.65033791,1240.954424
1.2350,155.519741,-20.77877516,1240.981889
1.2400,155.6555717,-20.91167243,1241.009783
1.2450,155.7973801,-21.04992229,1241.037943
1.2500,155.9451663,-21.19341308,1241.066466
1.2550,156.0997534,-21.34274039,1241.09513
1.2600,156.2609047,-21.4979016,1241.123965
1.2650,156.427948,-21.65790783,1241.153216
1.2700,156.6018267,-21.82291769,1241.182696
1.2750,156.7816333,-21.99365215,1241.212441
1.2800,156.9680073,-22.16811998,1241.242594
1.2850,157.1598308,-22.34634809,1241.273405
1.2900,157.3576051,-22.52825983,1241.304775
1.2950,157.5611655,-22.7132983,1241.336803
1.3000,157.7698217,-22.89993739,1241.369777
1.3050,157.9820125,-23.0886327,1241.403777
1.3100,158.1977728,-23.27882354,1241.438852
1.3150,158.4162837,-23.47044959,1241.474954
1.3200,158.6362935,-23.66254896,1241.512318
1.3250,158.8580994,-23.85597649,1241.550791
1.3300,159.0797268,-24.04779216,1241.590769
1.3350,159.2997276,-24.23901276,1241.632329
1.3400,159.518281,-24.42868321,1241.675494
1.3450,159.7334963,-24.61640051,1241.720539
1.3500,159.9468909,-24.80164709,1241.767292
1.3550,160.1571714,-24.98413736,1241.815842
1.3600,160.363261,-25.16318128,1241.866393
1.3650,160.5656258,-25.3387846,1241.918843
1.3700,160.7636253,-25.51031069,1241.973256
1.3750,160.9570697,-25.6786364,1242.029564
1.3800,161.1461523,-25.84267964,1242.087964
1.3850,161.3304447,-26.00391735,1242.14827
1.3900,161.5099986,-26.16195918,1242.210581
1.3950,161.6863237,-26.31646841,1242.27475
1.4000,161.8590937,-26.46721276,1242.340887
1.4050,162.0293535,-26.61440851,1242.40879
1.4100,162.1962636,-26.75853091,1242.478607
1.4150,162.3602276,-26.89950797,1242.550194
1.4200,162.52109,-27.03791277,1242.623633
1.4250,162.6798455,-27.17416297,1242.698711
1.4300,162.8358369,-27.30782552,1242.775633
1.4350,162.9903295,-27.43930153,1242.854145
1.4400,163.1424469,-27.56965795,1242.934198
1.4450,163.2938744,-27.69925174,1243.015709
1.4500,163.443136,-27.82762801,1243.098835
1.4550,163.5922811,-27.95555677,1243.183261
1.4600,163.7411084,-28.08293882,1243.269004
1.4650,163.8893472,-28.21056552,1243.355905
1.4700,164.0377937,-28.33813872,1243.443927
1.4750,164.185082,-28.46643885,1243.533109
1.4800,164.3325063,-28.59597024,1243.623262
1.4850,164.480314,-28.72547725,1243.714378
1.4900,164.6280662,-28.855143,1243.806614
1.4950,164.776019,-28.98594196,1243.899654
1.5000,164.9243389,-29.11797944,1243.99349
1.5050,165.0718647,-29.25085961,1244.088289
1.5100,165.2184666,-29.3835499,1244.184086
1.5150,165.3644349,-29.51691263,1244.280612
1.5200,165.5087833,-29.65039658,1244.378061
1.5250,165.6510214,-29.78432964,1244.476335
1.5300,165.7906245,-29.91805842,1244.575543
1.5350,165.9270112,-30.05139207,1244.67568
1.5400,166.0602685,-30.1850073,1244.776633
1.5450,166.1893663,-30.31804848,1244.878583
1.5500,166.3142192,-30.45131879,1244.981297
1.5550,166.4344209,-30.58501745,1245.084862
1.5600,166.5487746,-30.71807721,1245.189434
1.5650,166.657324,-30.85079277,1245.294848
1.5700,166.7601821,-30.98295873,1245.400978
1.5750,166.858858,-31.11422931,1245.507618
1.5800,166.9511686,-31.24421031,1245.614997
1.5850,167.0387212,-31.37308173,1245.722686
1.5900,167.1209147,-31.50037585,1245.83074
1.5950,167.1978139,-31.62539926,1245.939184
1.6000,167.2683984,-31.7477471,1246.048067
1.6050,167.3348492,-31.86717689,1246.157132
1.6100,167.3968526,-31.98369259,1246.266364
1.6150,167.453765,-32.09693708,1246.375807
1.6200,167.5068265,-32.20571912,1246.485424
1.6250,167.5559406,-32.30966168,1246.59525
1.6300,167.603228,-32.41003302,1246.704908
1.6350,167.6474318,-32.50554474,1246.814601
1.6400,167.6891537,-32.59662878,1246.924306
1.6450,167.7288868,-32.68377724,1247.033877
1.6500,167.7665606,-32.76671588,1247.143337
1.6550,167.80265,-32.84540304,1247.252719
1.6600,167.8388821,-32.92019805,1247.361826
1.6650,167.8750585,-32.98979193,1247.470813
1.6700,167.9117748,-33.05470778,1247.579601
1.6750,167.949751,-33.11536026,1247.68807
1.6800,167.9893486,-33.17118886,1247.796205
1.6850,168.0320254,-33.22101753,1247.903982
1.6900,168.0774133,-33.26569769,1248.011363
1.6950,168.1248859,-33.30469428,1248.118392
1.7000,168.176048,-33.33852085,1248.224879
1.7050,168.2302043,-33.36704767,1248.330821
1.7100,168.2877133,-33.3899147,1248.436185
1.7150,168.3484004,-33.40722184,1248.541006
1.7200,168.4129239,-33.41704222,1248.645372
1.7250,168.4820319,-33.41938003,1248.749234
1.7300,168.5560846,-33.41437017,1248.852476
1.7350,168.6339599,-33.40185438,1248.955254
1.7400,168.7168748,-33.38051569,1249.057549
1.7450,168.8036168,-33.35123455,1249.159413
1.7500,168.8956913,-33.31332915,1249.26076
1.7550,168.991628,-33.26699845,1249.361776
1.7600,169.091698,-33.21191753,1249.462383
1.7650,169.1943544,-33.14851145,1249.562777
1.7700,169.2994626,-33.07717086,1249.662896
1.7750,169.4065179,-32.99698851,1249.762801
1.7800,169.5143296,-32.9086347,1249.862625
1.7850,169.6228585,-32.81309016,1249.962271
1.7900,169.7308295,-32.71050317,1250.061826
1.7950,169.838666,-32.60137625,1250.16119
1.8000,169.9450346,-32.48583218,1250.26055
1.8050,170.0505305,-32.36456038,1250.359888
1.8100,170.1545407,-32.23904275,1250.459133
1.8150,170.2555625,-32.10936259,1250.558501
1.8200,170.3543373,-31.97615467,1250.657823
1.8250,170.4491413,-31.8390064,1250.757395
1.8300,170.540148,-31.69849474,1250.857031
1.8350,170.6270778,-31.55511515,1250.956838
1.8400,170.7088503,-31.40890842,1251.056961
1.8450,170.7866348,-31.26018675,1251.157139
1.8500,170.8601019,-31.10718298,1251.257694
1.8550,170.9289898,-30.94902339,1251.358744
1.8600,170.9939671,-30.78610738,1251.460193
1.8650,171.056515,-30.61821699,1251.561927
1.8700,171.1155685,-30.44491729,1251.664128
1.8750,171.1712998,-30.26514787,1251.766909
1.8800,171.2245074,-30.07860579,1251.870144
1.8850,171.2758568,-29.88459189,1251.973941
1.8900,171.3246887,-29.68241179,1252.078503
1.8950,171.371699,-29.47110975,1252.183763
1.9000,171.4169137,-29.25106907,1252.289765
1.9050,171.4613949,-29.02220663,1252.396411
1.9100,171.5032672,-28.78355984,1252.504082
1.9150,171.5441877,-28.53568786,1252.612596
1.9200,171.5824088,-28.27839791,1252.722095
1.9250,171.6183366,-28.01317012,1252.83235
1.9300,171.6496243,-27.73962377,1252.943726
1.9350,171.6773739,-27.45845247,1253.055953
1.9400,171.7006049,-27.1697453,1253.169126
1.9450,171.7198809,-26.87399266,1253.283149
1.9500,171.7337261,-26.57185281,1253.398109
1.9550,171.7415711,-26.26451419,1253.513905
1.9600,171.7419114,-25.95264647,1253.630649
1.9650,171.7343444,-25.63734011,1253.748267
1.9700,171.7191075,-25.31813259,1253.866671
1.9750,171.6954002,-24.99514695,1253.98594
1.9800,171.6642904,-24.66869437,1254.105803
1.9850,171.624667,-24.33881207,1254.226344
1.9900,171.577623,-24.00657117,1254.347321
1.9950,171.523918,-23.67237302,1254.468673
2.0000,171.4628041,-23.33632731,1254.590545
2.0050,171.3939616,-22.99940899,1254.712977
2.0100,171.3176701,-22.66235162,1254.835892
2.0150,171.2348208,-22.32357261,1254.959461
2.0200,171.1439644,-21.98355036,1255.083795
2.0250,171.0456451,-21.6417055,1255.208842
2.0300,170.9409688,-21.29663196,1255.334659
2.0350,170.8305345,-20.94808634,1255.461202
2.0400,170.7150092,-20.59622353,1255.588359
2.0450,170.5950256,-20.24110013,1255.716112
2.0500,170.4695386,-19.88223908,1255.844665
2.0550,170.3368019,-19.51927005,1255.974302
2.0600,170.197474,-19.15296372,1256.104819
2.0650,170.052569,-18.78351382,1256.236045
2.0700,169.9014621,-18.41147602,1256.36796
2.0750,169.7442446,-18.03810561,1256.500537
2.0800,169.5805158,-17.66299943,1256.633907
2.0850,169.4095169,-17.28677135,1256.768191
2.0900,169.2316779,-16.91081632,1256.903214
2.0950,169.0462928,-16.53506885,1257.039145
2.1000,168.8534195,-16.15961489,1257.176003
2.1050,168.6525607,-15.78445747,1257.313801
2.1100,168.4447635,-15.40886266,1257.452541
2.1150,168.2316014,-15.03341183,1257.5919
2.1200,168.012421,-14.65674092,1257.732204
2.1250,167.7884866,-14.28089422,1257.872982
2.1300,167.5593418,-13.90586683,1258.014368
2.1350,167.3249907,-13.53095286,1258.156451
2.1400,167.0857617,-13.1554917,1258.299234
2.1450,166.8420426,-12.78031574,1258.442591
2.1500,166.5936176,-12.40726769,1258.586295
2.1550,166.3405955,-12.03524225,1258.730557
2.1600,166.0839829,-11.66427905,1258.875145
2.1650,165.8218949,-11.29432918,1259.020405
2.1700,165.5553159,-10.92439341,1259.166473
2.1750,165.2836671,-10.55439011,1259.313369
2.1800,165.0075077,-10.18354165,1259.461172
2.1850,164.726888,-9.812118283,1259.609861
2.1900,164.441697,-9.440937948,1259.759272
2.1950,164.1507918,-9.069448859,1259.909832
2.2000,163.8541303,-8.697931447,1260.061478
2.2050,163.5506852,-8.326088082,1260.214494
2.2100,163.2405409,-7.954068888,1260.36889
2.2150,162.922108,-7.581353676,1260.525188
2.2200,162.5959601,-7.209609549,1260.683073
2.2250,162.2604192,-6.83764761,1260.843195
2.2300,161.9176049,-6.464405896,1261.005384
2.2350,161.567392,-6.088265224,1261.169996
2.2400,161.2092654,-5.708494177,1261.337212
2.2450,160.8444033,-5.324342392,1261.506881
2.2500,160.4749995,-4.935307441,1261.678718
2.2550,160.1007105,-4.541691417,1261.852777
2.2600,159.7233126,-4.144600511,1262.028506
2.2650,159.3422796,-3.745608477,1262.20566
2.2700,158.9562648,-3.344869318,1262.384669
2.2750,158.5638347,-2.943675595,1262.565535
2.2800,158.1632468,-2.542442249,1262.748763
2.2850,157.7536365,-2.142475739,1262.93434
2.2900,157.3349441,-1.74347837,1263.122348
2.2950,156.9070136,-1.345512997,1263.312822
2.3000,156.4696846,-0.9472071521,1263.505943
2.3050,156.0247473,-0.5475280835,1263.701571
2.3100,155.5725732,-0.1451979276,1263.899846
2.3150,155.1128071,0.2586776138,1264.100574
2.3200,154.6470131,0.6639144763,1264.303527
2.3250,154.1748191,1.070724134,1264.508909
2.3300,153.6959988,1.478117424,1264.716623
2.3350,153.2101081,1.886227552,1264.926824
2.3400,152.7169151,2.294654333,1265.139601
2.3450,152.2163563,2.703561755,1265.355019
2.3500,151.7090303,3.112296136,1265.572856
2.3550,151.1969679,3.521494105,1265.792882
2.3600,150.6815975,3.931362284,1266.014831
2.3650,150.1636098,4.343359634,1266.238829
2.3700,149.6449105,4.758272396,1266.464626
2.3750,149.1269452,5.175807178,1266.691699
2.3800,148.6116819,5.59526414,1266.919454
2.3850,148.0986263,6.016997613,1267.147942
2.3900,147.5892909,6.439596022,1267.376473
2.3950,147.0836397,6.862838885,1267.6051
2.4000,146.581946,7.284814092,1267.833249
2.4050,146.0845844,7.705149346,1268.060772
2.4100,145.5915905,8.122869672,1268.287461
2.4150,145.1016857,8.538213471,1268.513702
2.4200,144.6151424,8.950421197,1268.739219
2.4250,144.1320346,9.36063912,1268.964277
2.4300,143.6535978,9.769439744,1269.188685
2.4350,143.1812241,10.17779343,1269.412212
2.4400,142.7145045,10.58569606,1269.635008
2.4450,142.2532247,10.99352024,1269.857307
2.4500,141.7962742,11.40291829,1270.079827
2.4550,141.34502,11.81284069,1270.301887
2.4600,140.8981191,12.22408539,1270.524093
2.4650,140.4573608,12.63665706,1270.745955
2.4700,140.0221217,13.05063005,1270.967557
2.4750,139.5932073,13.4649766,1271.188462
2.4800,139.1691161,13.87837114,1271.408834
2.4850,138.7487918,14.29111594,1271.628987
2.4900,138.331358,14.70384637,1271.849298
2.4950,137.9174475,15.11517436,1272.069216
2.5000,137.5072134,15.52551211,1272.28878
2.5050,137.0987137,15.93451752,1272.508457
2.5100,136.6924802,16.34171952,1272.728
2.5150,136.2885624,16.74598743,1272.946976
2.5200,135.8870205,17.14836812,1273.165644
2.5250,135.487603,17.54888464,1273.383984
2.5300,135.0898704,17.9461491,1273.601726
2.5350,134.6934655,18.33817082,1273.818613
2.5400,134.2973791,18.72327166,1274.034572
2.5450,133.9002653,19.10135324,1274.250052
2.5500,133.499078,19.47224522,1274.465938
2.5550,133.094993,19.83758942,1274.682235
2.5600,132.6871656,20.199525,1274.899757
2.5650,132.2764715,20.55818295,1275.118243
2.5700,131.8646587,20.91451183,1275.337314
2.5750,131.4541987,21.26850073,1275.556118
2.5800,131.0453807,21.61997094,1275.774397
2.5850,130.6393639,21.96809669,1275.991468
2.5900,130.2361391,22.31376395,1276.20749
2.5950,129.8358275,22.65608706,1276.42212
2.6000,129.4389035,22.99244023,1276.63457
2.6050,129.0440509,23.32247485,1276.845176
2.6100,128.6513568,23.64410014,1277.05319
2.6150,128.2606047,23.95686071,1277.258629
2.6200,127.8715205,24.26077222,1277.461508
2.6250,127.4848671,24.55422121,1277.66116
2.6300,127.0994134,24.83717976,1277.857981
2.6350,126.7163476,25.10935252,1278.051537
2.6400,126.3361613,25.37251701,1278.242084
2.6450,125.9595017,25.62797432,1278.429676
2.6500,125.5857177,25.875756,1278.614553
2.6550,125.2163527,26.11608793,1278.79607
2.6600,124.8513389,26.34925907,1278.974413
2.6650,124.490523,26.57494185,1279.149468
2.6700,124.13469,26.79312978,1279.320929
2.6750,123.7832709,27.00475877,1279.489392
2.6800,123.4354685,27.21045982,1279.655129
2.6850,123.0931882,27.41007092,1279.817508
2.6900,122.7563039,27.60666109,1279.977283
2.6950,122.4263708,27.80031734,1280.133749
2.7000,122.1049099,27.99250827,1280.286675
2.7050,121.7919879,28.18365749,1280.4361
2.7100,121.4868833,28.37473646,1280.582547
2.7150,121.191185,28.56423861,1280.725022
2.7200,120.9049312,28.75267143,1280.863604
2.7250,120.6269481,28.93974107,1280.998618
2.7300,120.3571508,29.12468252,1281.129759
2.7350,120.094185,29.30689367,1281.257457
2.7400,119.8379383,29.48573027,1281.381561
2.7450,119.5881968,29.66251208,1281.50257
2.7500,119.3447498,29.83603498,1281.620075
2.7550,119.107996,30.00591193,1281.733826
2.7600,118.8769732,30.17240938,1281.8443
2.7650,118.6505368,30.33579095,1281.951942
2.7700,118.4282757,30.49580997,1282.056837
2.7750,118.2087677,30.65305479,1282.159585
2.7800,117.9935247,30.80843214,1282.259735
2.7850,117.7829258,30.96259898,1282.357188
2.7900,117.5785094,31.11558244,1282.451155
2.7950,117.3811328,31.26709508,1282.541166
2.8000,117.19009,31.41620001,1282.626976
2.8050,117.0064018,31.56258254,1282.708169
2.8100,116.8302124,31.70495435,1282.784002
2.8150,116.6605931,31.84307437,1282.854889
2.8200,116.4968094,31.97596521,1282.920857
2.8250,116.3389928,32.10212031,1282.981488
2.8300,116.1858126,32.22118414,1283.03726
2.8350,116.0357109,32.33314743,1283.088793
2.8400,115.8893915,32.43937261,1283.136234
2.8450,115.74612,32.53909261,1283.179776
2.8500,115.6058215,32.63200695,1283.219526
2.8550,115.4674383,32.71812484,1283.256141
2.8600,115.3284842,32.7964352,1283.290387
2.8650,115.1875986,32.86885098,1283.323753
2.8700,115.0423185,32.93448938,1283.357214
2.8750,114.8900252,32.99583692,1283.392753
2.8800,114.7305611,33.05357987,1283.430894
2.8850,114.5635434,33.11082252,1283.472945
2.8900,114.387254,33.16803754,1283.520019
2.8950,114.2002434,33.22666399,1283.573241
2.9000,114.0021241,33.28977599,1283.633799
2.9050,113.7926298,33.35926556,1283.702262
2.9100,113.5722894,33.43733052,1283.779246
2.9150,113.3423401,33.52637851,1283.864855
2.9200,113.1035133,33.62671211,1283.958985
2.9250,112.8557223,33.73991849,1284.062011
2.9300,112.6008368,33.86653199,1284.173367
2.9350,112.3392785,34.00741893,1284.29301
2.9400,112.0706391,34.16130654,1284.420646
2.9450,111.7950622,34.32641751,1284.555598
2.9500,111.5134312,34.50228953,1284.697354
2.9550,111.2260115,34.68630535,1284.845044
2.9600,110.9325492,34.87800257,1284.998546
2.9650,110.6342843,35.07660742,1285.157048
2.9700,110.3306808,35.28065728,1285.320384
2.9750,110.0227639,35.49062174,1285.488105
2.9800,109.7114587,35.70481335,1285.659394
2.9850,109.3977765,35.92306432,1285.833681
2.9900,109.0826984,36.14350627,1286.010122
2.9950,108.7661941,36.36638266,1286.188821
3.0000,108.4475102,36.59170362,1286.370337
3.0050,108.1282019,36.81895149,1286.553787
3.0100,107.8091311,37.04752344,1286.738567
3.0150,107.4901605,37.27973373,1286.925501
3.0200,107.1714859,37.51514354,1287.114428
3.0250,106.8540462,37.75294275,1287.304681
3.0300,106.5383691,37.9950658,1287.496816
3.0350,106.224302,38.24109692,1287.690748
3.0400,105.9122399,38.49089152,1287.886295
3.0450,105.6023772,38.7439488,1288.083132
3.0500,105.2957455,39.00100769,1288.281055
3.0550,104.9922081,39.26228824,1288.480105
3.0600,104.6922945,39.52682625,1288.67965
3.0650,104.3976204,39.79439412,1288.878775
3.0700,104.1075806,40.06406856,1289.077497
3.0750,103.8233718,40.33538393,1289.274981
3.0800,103.5447339,40.60729471,1289.471057
3.0850,103.2715883,40.87831461,1289.665286
3.0900,103.003049,41.14708661,1289.857656
3.0950,102.7378758,41.41438893,1290.048832
3.1000,102.4771096,41.67905028,1290.238028
3.1050,102.2206792,41.94176354,1290.425289
3.1100,101.9685928,42.20260725,1290.610891
3.1150,101.7214348,42.46119994,1290.794257
3.1200,101.4795134,42.71786081,1290.975293
3.1250,101.2418003,42.97297777,1291.154685
3.1300,101.0089257,43.22749101,1291.332531
3.1350,100.7819775,43.48232644,1291.508635
3.1400,100.5593043,43.73668049,1291.683572
3.1450,100.3414367,43.99192921,1291.857582
3.1500,100.1277034,44.24829583,1292.030938
3.1550,99.91644636,44.50474001,1292.204118
3.1600,99.70819767,44.76085058,1292.376712
3.1650,99.50064115,45.01592153,1292.549667
3.1700,99.2929281,45.26962283,1292.723205
3.1750,99.08474068,45.51992526,1292.896715
3.1800,98.87347871,45.76614439,1293.071155
3.1850,98.65678772,46.00615899,1293.246839
3.1900,98.43389003,46.23952134,1293.42388
3.1950,98.20474651,46.46695484,1293.602518
3.2000,97.96861474,46.68592611,1293.782146
3.2050,97.72434478,46.89471603,1293.962772
3.2100,97.47041317,47.09333522,1294.145062
3.2150,97.20602646,47.28043665,1294.328956
3.2200,96.93141788,47.45672949,1294.514311
3.2250,96.64490095,47.62128762,1294.701712
3.2300,96.34750507,47.77474278,1294.890608
3.2350,96.04007634,47.91618014,1295.080356
3.2400,95.72319892,48.04578264,1295.27071
3.2450,95.39882068,48.16404224,1295.460824
3.2500,95.06796216,48.27145132,1295.65033
3.2550,94.73106916,48.36909426,1295.839395
3.2600,94.38921409,48.45789261,1296.027873
3.2650,94.04299972,48.53794894,1296.215616
3.2700,93.69454028,48.610201,1296.401725
3.2750,93.34588022,48.67413792,1296.585028
3.2800,92.99840062,48.73158232,1296.765482
3.2850,92.6530802,48.78265766,1296.942716
3.2900,92.31016389,48.82788396,1297.116769
3.2950,91.97006096,48.86659682,1297.287204
3.3000,91.63447296,48.89878989,1297.453058
3.3050,91.30229754,48.92486722,1297.61515
3.3100,90.97417827,48.94466139,1297.773145
3.3150,90.65040758,48.95733269,1297.926485
3.3200,90.33107312,48.96371304,1298.075375
3.3250,90.01814813,48.9655795,1298.219469
3.3300,89.71131395,48.96114425,1298.358154
3.3350,89.41184424,48.95191346,1298.491434
3.3400,89.11981805,48.93812581,1298.619356
3.3450,88.83555659,48.92061355,1298.74202
3.3500,88.5583216,48.89948069,1298.85997
3.3550,88.28758059,48.87504783,1298.973604
3.3600,88.02424325,48.84852619,1299.082888
3.3650,87.76698009,48.81953659,1299.188512
3.3700,87.51712288,48.78839074,1299.289678
3.3750,87.27436201,48.75552233,1299.386824
3.3800,87.03879981,48.72110171,1299.479927
3.3850,86.80951797,48.68573915,1299.56967
3.3900,86.58625951,48.64935011,1299.656227
3.3950,86.36936674,48.611345,1299.739291
3.4000,86.1575754,48.57294425,1299.82007
3.4050,85.95100319,48.53345551,1299.898221
3.4100,85.7495895,48.49314619,1299.973778
3.4150,85.55312007,48.45335631,1300.047373
3.4200,85.36104515,48.4140622,1300.11933
3.4250,85.17459882,48.37649675,1300.189436
3.4300,84.99237923,48.33954107,1300.258039
3.4350,84.8127675,48.30305482,1300.325939
3.4400,84.63683345,48.26758056,1300.392799
3.4450,84.46265326,48.23259124,1300.459418
3.4500,84.2901606,48.19857398,1300.525984
3.4550,84.11943701,48.16722439,1300.59309
3.4600,83.94889199,48.1385897,1300.66172
3.4650,83.77997296,48.11291686,1300.730954
3.4700,83.6123107,48.08927049,1300.800757
3.4750,83.44538782,48.06928024,1300.87197
3.4800,83.27929249,48.05238928,1300.944289
3.4850,83.11442693,48.03981695,1301.017915
3.4900,82.95026737,48.03073152,1301.092807
3.4950,82.78620468,48.02370218,1301.168684
3.5000,82.62268887,48.01978128,1301.245659
3.5050,82.45972314,48.01929692,1301.323838
3.5100,82.2983158,48.02140366,1301.402368
3.5150,82.13745669,48.02523741,1301.481361
3.5200,81.97760418,48.03009878,1301.560381
3.5250,81.8191755,48.03619876,1301.639294
3.5300,81.66180922,48.04228047,1301.717953
3.5350,81.50505184,48.04966706,1301.797009
3.5400,81.35049539,48.05715949,1301.874966
3.5450,81.19800891,48.06561082,1301.952298
3.5500,81.04899796,48.07491543,1302.027963
3.5550,80.905683,48.0853751,1302.100746
3.5600,80.76854525,48.09628099,1302.170084
3.5650,80.63847121,48.1075895,1302.235452
3.5700,80.51481133,48.1191049,1302.297189
3.5750,80.39757243,48.13151596,1302.355619
3.5800,80.28651805,48.14467205,1302.410714
3.5850,80.18231944,48.15812325,1302.461842
3.5900,80.08468547,48.17191247,1302.509117
3.5950,79.99409031,48.18581784,1302.552233
3.6000,79.91045951,48.19853038,1302.590703
3.6050,79.83410167,48.20942253,1302.62411
3.6100,79.76484439,48.21814857,1302.652331
3.6150,79.70149845,48.22393504,1302.675858
3.6200,79.64305938,48.2242351,1302.694357
3.6250,79.58721443,48.21837173,1302.708999
3.6300,79.53316968,48.20646219,1302.720413
3.6350,79.47963921,48.18705189,1302.728676
3.6400,79.42532983,48.1605644,1302.734652
3.6450,79.36973701,48.12705142,1302.738755
3.6500,79.31363604,48.08584183,1302.740191
3.6550,79.25497421,48.0374877,1302.740441
3.6600,79.19333562,47.98115208,1302.739539
3.6650,79.12780777,47.91800591,1302.738472
3.6700,79.05809265,47.84836898,1302.737674
3.6750,78.98345358,47.77208166,1302.73752
3.6800,78.90406134,47.69007704,1302.738273
3.6850,78.81999122,47.60256506,1302.74009
3.6900,78.7326539,47.51094651,1302.74265
3.6950,78.64138509,47.41624432,1302.746715
3.7000,78.54622818,47.31962149,1302.752667
3.7050,78.44822577,47.22212417,1302.760427
3.7100,78.34642612,47.12418857,1302.770713
3.7150,78.24294061,47.02792946,1302.783087
3.7200,78.13765452,46.93394365,1302.797952
3.7250,78.03055278,46.84205377,1302.815252
3.7300,77.92231096,46.75437357,1302.835263
3.7350,77.81399017,46.67071069,1302.857498
3.7400,77.70484252,46.59171676,1302.882528
3.7450,77.59700316,46.51798628,1302.909463
3.7500,77.48994943,46.44974819,1302.938759
3.7550,77.38424804,46.38694429,1302.970008
3.7600,77.28127375,46.33063491,1303.002755
3.7650,77.18074405,46.2811985,1303.037361
3.7700,77.08357829,46.23934021,1303.07341
3.7750,76.98945785,46.20526112,1303.111265
3.7800,76.89927226,46.17971112,1303.150811
3.7850,76.81299755,46.16232711,1303.191977
3.7900,76.73085153,46.15362635,1303.234806
3.7950,76.65323578,46.15379031,1303.279258
3.8000,76.57940436,46.16247524,1303.32572
3.8050,76.50955692,46.18007512,1303.374185
3.8100,76.443654,46.20656448,1303.424602
3.8150,76.383795,46.24207793,1303.475864
3.8200,76.32902358,46.28578969,1303.528171
3.8250,76.28118642,46.33799443,1303.580559
3.8300,76.24010324,46.39855813,1303.632926
3.8350,76.20649191,46.46681674,1303.684682
3.8400,76.1806447,46.54296675,1303.735838
3.8450,76.16109849,46.6259502,1303.786788
3.8500,76.14832881,46.7158887,1303.837449
3.8550,76.14083842,46.81142478,1303.888117
3.8600,76.13923824,46.91211664,1303.93815
3.8650,76.14253568,47.0176801,1303.987946
3.8700,76.15133737,47.12610008,1304.036446
3.8750,76.16455644,47.23643748,1304.08375
3.8800,76.18284944,47.34683618,1304.128755
3.8850,76.20529385,47.45706037,1304.171879
3.8900,76.23154628,47.56490844,1304.212387
3.8950,76.26129139,47.66978039,1304.250169
3.9000,76.29334336,47.77056868,1304.285559
3.9050,76.32644163,47.86700148,1304.319139
3.9100,76.36001391,47.95872619,1304.351219
3.9150,76.39446354,48.04520316,1304.381142
3.9200,76.42943249,48.12738523,1304.409508
3.9250,76.46530826,48.20495925,1304.435775
3.9300,76.50144404,48.27668565,1304.459912
3.9350,76.53724471,48.3423357,1304.482119
3.9400,76.57347248,48.40142099,1304.501752
3.9450,76.60853078,48.45268927,1304.519381
3.9500,76.6423285,48.49694048,1304.535235
3.9550,76.67628467,48.53358137,1304.548215
3.9600,76.70989169,48.563363,1304.558833
3.9650,76.74395143,48.58494291,1304.56612
3.9700,76.77822486,48.5994838,1304.570533
3.9750,76.81310197,48.60691365,1304.571878
3.9800,76.84776326,48.60742363,1304.570681
3.9850,76.8826708,48.60097168,1304.566551
3.9900,76.91761739,48.58804553,1304.559917
3.9950,76.95359223,48.56862867,1304.550153
4.0000,76.99087302,48.5421279,1304.536905
4.0050,77.03008842,48.50837705,1304.51965
4.0100,77.07173744,48.46861377,1304.498638
4.0150,77.11370798,48.42129371,1304.474608
4.0200,77.15706209,48.36740266,1304.447272
4.0250,77.20191393,48.30692569,1304.416477
4.0300,77.24852628,48.23934018,1304.381965
4.0350,77.29724041,48.16601173,1304.343981
4.0400,77.34872433,48.08741495,1304.302306
4.0450,77.4021903,48.00367892,1304.257533
4.0500,77.45908097,47.91614796,1304.209438
4.0550,77.51897966,47.82450176,1304.15816
4.0600,77.58220001,47.72957655,1304.103907
4.0650,77.64990894,47.63209024,1304.046329
4.0700,77.72156453,47.5337868,1303.986491
4.0750,77.79797485,47.43413441,1303.923758
4.0800,77.87890384,47.33337219,1303.858246
4.0850,77.96521658,47.23210444,1303.789801
4.0900,78.05800719,47.13112686,1303.717961
4.0950,78.15701159,47.03064377,1303.643116
4.1000,78.26202515,46.93072863,1303.565236
4.1050,78.37336524,46.83012745,1303.483911
4.1100,78.49132534,46.73037813,1303.399411
4.1150,78.61446931,46.63095907,1303.312448
4.1200,78.74393088,46.53220131,1303.22259
4.1250,78.87928615,46.43402688,1303.130005
4.1300,79.02112833,46.33587109,1303.034211
4.1350,79.16864697,46.23687569,1302.935358
4.1400,79.32173183,46.13775229,1302.833625
4.1450,79.48183141,46.03771607,1302.72786
4.1500,79.64767994,45.93620058,1302.618575
4.1550,79.81894391,45.83314284,1302.505945
4.1600,79.99464586,45.72836078,1302.390546
4.1650,80.17425857,45.62073747,1302.272223
4.1700,80.35769012,45.51086485,1302.151208
4.1750,80.54520005,45.39933815,1302.02768
4.1800,80.73600509,45.28638596,1301.902246
4.1850,80.9292046,45.17211253,1301.775518
4.1900,81.12564658,45.05711052,1301.647362
4.1950,81.32532716,44.94181419,1301.517978
4.2000,81.52858919,44.8279837,1301.387737
4.2050,81.7357757,44.71536772,1301.256432
4.2100,81.94730663,44.60489404,1301.124107
4.2150,82.1625961,44.49674531,1300.991246
4.2200,82.38255929,44.39008346,1300.856993
4.2250,82.60583286,44.28437162,1300.721954
4.2300,82.83342219,44.18035947,1300.58581
4.2350,83.06535443,44.07755468,1300.448447
4.2400,83.30122577,43.97626873,1300.310206
4.2450,83.54170041,43.87624038,1300.170538
4.2500,83.7870582,43.77651473,1300.029093
4.2550,84.03658315,43.67786608,1299.886665
4.2600,84.29096459,43.57895825,1299.742334
4.2650,84.55014772,43.48042968,1299.596308
4.2700,84.81555643,43.3818322,1299.447668
4.2750,85.08816751,43.28339458,1299.296021
4.2800,85.36788597,43.18444669,1299.141178
4.2850,85.65511804,43.08486717,1298.982903
4.2900,85.95052588,42.98405538,1298.820543
4.2950,86.25268771,42.88101838,1298.654646
4.3000,86.56259755,42.77568691,1298.484636
4.3050,86.87841873,42.66894406,1298.311983
4.3100,87.20054846,42.55961894,1298.136099
4.3150,87.52939344,42.44881585,1297.957248
4.3200,87.86474212,42.33671896,1297.775558
4.3250,88.20670135,42.22414566,1297.591328
4.3300,88.55556467,42.11206295,1297.40487
4.3350,88.91276712,42.00098307,1297.215573
4.3400,89.27766971,41.89060458,1297.023736
4.3450,89.65074623,41.78091976,1296.829068
4.3500,90.03142965,41.67141423,1296.631695
4.3550,90.41964736,41.56217409,1296.431703
4.3600,90.81501965,41.45240257,1296.229115
4.3650,91.21637932,41.3421956,1296.02441
4.3700,91.62202795,41.23067824,1295.818285
4.3750,92.0316802,41.11766209,1295.610799
4.3800,92.44529658,41.00426483,1295.402347
4.3850,92.86188619,40.89030691,1295.193328
4.3900,93.28185414,40.77589928,1294.983715
4.3950,93.70422051,40.66168611,1294.774099
4.4000,94.12985647,40.54801119,1294.564286
4.4050,94.55799708,40.43451332,1294.354345
4.4100,94.98778137,40.31977981,1294.144361
4.4150,95.41977471,40.20434338,1293.93422
4.4200,95.85221993,40.08748645,1293.724475
4.4250,96.28461313,39.9691273,1293.515233
4.4300,96.71652599,39.84950271,1293.306911
4.4350,97.14756517,39.72859565,1293.099529
4.4400,97.57620956,39.60636771,1292.893945
4.4450,98.00252783,39.48328873,1292.690199
4.4500,98.42584634,39.35960396,1292.488694
4.4550,98.84651404,39.23575154,1292.289459
4.4600,99.26510071,39.11222744,1292.09224
4.4650,99.68253792,38.9894563,1291.896713
4.4700,100.0990209,38.86804817,1291.702939
4.4750,100.514297,38.74668475,1291.510544
4.4800,100.928688,38.62504731,1291.31914
4.4850,101.3427131,38.5022298,1291.128085
4.4900,101.7562469,38.3783153,1290.937326
4.4950,102.1686535,38.25227807,1290.746794
4.5000,102.579819,38.12291088,1290.556118
4.5050,102.990372,37.9891315,1290.36461
4.5100,103.3992907,37.84983669,1290.172347
4.5150,103.8064415,37.70535456,1289.97951
4.5200,104.2118101,37.55453359,1289.785712
4.5250,104.6151563,37.398377,1289.591453
4.5300,105.0161536,37.23634198,1289.396659
4.5350,105.4143116,37.06755999,1289.201275
4.5400,105.8094168,36.8914955,1289.005161
4.5450,106.2010552,36.70773158,1288.80841
4.5500,106.5885356,36.51688751,1288.611526
4.5550,106.9734592,36.3178604,1288.41341
4.5600,107.3568669,36.1116837,1288.213994
4.5650,107.7384697,35.89846408,1288.013557
4.5700,108.1179786,35.67675767,1287.811718
4.5750,108.4940627,35.44732728,1287.609282
4.5800,108.8678111,35.2101455,1287.405745
4.5850,109.2381421,34.96592758,1287.201746
4.5900,109.6045179,34.71509261,1286.997702
4.5950,109.9675171,34.45890092,1286.793629
4.6000,110.326081,34.19874558,1286.590384
4.6050,110.6818715,33.9352069,1286.387331
4.6100,111.035321,33.66885944,1286.184472
4.6150,111.3868982,33.39928952,1285.98131
4.6200,111.7372274,33.12727341,1285.777786
4.6250,112.0868453,32.85297379,1285.573813
4.6300,112.4356229,32.57582324,1285.369144
4.6350,112.7818205,32.29444916,1285.164129
4.6400,113.1267934,32.00851564,1284.958122
4.6450,113.4691973,31.71841428,1284.751878
4.6500,113.8099812,31.42451035,1284.545033
4.6550,114.1480633,31.12680219,1284.338087
4.6600,114.4841175,30.82599084,1284.130909
4.6650,114.8176681,30.52317141,1283.924189
4.6700,115.1516206,30.21803047,1283.716625
4.6750,115.4861424,29.91191938,1283.508776
4.6800,115.8218398,29.604402,1283.300359
4.6850,116.1595431,29.29545906,1283.091061
4.6900,116.4986269,28.98620394,1282.881639
4.6950,116.841875,28.67569716,1282.670847
4.7000,117.1889849,28.36516125,1282.459203
4.7050,117.5405804,28.0560322,1282.247038
4.7100,117.8990319,27.74950093,1282.033769
4.7150,118.2628845,27.44590591,1281.820157
4.7200,118.6322113,27.14666884,1281.606689
4.7250,119.0080749,26.8518926,1281.393058
4.7300,119.3888211,26.56220229,1281.179944
4.7350,119.77513,26.27855814,1280.967553
4.7400,120.1677963,26.00131437,1280.755653
4.7450,120.5661351,25.73172705,1280.544898
4.7500,120.9720587,25.46978318,1280.334571
4.7550,121.3842198,25.21549645,1280.125147
4.7600,121.8020379,24.96886705,1279.916941
4.7650,122.2252335,24.72905341,1279.709761
4.7700,122.6522852,24.4964481,1279.504427
4.7750,123.0829023,24.27024581,1279.300723
4.7800,123.5161241,24.05044724,1279.099003
4.7850,123.9515069,23.83585041,1278.899158
4.7900,124.3862501,23.62652727,1278.702314
4.7950,124.8202966,23.42188244,1278.508299
4.8000,125.2510091,23.221823,1278.317976
4.8050,125.6778231,23.02647279,1278.131498
4.8100,126.1002387,22.83502938,1277.948792
4.8150,126.5165762,22.64670307,1277.770145
4.8200,126.927265,22.4619715,1277.595454
4.8250,127.3315965,22.28006376,1277.424599
4.8300,127.7294254,22.09942785,1277.257057
4.8350,128.1215316,21.92113362,1277.092753
4.8400,128.507525,21.74449798,1276.931581
4.8450,128.8884484,21.56911282,1276.772915
4.8500,129.2631812,21.39314013,1276.616527
4.8550,129.630039,21.21697846,1276.463062
4.8600,129.9875956,21.04004596,1276.31267
4.8650,130.3356318,20.86108346,1276.164928
4.8700,130.6728595,20.68070885,1276.020494
4.8750,131.0003791,20.49836637,1275.87876
4.8800,131.3176241,20.31449923,1275.739972
4.8850,131.6260843,20.12979641,1275.603783
4.8900,131.9269244,19.94434252,1275.469817
4.8950,132.2203311,19.75870196,1275.338108
4.9000,132.5075709,19.57166334,1275.208018
4.9050,132.7881299,19.38209141,1275.079381
4.9100,133.0613103,19.19014751,1274.952393
4.9150,133.3261609,18.9946823,1274.827131
4.9200,133.5830921,18.79355989,1274.702938
4.9250,133.8315027,18.58687156,1274.579909
4.9300,134.0713809,18.37477307,1274.458123
4.9350,134.3026298,18.15802913,1274.337766
4.9400,134.5241602,17.93720049,1274.219279
4.9450,134.7369164,17.71168399,1274.102012
4.9500,134.9395003,17.48191564,1273.986489
4.9550,135.1349087,17.24809744,1273.8718
4.9600,135.322528,17.01006507,1273.757858
4.9650,135.5050603,16.76529996,1273.643185
4.9700,135.6824313,16.51485132,1273.527991
4.9750,135.8552874,16.25698452,1273.411573
4.9800,136.0233349,15.99080799,1273.293856
4.9850,136.1865416,15.71660538,1273.175003
4.9900,136.3460992,15.4334461,1273.05435
4.9950,136.5018258,15.14229919,1272.932166
5.0000,136.6536002,14.84277175,1272.808456
5.0050,136.8037895,14.53659918,1272.682957
5.0100,136.9508879,14.22355627,1272.556132
5.0150,137.0978868,13.90557038,1272.42762
5.0200,137.2456378,13.58319333,1272.297261
5.0250,137.3949372,13.25791032,1272.165302
5.0300,137.5477646,12.93085601,1272.031544
5.0350,137.7045684,12.60362363,1271.896266
5.0400,137.8656461,12.27546172,1271.759278
5.0450,138.0314862,11.94725469,1271.620784
5.0500,138.2011754,11.6196979,1271.481291
5.0550,138.3765327,11.29423595,1271.340721
5.0600,138.5587999,10.9716393,1271.198921
5.0650,138.7484897,10.65367427,1271.056246
5.0700,138.9469668,10.34054066,1270.912236
5.0750,139.1540186,10.03268903,1270.767129
5.0800,139.3693004,9.730231911,1270.621091
5.0850,139.5919553,9.433804525,1270.474547
5.0900,139.8234136,9.144189154,1270.327226
5.0950,140.0623705,8.860242626,1270.179192
5.1000,140.3098174,8.582367457,1270.03029
5.1050,140.5636038,8.30994,1269.880909
5.1100,140.822331,8.042158877,1269.731268
5.1150,141.0867606,7.777769333,1269.580881
5.1200,141.3551894,7.516619059,1269.430173
5.1250,141.6279129,7.257494633,1269.278936
5.1300,141.9034032,7.00108889,1269.127745
5.1350,142.1804904,6.746687534,1268.976845
5.1400,142.4591244,6.495280628,1268.82647
5.1450,142.7375868,6.246118616,1268.676925
5.1500,143.016042,6.000462146,1268.5285
5.1550,143.2947482,5.758363313,1268.381006
5.1600,143.5735672,5.51947175,1268.23465
5.1650,143.852768,5.285847609,1268.089775
5.1700,144.1324134,5.056073757,1267.94606
5.1750,144.4122395,4.83139119,1267.803821
5.1800,144.6911934,4.610970282,1267.663203
5.1850,144.9688724,4.393944331,1267.524024
5.1900,145.2427437,4.179205315,1267.386564
5.1950,145.5134165,3.965786761,1267.25043
5.2000,145.7792164,3.753138791,1267.115755
5.2050,146.0393742,3.540765482,1266.982588
5.2100,146.2938154,3.327291692,1266.850596
5.2150,146.5420104,3.11320951,1266.719923
5.2200,146.7821671,2.898857865,1266.590963
5.2250,147.0140115,2.682823048,1266.463438
5.2300,147.2367325,2.464799976,1266.337357
5.2350,147.4502597,2.244517003,1266.212642
5.2400,147.6554608,2.021464553,1266.088944
5.2450,147.8526512,1.795346459,1265.966152
5.2500,148.0416283,1.566158513,1265.844355
5.2550,148.2204341,1.333248276,1265.723716
5.2600,148.3900725,1.096705105,1265.604154
5.2650,148.5500807,0.8571356729,1265.485787
5.2700,148.7006477,0.6148350026,1265.368645
5.2750,148.8424188,0.3710752802,1265.252692
5.2800,148.9765409,0.1273124394,1265.137986
5.2850,149.1040451,-0.1160636524,1265.024327
5.2900,149.2248798,-0.3580004148,1264.911985
5.2950,149.3398198,-0.5981254189,1264.800943
5.3000,149.4498635,-0.8360920714,1264.691089
5.3050,149.5541764,-1.071751666,1264.582666
5.3100,149.6539969,-1.304145244,1264.475684
5.3150,149.7480823,-1.533971843,1264.370222
5.3200,149.8375566,-1.761250817,1264.266099
5.3250,149.9212545,-1.986371214,1264.163461
5.3300,149.9984391,-2.20965185,1264.062376
5.3350,150.0717523,-2.431471107,1263.962156
5.3400,150.140715,-2.651703523,1263.862962
5.3450,150.2055269,-2.871326481,1263.764467
5.3500,150.2670939,-3.089431749,1263.666589
5.3550,150.3250576,-3.306781069,1263.569272
5.3600,150.3779436,-3.522313941,1263.473015
5.3650,150.425558,-3.735941721,1263.377923
5.3700,150.4678375,-3.94748617,1263.284021
5.3750,150.504975,-4.154749342,1263.191743
5.3800,150.5370922,-4.357604115,1263.101189
5.3850,150.565545,-4.55443144,1263.012284
5.3900,150.5904114,-4.745731324,1262.924854
5.3950,150.6121319,-4.931018751,1262.838911
5.4000,150.6313622,-5.10970231,1262.754335
5.4050,150.6497707,-5.281172359,1262.670966
5.4100,150.6680457,-5.444912356,1262.588668
5.4150,150.6862826,-5.600001126,1262.507609
5.4200,150.7044368,-5.746020186,1262.42783
5.4250,150.7227485,-5.882758323,1262.349228
5.4300,150.7416745,-6.010309297,1262.27174
5.4350,150.7606217,-6.127554252,1262.19567
5.4400,150.7802838,-6.235603269,1262.120676
5.4450,150.8008874,-6.333010018,1262.047029
5.4500,150.8225019,-6.41974707,1261.974818
5.4550,150.8453798,-6.497189054,1261.903824
5.4600,150.8690887,-6.564835754,1261.834165
5.4650,150.8935128,-6.625320719,1261.76545
5.4700,150.9180522,-6.677614997,1261.697966
5.4750,150.9431312,-6.72408247,1261.631157
5.4800,150.9690023,-6.764641877,1261.564891
5.4850,150.9964369,-6.799979152,1261.498962
5.4900,151.0265425,-6.830205553,1261.433181
5.4950,151.0602128,-6.856035701,1261.367225
5.5000,151.0974477,-6.876762508,1261.301334
5.5050,151.1373293,-6.892506512,1261.235552
5.5100,151.1801632,-6.902385929,1261.169946
5.5150,151.2257392,-6.90695088,1261.104512
5.5200,151.2751258,-6.90619308,1261.039035
5.5250,151.327527,-6.900429023,1260.973519
5.5300,151.3835863,-6.889854739,1260.907857
5.5350,151.4435731,-6.875407645,1260.841757
5.5400,151.5073704,-6.858277558,1260.775016
5.5450,151.57454,-6.838991017,1260.707695
5.5500,151.6458652,-6.81958094,1260.639242
5.5550,151.721149,-6.800219065,1260.56972
5.5600,151.7994663,-6.782317603,1260.499004
5.5650,151.8808497,-6.764880987,1260.427261
5.5700,151.9643328,-6.74850757,1260.354531
5.5750,152.0496768,-6.733849101,1260.280851
5.5800,152.1364974,-6.721454603,1260.206208
5.5850,152.2240972,-6.711228038,1260.130721
5.5900,152.3126696,-6.703045349,1260.054461
5.5950,152.4022812,-6.697736821,1259.977274
5.6000,152.4926512,-6.694195158,1259.899462
5.6050,152.583936,-6.693296324,1259.820867
5.6100,152.675868,-6.695435936,1259.741335
5.6150,152.7689939,-6.699400557,1259.661126
5.6200,152.8628809,-6.705551997,1259.580203
5.6250,152.9580689,-6.712317235,1259.498652
5.6300,153.0554663,-6.719775015,1259.416206
5.6350,153.1520288,-6.727493782,1259.333453
5.6400,153.2480723,-6.735224608,1259.250195
5.6450,153.3427937,-6.742254284,1259.16669
5.6500,153.4355175,-6.749459851,1259.082798
5.6550,153.5261242,-6.756341743,1258.998634
5.6600,153.6144551,-6.764312275,1258.913923
5.6650,153.6993687,-6.774238149,1258.828663
5.6700,153.779732,-6.785392534,1258.743253
5.6750,153.85584,-6.799189647,1258.657391
5.6800,153.9271486,-6.81595394,1258.571126
5.6850,153.9931534,-6.836128704,1258.484538
5.6900,154.0530644,-6.860037471,1258.397812
5.6950,154.1067167,-6.884927812,1258.311511
5.7000,154.1528289,-6.91333908,1258.22555
5.7050,154.1920491,-6.94407837,1258.140041
5.7100,154.2247438,-6.977427889,1258.055003
5.7150,154.2512003,-7.01255498,1257.970554
5.7200,154.2710552,-7.04934517,1257.886908
5.7250,154.2849902,-7.087665275,1257.80409
5.7300,154.2940925,-7.126296613,1257.722134
5.7350,154.3006945,-7.165874531,1257.640555
5.7400,154.3044003,-7.205431369,1257.559664
5.7450,154.3062117,-7.243787706,1257.479465
5.7500,154.3079409,-7.280874327,1257.399651
5.7550,154.3104653,-7.315836352,1257.320289
5.7600,154.3153977,-7.348714213,1257.241112
5.7650,154.3237443,-7.378007516,1257.162131
5.7700,154.3367384,-7.403141299,1257.083218
5.7750,154.3545356,-7.424158598,1257.004322
5.7800,154.3782018,-7.440662899,1256.925271
5.7850,154.4065311,-7.452567361,1256.84626
5.7900,154.4404199,-7.46016675,1256.766934
5.7950,154.4785195,-7.463847125,1256.687418
5.8000,154.5209689,-7.463442063,1256.607641
5.8050,154.5687288,-7.460568419,1256.527127
5.8100,154.6209986,-7.455973779,1256.445918
5.8150,154.6778688,-7.450450435,1256.363814
5.8200,154.7374985,-7.444855725,1256.281044
5.8250,154.7997871,-7.438915804,1256.197671
5.8300,154.8636635,-7.434385863,1256.113647
5.8350,154.9275576,-7.43180162,1256.029154
5.8400,154.9913101,-7.430905744,1255.94423
5.8450,155.0540425,-7.430585416,1255.859119
5.8500,155.1158781,-7.431765128,1255.773659
5.8550,155.1777517,-7.433433552,1255.687906
5.8600,155.2391586,-7.434705905,1255.602142
5.8650,155.2988856,-7.436448093,1255.516455
5.8700,155.3576482,-7.43829359,1255.430876
5.8750,155.4145095,-7.438745238,1255.345868
5.8800,155.4696621,-7.437730019,1255.261449
5.8850,155.5238951,-7.43526617,1255.177591
5.8900,155.5768968,-7.430991855,1255.094387
5.8950,155.6287108,-7.423630743,1255.012124
5.9000,155.6787861,-7.414850329,1254.930569
5.9050,155.7268842,-7.403513779,1254.850054
5.9100,155.7736721,-7.39072083,1254.770231
5.9150,155.8178455,-7.376246276,1254.691281
5.9200,155.8598807,-7.35947532,1254.613146
5.9250,155.8990567,-7.341561864,1254.535678
5.9300,155.9332061,-7.322793967,1254.4592
5.9350,155.9639084,-7.303698962,1254.383307
5.9400,155.9902942,-7.282930638,1254.308335
5.9450,156.0122037,-7.261716806,1254.234059
5.9500,156.0293202,-7.239079769,1254.160804
5.9550,156.0408818,-7.215698747,1254.088463
5.9600,156.0473041,-7.192094602,1254.016898
5.9650,156.048258,-7.16749623,1253.946272
5.9700,156.0441413,-7.1433883,1253.876324
5.9750,156.0344666,-7.120428939,1253.806975
5.9800,156.019043,-7.097898727,1253.738387
5.9850,155.9979072,-7.076348654,1253.670379
5.9900,155.972104,-7.055461911,1253.602913
5.9950,155.9411141,-7.037431419,1253.535602
6.0000,155.9066868,-7.020338327,1253.468567
6.0050,155.8684759,-7.004377815,1253.4018
6.0100,155.82649,-6.98971192,1253.335291
6.0150,155.7814468,-6.976705538,1253.268952
6.0200,155.7348408,-6.96444611,1253.202725
6.0250,155.6873864,-6.953253315,1253.136481
6.0300,155.6396715,-6.942208082,1253.07041
6.0350,155.5933998,-6.931160074,1253.004306
6.0400,155.5487528,-6.91991604,1252.938174
6.0450,155.5077838,-6.910226871,1252.87154
6.0500,155.4701899,-6.900428765,1252.804686
6.0550,155.4377872,-6.891751013,1252.737064
6.0600,155.4109374,-6.883151607,1252.668827
6.0650,155.3914591,-6.874846086,1252.59975
6.0700,155.3785434,-6.868268243,1252.529707
6.0750,155.3738335,-6.862237717,1252.458721
6.0800,155.3770361,-6.857626815,1252.386746
6.0850,155.3892185,-6.85432245,1252.313687
6.0900,155.4099498,-6.852246694,1252.239728
6.0950,155.4399699,-6.850772482,1252.164925
6.1000,155.479172,-6.851851743,1252.089087
6.1050,155.5266532,-6.853544136,1252.012711
6.1100,155.5831172,-6.856351418,1251.935646
6.1150,155.6481041,-6.859719399,1251.858059
6.1200,155.7227496,-6.864760722,1251.779532
6.1250,155.8058038,-6.871073213,1251.70031
6.1300,155.8965435,-6.879408096,1251.620305
6.1350,155.9956684,-6.88888168,1251.53957
6.1400,156.1021146,-6.900231563,1251.458173
6.1450,156.2144434,-6.915307811,1251.375933
6.1500,156.3312339,-6.932435775,1251.293293
6.1550,156.4514407,-6.953485749,1251.210188
6.1600,156.5747978,-6.978649727,1251.126555
6.1650,156.6996,-7.006984023,1251.042834
6.1700,156.8255124,-7.039709355,1250.958897
6.1750,156.9527369,-7.077925171,1250.87443
6.1800,157.0793766,-7.121132406,1250.789867
6.1850,157.2044884,-7.169567931,1250.705132
6.1900,157.3282562,-7.223447552,1250.62027
6.1950,157.4487782,-7.282617135,1250.535458
6.2000,157.5672377,-7.347224271,1250.450574
6.2050,157.6817781,-7.417999651,1250.365618
6.2100,157.7913191,-7.493200717,1250.281206
6.2150,157.8960503,-7.574267765,1250.19703
6.2200,157.995379,-7.661372492,1250.11306
6.2250,158.0882502,-7.75504355,1250.029478
6.2300,158.1747592,-7.854207195,1249.946389
6.2350,158.2537449,-7.958946499,1249.863883
6.2400,158.3243472,-8.069825088,1249.782024
6.2450,158.3856656,-8.186249772,1249.701012
6.2500,158.4378806,-8.30865529,1249.620641
6.2550,158.479528,-8.436544729,1249.541201
6.2600,158.5099109,-8.568444193,1249.462933
6.2650,158.5294472,-8.705518226,1249.385572
6.2700,158.5375119,-8.846725581,1249.309187
6.2750,158.5341851,-8.991843743,1249.233774
6.2800,158.5200603,-9.141119215,1249.15919
6.2850,158.4949441,-9.293484296,1249.08568
6.2900,158.4597675,-9.449988346,1249.012906
6.2950,158.4147764,-9.609327983,1248.941119
6.3000,158.3601519,-9.772109926,1248.870143
6.3050,158.2969298,-9.938053528,1248.799997
6.3100,158.2260168,-10.10513121,1248.730862
6.3150,158.1494397,-10.27344734,1248.662461
6.3200,158.0669728,-10.44307634,1248.594795
6.3250,157.9807605,-10.61207391,1248.527909
6.3300,157.8914441,-10.78135014,1248.461499
6.3350,157.7996723,-10.94955937,1248.395743
6.3400,157.7068531,-11.11719806,1248.330342
6.3450,157.6133282,-11.28242897,1248.265423
6.3500,157.5216653,-11.44629201,1248.200412
6.3550,157.4303485,-11.60719912,1248.13581
6.3600,157.3397255,-11.76535625,1248.071519
6.3650,157.2493213,-11.92151747,1248.007314
6.3700,157.1607201,-12.07399991,1247.943299
6.3750,157.0721741,-12.22331339,1247.87957
6.3800,156.9854231,-12.36847547,1247.815999
6.3850,156.9005046,-12.510451,1247.752323
6.3900,156.8164676,-12.648808,1247.688726
6.3950,156.7334734,-12.78331315,1247.625193
6.4000,156.6507747,-12.91308422,1247.561928
6.4050,156.5695843,-13.03929689,1247.498585
6.4100,156.4895598,-13.16249788,1247.435073
6.4150,156.4096906,-13.28246764,1247.371588
6.4200,156.329221,-13.39937568,1247.30822
6.4250,156.249211,-13.5137913,1247.244774
6.4300,156.1693838,-13.62597105,1247.181231
6.4350,156.0902666,-13.73552812,1247.117666
6.4400,156.011015,-13.84376798,1247.053982
6.4450,155.9322667,-13.94936253,1246.990321
6.4500,155.8548328,-14.05338378,1246.926505
6.4550,155.7784773,-14.15562796,1246.862482
6.4600,155.7034973,-14.25725128,1246.79818
6.4650,155.6311217,-14.35890429,1246.733339
6.4700,155.5603771,-14.45924164,1246.668276
6.4750,155.4923426,-14.5585489,1246.602891
6.4800,155.4275809,-14.65733543,1246.536941
6.4850,155.3673849,-14.75518158,1246.470452
6.4900,155.3101387,-14.85276951,1246.403531
6.4950,155.2573259,-14.95014184,1246.336073
6.5000,155.2075836,-15.04688549,1246.268255
6.5050,155.1616383,-15.14361623,1246.200042
6.5100,155.1200894,-15.24139078,1246.131175
6.5150,155.0829608,-15.33982766,1246.061717
6.5200,155.0498409,-15.43858944,1245.99198
6.5250,155.0219593,-15.53812302,1245.921691
6.5300,155.00074,-15.63856843,1245.850666
6.5350,154.9866976,-15.74099925,1245.778738
6.5400,154.9791269,-15.84415217,1245.70634
6.5450,154.9806877,-15.94911753,1245.632947
6.5500,154.9899808,-16.05532026,1245.558936
6.5550,155.009196,-16.16275115,1245.484038
6.5600,155.0378629,-16.2735647,1245.408127
6.5650,155.0757129,-16.38599692,1245.33155
6.5700,155.123055,-16.50103607,1245.254179
6.5750,155.1799006,-16.61791118,1245.176237
6.5800,155.2467421,-16.73666497,1245.097692
6.5850,155.3223251,-16.85921084,1245.018435
6.5900,155.4047911,-16.9837451,1244.939
6.5950,155.4946701,-17.1105803,1244.859229
6.6000,155.5912533,-17.2396556,1244.779156
6.6050,155.6941992,-17.37127732,1244.698757
6.6100,155.8021929,-17.50632967,1244.618086
6.6150,155.9137964,-17.64351894,1244.537539
6.6200,156.0295653,-17.78301608,1244.457039
6.6250,156.1469632,-17.92514915,1244.376797
6.6300,156.2652848,-18.0686737,1244.297157
6.6350,156.3819592,-18.21370155,1244.218374
6.6400,156.4953604,-18.35862022,1244.14088
6.6450,156.604919,-18.5040229,1244.064623
6.6500,156.7083369,-18.65022318,1243.98998
6.6550,156.8062506,-18.79675028,1243.916895
6.6600,156.8974267,-18.94342442,1243.845454
6.6650,156.9812454,-19.08957316,1243.775903
6.6700,157.0564605,-19.23524146,1243.708394
6.6750,157.1240393,-19.38039435,1243.642727
6.6800,157.1810729,-19.52460681,1243.579357
6.6850,157.2266179,-19.66809259,1243.518467
6.6900,157.2604871,-19.80953878,1243.460153
6.6950,157.2828946,-19.94942195,1243.404352
6.7000,157.293516,-20.08790343,1243.351033
6.7050,157.2922142,-20.22609283,1243.299997
6.7100,157.2776408,-20.36279457,1243.251609
6.7150,157.2518468,-20.49859154,1243.205435
6.7200,157.2144046,-20.63370391,1243.161517
6.7250,157.1649816,-20.76890062,1243.119732
6.7300,157.1046633,-20.90376659,1243.079846
6.7350,157.0316305,-21.03946205,1243.041829
6.7400,156.947368,-21.17449037,1243.005569
6.7450,156.8520455,-21.31030232,1242.970868
6.7500,156.7457303,-21.44642393,1242.937568
6.7550,156.6277014,-21.58226646,1242.905827
6.7600,156.4988549,-21.71674119,1242.875435
6.7650,156.3581977,-21.85050771,1242.846319
6.7700,156.2070163,-21.98342349,1242.818239
6.7750,156.0442114,-22.11506836,1242.79132
6.7800,155.8702567,-22.24519445,1242.76542
6.7850,155.6841602,-22.37293029,1242.7407
6.7900,155.4872727,-22.49839438,1242.716921
6.7950,155.2789812,-22.62120884,1242.694178
6.8000,155.0606806,-22.74052487,1242.672451
6.8050,154.8337799,-22.85602561,1242.651516
6.8100,154.5984055,-22.96700178,1242.631451
6.8150,154.3556177,-23.07423276,1242.61205
6.8200,154.1069973,-23.17748179,1242.593111
6.8250,153.8529475,-23.27694531,1242.574601
6.8300,153.594804,-23.37286584,1242.556383
6.8350,153.3318264,-23.46495114,1242.538617
6.8400,153.0669945,-23.55406074,1242.520824
6.8450,152.8006529,-23.64022372,1242.503085
6.8500,152.5343901,-23.72472157,1242.485044
6.8550,152.2693727,-23.80770391,1242.46656
6.8600,152.0074187,-23.88863499,1242.447595
6.8650,151.7503377,-23.96846374,1242.427762
6.8700,151.4986347,-24.04767433,1242.407181
6.8750,151.2528833,-24.12669125,1242.38564
6.8800,151.0138962,-24.20531191,1242.363132
6.8850,150.7834384,-24.28383035,1242.339478
6.8900,150.5626405,-24.36288676,1242.314467
6.8950,150.351478,-24.44278924,1242.288253
6.9000,150.1493468,-24.52259766,1242.261122
6.9050,149.9562432,-24.6028696,1242.23314
6.9100,149.7727053,-24.68258068,1242.204351
6.9150,149.598473,-24.76238328,1242.174847
6.9200,149.4317099,-24.84168466,1242.145074
6.9250,149.2728432,-24.92039257,1242.115055
6.9300,149.1226051,-24.99737046,1242.084849
6.9350,148.9802897,-25.07341934,1242.054508
6.9400,148.847049,-25.14880789,1242.02395
6.9450,148.7227156,-25.22234254,1241.993469
6.9500,148.6065261,-25.29394088,1241.963146
6.9550,148.4985278,-25.36247129,1241.933074
6.9600,148.3987143,-25.42814654,1241.903393
6.9650,148.3072356,-25.49073163,1241.874157
6.9700,148.2240833,-25.54968434,1241.845437
6.9750,148.1493101,-25.60457182,1241.817401
6.9800,148.0846487,-25.65643111,1241.789702
6.9850,148.0308908,-25.70345084,1241.762406
6.9900,147.988937,-25.7462162,1241.735404
6.9950,147.9587904,-25.78519007,1241.708626
7.0000,147.9414658,-25.82022152,1241.681925
7.0050,147.936226,-25.84979671,1241.655668
7.0100,147.9448576,-25.87381902,1241.629481
7.0150,147.966646,-25.89373433,1241.603463
7.0200,148.0015746,-25.90703778,1241.577709
7.0250,148.0486902,-25.91457486,1241.55234
7.0300,148.1066219,-25.91585093,1241.527669
7.0350,148.1750789,-25.91125916,1241.503568
7.0400,148.2519542,-25.90075756,1241.480395
7.0450,148.3354769,-25.88384178,1241.458389
7.0500,148.4242161,-25.86042494,1241.437788
7.0550,148.5178108,-25.83020607,1241.418589
7.0600,148.6127113,-25.79355794,1241.401329
7.0650,148.7096033,-25.7498581,1241.385814
7.0700,148.8058027,-25.70042223,1241.372367
7.0750,148.9006011,-25.64361394,1241.361189
7.0800,148.9927858,-25.57975883,1241.352439
7.0850,149.081716,-25.5103815,1241.345944
7.0900,149.1654325,-25.43443078,1241.342005
7.0950,149.2436711,-25.35336907,1241.34036
7.1000,149.3158716,-25.26667478,1241.341084
7.1050,149.3819412,-25.17434832,1241.344102
7.1100,149.440987,-25.07732421,1241.349416
7.1150,149.4925768,-24.9751176,1241.357115
7.1200,149.5366716,-24.86876455,1241.367055
7.1250,149.5734733,-24.75771837,1241.379205
7.1300,149.6018698,-24.64208787,1241.393794
7.1350,149.6230208,-24.52304161,1241.410558
7.1400,149.6367242,-24.40124353,1241.429328
7.1450,149.6413359,-24.276615,1241.450353
7.1500,149.6380032,-24.14947089,1241.473494
7.1550,149.625577,-24.02132224,1241.498786
7.1600,149.6044142,-23.8917533,1241.526252
7.1650,149.5736921,-23.76339073,1241.555787
7.1700,149.53379,-23.63553335,1241.587286
7.1750,149.4857079,-23.50925551,1241.620688
7.1800,149.4289672,-23.38627154,1241.65587
7.1850,149.3643627,-23.26585101,1241.692892
7.1900,149.2917955,-23.14963887,1241.731736
7.1950,149.2130857,-23.03847793,1241.772073
7.2000,149.131115,-22.93318871,1241.813506
7.2050,149.046483,-22.83451504,1241.855932
7.2100,148.9616544,-22.74411094,1241.899024
7.2150,148.8786792,-22.66172002,1241.94252
7.2200,148.8003564,-22.58851216,1241.986031
7.2250,148.7279491,-22.52449407,1242.029471
7.2300,148.6634548,-22.47169417,1242.072357
7.2350,148.6095595,-22.42972194,1242.114388
7.2400,148.5674184,-22.39928039,1242.155372
7.2450,148.5384716,-22.38117487,1242.194989
7.2500,148.5247636,-22.37430113,1242.233143
7.2550,148.5276959,-22.37953036,1242.269574
7.2600,148.5467534,-22.3967237,1242.304341
7.2650,148.5831685,-22.42496438,1242.337444
7.2700,148.6377807,-22.46426228,1242.368658
7.2750,148.7093119,-22.51353409,1242.398403
7.2800,148.7967457,-22.57158402,1242.42689
7.2850,148.8992667,-22.63840214,1242.454205
7.2900,149.0158807,-22.71289395,1242.480569
7.2950,149.144138,-22.79494218,1242.50641
7.3000,149.2835124,-22.88278041,1242.531935
7.3050,149.4324984,-22.97641399,1242.557333
7.3100,149.5882408,-23.07549126,1242.583113
7.3150,149.7487569,-23.17821863,1242.609647
7.3200,149.9136371,-23.28490747,1242.63705
7.3250,150.0821038,-23.39482343,1242.665385
7.3300,150.2520136,-23.50679842,1242.695113
7.3350,150.4242858,-23.62064151,1242.726234
7.3400,150.5979236,-23.73483041,1242.759016
7.3450,150.7730544,-23.84982771,1242.793347
7.3500,150.9498446,-23.96529654,1242.829234
7.3550,151.1275418,-24.08205627,1242.866655
7.3600,151.3061651,-24.19930682,1242.905673
7.3650,151.484681,-24.31642846,1242.946546
7.3700,151.6627872,-24.43289465,1242.989318
7.3750,151.8390089,-24.54969222,1243.033962
7.3800,152.013112,-24.666288,1243.080526
7.3850,152.185308,-24.7817463,1243.129106
7.3900,152.3550822,-24.89611283,1243.179796
7.3950,152.5213313,-25.00849125,1243.232766
7.4000,152.6834168,-25.11953499,1243.288054
7.4050,152.839343,-25.22894514,1243.345968
7.4100,152.9898698,-25.33709011,1243.406239
7.4150,153.1334844,-25.44344436,1243.469134
7.4200,153.2689917,-25.54747576,1243.534879
7.4250,153.3953923,-25.65025826,1243.603498
7.4300,153.5126016,-25.75293614,1243.674705
7.4350,153.6197107,-25.85365145,1243.748808
7.4400,153.7164362,-25.95497835,1243.825611
7.4450,153.8040871,-26.05688272,1243.904906
7.4500,153.8814941,-26.16021677,1243.986731
7.4550,153.9492526,-26.26435665,1244.071123
7.4600,154.0078659,-26.37136645,1244.157753
7.4650,154.0583637,-26.47963265,1244.246692
7.4700,154.1019768,-26.59051711,1244.337721
7.4750,154.1383349,-26.70383419,1244.430874
7.4800,154.1683326,-26.81891044,1244.526093
7.4850,154.1929956,-26.93696016,1244.623106
7.4900,154.213631,-27.05778056,1244.721638
7.4950,154.2293921,-27.18090811,1244.821878
7.5000,154.240914,-27.30734737,1244.923576
7.5050,154.2479476,-27.43601501,1245.026767
7.5100,154.2512016,-27.56581993,1245.131349
7.5150,154.2496967,-27.69799607,1245.237248
7.5200,154.2434556,-27.83109918,1245.344497
7.5250,154.232891,-27.96521344,1245.45292
7.5300,154.2171932,-28.09878989,1245.56271
7.5350,154.1957502,-28.23214173,1245.674016
7.5400,154.1694208,-28.3641159,1245.786675
7.5450,154.1374883,-28.49412766,1245.90082
7.5500,154.0994621,-28.62260595,1246.01648
7.5550,154.0541177,-28.74803818,1246.133898
7.5600,154.0035324,-28.87034295,1246.252752
7.5650,153.9467373,-28.98910612,1246.373134
7.5700,153.8838633,-29.10444863,1246.495004
7.5750,153.8164051,-29.21593921,1246.618043
7.5800,153.7452287,-29.3231611,1246.742234
7.5850,153.6710053,-29.42628644,1246.867363
7.5900,153.593818,-29.52583532,1246.993417
7.5950,153.5159204,-29.62036035,1247.120132
7.6000,153.4373216,-29.7099972,1247.247475
7.6050,153.3583987,-29.79446052,1247.37542
7.6100,153.2808136,-29.87300196,1247.503746
7.6150,153.2054843,-29.94538369,1247.632362
7.6200,153.1323545,-30.01193514,1247.761217
7.6250,153.061519,-30.07223943,1247.89038
7.6300,152.9946928,-30.12622638,1248.01943
7.6350,152.9304806,-30.17433721,1248.148535
7.6400,152.8711493,-30.21714554,1248.277143
7.6450,152.8153676,-30.25406088,1248.405548
7.6500,152.7629886,-30.28590117,1248.533665
7.6550,152.713642,-30.31105008,1248.661735
7.6600,152.6680025,-30.33137605,1248.789364
7.6650,152.6259018,-30.34684776,1248.91659
7.6700,152.5880391,-30.35845382,1249.043176
7.6750,152.5547475,-30.36577003,1249.169036
7.6800,152.5268154,-30.36929756,1249.294072
7.6850,152.5030923,-30.37006328,1249.418338
7.6900,152.4844277,-30.3691013,1249.541498
7.6950,152.4712588,-30.36734753,1249.663479
7.7000,152.4632265,-30.36536958,1249.784172
7.7050,152.4617264,-30.36409084,1249.90331
7.7100,152.4664489,-30.36290601,1250.02109
7.7150,152.4785015,-30.3634773,1250.137027
7.7200,152.4972773,-30.36567307,1250.251244
7.7250,152.5238477,-30.36907567,1250.363692
7.7300,152.5580265,-30.37322996,1250.474476
7.7350,152.6015237,-30.37949191,1250.583187
7.7400,152.6543064,-30.38648693,1250.689977
7.7450,152.7148296,-30.39427945,1250.795062
7.7500,152.7833451,-30.40317525,1250.898372
7.7550,152.8575853,-30.41291594,1251.000185
7.7600,152.9371722,-30.42327925,1251.100497
7.7650,153.0212812,-30.43401418,1251.199457
7.7700,153.1079863,-30.44608004,1251.297188
7.7750,153.197885,-30.45997749,1251.393458
7.7800,153.2900513,-30.47537233,1251.488433
7.7850,153.383601,-30.49225317,1251.582132
7.7900,153.4771757,-30.50916727,1251.67497
7.7950,153.5716544,-30.52689545,1251.766606
7.8000,153.6659355,-30.54443093,1251.857393
7.8050,153.7597756,-30.56214824,1251.947291
7.8100,153.85137,-30.5800421,1252.036578
7.8150,153.9415691,-30.59788766,1252.125166
7.8200,154.0295015,-30.6162241,1252.213105
7.8250,154.1151441,-30.63393618,1252.300585
7.8300,154.1992537,-30.65223745,1252.387312
7.8350,154.2816602,-30.67002502,1252.473332
7.8400,154.3639794,-30.68683233,1252.558528
7.8450,154.4469396,-30.7021857,1252.642864
7.8500,154.5317074,-30.71476224,1252.726234
7.8550,154.619696,-30.72538412,1252.808359
7.8600,154.7107555,-30.7325243,1252.889421
7.8650,154.8067026,-30.73555793,1252.969147
7.8700,154.9069551,-30.73392647,1253.047778
7.8750,155.0132433,-30.72638449,1253.125122
7.8800,155.1250115,-30.71396678,1253.201166
7.8850,155.2418361,-30.69467938,1253.276256
7.8900,155.3646691,-30.66786439,1253.350286
7.8950,155.4919366,-30.63328945,1253.423537
7.9000,155.6241133,-30.59137741,1253.49591
7.9050,155.7619268,-30.54067789,1253.5675
7.9100,155.9043118,-30.48196259,1253.638437
7.9150,156.051349,-30.41456959,1253.708762
7.9200,156.2017683,-30.33877621,1253.778755
7.9250,156.3568902,-30.25299195,1253.848333
7.9300,156.5163,-30.15781001,1253.917611
7.9350,156.6801564,-30.05330594,1253.986472
7.9400,156.846176,-29.93995186,1254.055351
7.9450,157.0158232,-29.81836759,1254.123977
7.9500,157.1875212,-29.6876941,1254.19274
7.9550,157.3625066,-29.55026427,1254.261123
7.9600,157.5393574,-29.40478207,1254.329587
7.9650,157.7178052,-29.25287531,1254.398046
7.9700,157.8971937,-29.09427473,1254.466479
7.9750,158.0777525,-28.9300785,1254.53491
7.9800,158.2580214,-28.76199917,1254.603301
7.9850,158.4375387,-28.58973192,1254.671738
7.9900,158.6160636,-28.41336201,1254.740241
7.9950,158.7938008,-28.23302415,1254.808747
8.0000,158.9696058,-28.0498995,1254.877323
8.0050,159.1427523,-27.86350734,1254.946029
8.0100,159.3116211,-27.67535173,1255.014975
8.0150,159.4751858,-27.48505714,1255.08437
8.0200,159.6336905,-27.29368623,1255.154045
8.0250,159.7846326,-27.10170372,1255.224273
8.0300,159.9279929,-26.90907576,1255.295163
8.0350,160.0615993,-26.71596745,1255.367054
8.0400,160.1850356,-26.5226547,1255.439987
8.0450,160.2980495,-26.32891198,1255.514117
8.0500,160.4004025,-26.13392231,1255.589556
8.0550,160.4941738,-25.93758986,1255.666104
8.0600,160.578725,-25.74015673,1255.74392
8.0650,160.6541035,-25.54106771,1255.823056
8.0700,160.7205157,-25.33894285,1255.903689
8.0750,160.7779539,-25.13386276,1255.985846
8.0800,160.8260915,-24.92627137,1256.06967
8.0850,160.8649906,-24.71491432,1256.155264
8.0900,160.895845,-24.50136061,1256.242188
8.0950,160.9173125,-24.2845509,1256.330822
8.1000,160.9301281,-24.06488166,1256.420866
8.1050,160.9346313,-23.84279567,1256.512137
8.1100,160.9323106,-23.61805806,1256.604487
8.1150,160.9230369,-23.39061806,1256.697906
8.1200,160.9076746,-23.15994486,1256.79226
8.1250,160.8878935,-22.92771085,1256.887047
8.1300,160.8636459,-22.69222408,1256.982509
8.1350,160.8361202,-22.45418263,1257.078433
8.1400,160.8047377,-22.21344632,1257.174862
8.1450,160.7692212,-21.97104739,1257.271721
8.1500,160.7296976,-21.7269081,1257.369072
8.1550,160.6868525,-21.48067731,1257.466865
8.1600,160.6421972,-21.23238761,1257.564848
8.1650,160.5952471,-20.98247191,1257.663105
8.1700,160.5490112,-20.72992095,1257.761254
8.1750,160.5016382,-20.47583025,1257.859564
8.1800,160.4540178,-20.21830947,1257.958108
8.1850,160.4066793,-19.95840224,1258.056653
8.1900,160.3591008,-19.69630995,1258.155228
8.1950,160.3129139,-19.43195989,1258.253546
8.2000,160.2680468,-19.16488979,1258.351771
8.2050,160.2238149,-18.89642722,1258.449688
8.2100,160.1814654,-18.62515695,1258.547247
8.2150,160.1408225,-18.35249318,1258.644282
8.2200,160.1022624,-18.07853687,1258.740717
8.2250,160.0639112,-17.80438189,1258.836747
8.2300,160.0267216,-17.52986249,1258.932278
8.2350,159.9901424,-17.25490483,1259.027467
8.2400,159.9547828,-16.97913804,1259.122286
8.2450,159.9197291,-16.70264134,1259.216804
8.2500,159.8856137,-16.42629108,1259.310826
8.2550,159.8507778,-16.14881636,1259.404901
8.2600,159.8166577,-15.87006357,1259.498801
8.2650,159.783547,-15.59084319,1259.592296
8.2700,159.7519911,-15.31004354,1259.685595
8.2750,159.721761,-15.02905606,1259.778439
8.2800,159.6928353,-14.74691032,1259.871015
8.2850,159.6650756,-14.46405237,1259.963206
8.2900,159.6385344,-14.18145797,1260.05491
8.2950,159.60987,-13.89891228,1260.146752
8.3000,159.5802547,-13.61579898,1260.23855
8.3050,159.5475389,-13.33437391,1260.330349
8.3100,159.5105832,-13.05393537,1260.422401
8.3150,159.4695605,-12.77518161,1260.514513
8.3200,159.4240205,-12.49760357,1260.606701
8.3250,159.3750492,-12.22083418,1260.698817
8.3300,159.3213447,-11.94548601,1260.790836
8.3350,159.2626497,-11.6718381,1260.882794
8.3400,159.198253,-11.40067392,1260.974708
8.3450,159.1290025,-11.13254449,1261.066337
8.3500,159.0544064,-10.86767214,1261.157797
8.3550,158.9730088,-10.60715263,1261.249298
8.3600,158.8854677,-10.3486026,1261.341083
8.3650,158.791692,-10.09378985,1261.433009
8.3700,158.6921081,-9.841645207,1261.525196
8.3750,158.5855716,-9.591663826,1261.618069
8.3800,158.4720677,-9.343435192,1261.711654
8.3850,158.3505832,-9.097747681,1261.806105
8.3900,158.2210306,-8.853556953,1261.901683
8.3950,158.0842365,-8.610251468,1261.998328
8.4000,157.9401763,-8.367748036,1262.096106
8.4050,157.7907648,-8.125269061,1262.194861
8.4100,157.6354281,-7.882835203,1262.294717
8.4150,157.4739068,-7.639536221,1262.395944
8.4200,157.3068035,-7.39574466,1262.49836
8.4250,157.1325745,-7.150784166,1262.602316
8.4300,156.9510098,-6.90540315,1262.707744
8.4350,156.7624232,-6.660030857,1262.814415
8.4400,156.5666661,-6.415085913,1262.922455
8.4450,156.3640942,-6.170073399,1263.031999
8.4500,156.1557688,-5.924858919,1263.142897
8.4550,155.9416386,-5.679343009,1263.255221
8.4600,155.7215621,-5.433870778,1263.369063
8.4650,155.4967573,-5.18773888,1263.484362
8.4700,155.2668883,-4.939330057,1263.60163
8.4750,155.0320527,-4.688206265,1263.720978
8.4800,154.7945208,-4.4334698,1263.842228
8.4850,154.5557351,-4.17393599,1263.965409
8.4900,154.3168107,-3.908870857,1264.090524
8.4950,154.0778672,-3.638187555,1264.217643
8.5000,153.8388226,-3.361129062,1264.346944
8.5050,153.6012909,-3.076094614,1264.47844
8.5100,153.3653398,-2.783614517,1264.612038
8.5150,153.1308584,-2.482498654,1264.747869
8.5200,152.8973964,-2.172174094,1264.885914
8.5250,152.6668277,-1.853389437,1265.025365
8.5300,152.4375311,-1.527265539,1265.166179
8.5350,152.2099733,-1.193996245,1265.308032
8.5400,151.984037,-0.8549127874,1265.450678
8.5450,151.7593764,-0.5109321146,1265.593913
8.5500,151.5362316,-0.1636821209,1265.737316
8.5550,151.3153161,0.1851571871,1265.88034
8.5600,151.0971863,0.5344214176,1266.022595
8.5650,150.8804362,0.8834384923,1266.164286
8.5700,150.6650551,1.230022041,1266.304929
8.5750,150.450553,1.575195304,1266.444791
8.5800,150.2365954,1.919040615,1266.583908
8.5850,150.0237241,2.260856576,1266.722169
8.5900,149.8109553,2.600402552,1266.859788
8.5950,149.6015202,2.937025662,1266.995877
8.6000,149.3952545,3.270491896,1267.130489
8.6050,149.193873,3.601748689,1267.263526
8.6100,148.997565,3.931558343,1267.395076
8.6150,148.8066507,4.260516277,1267.525249
8.6200,148.6209063,4.588436581,1267.65413
8.6250,148.4398327,4.915798592,1267.781814
8.6300,148.2632951,5.243684078,1267.908545
8.6350,148.0916089,5.572092875,1268.034238
8.6400,147.9253899,5.901483887,1268.158669
8.6450,147.7639291,6.230578461,1268.281702
8.6500,147.6054085,6.558873567,1268.403577
8.6550,147.44992,6.885516903,1268.523984
8.6600,147.2953151,7.208399546,1268.642934
8.6650,147.1403358,7.527797878,1268.760724
8.6700,146.9845735,7.841817994,1268.87702
8.6750,146.8281826,8.150638371,1268.99187
8.6800,146.6713186,8.453560221,1269.105095
8.6850,146.5141803,8.750679368,1269.216651
8.6900,146.356058,9.042736814,1269.326916
8.6950,146.1960576,9.329071985,1269.43602
8.7000,146.0319996,9.610489084,1269.544816
8.7050,145.8630607,9.887539676,1269.653634
8.7100,145.6886445,10.16075395,1269.762741
8.7150,145.5104642,10.42967204,1269.871609
8.7200,145.3282432,10.69425217,1269.980334
8.7250,145.1430777,10.95465295,1270.088811
8.7300,144.9549233,11.21049374,1270.19705
8.7350,144.7624631,11.46272264,1270.305729
8.7400,144.5644991,11.7110352,1270.415152
8.7450,144.35926,11.9570173,1270.526094
8.7500,144.1463902,12.20059527,1270.638674
8.7550,143.9240432,12.44324172,1270.753757
8.7600,143.6929532,12.68480378,1270.871125
8.7650,143.4532393,12.92620391,1270.991114
8.7700,143.2040673,13.16629494,1271.11368
8.7750,142.947426,13.40723339,1271.238765
8.7800,142.6827204,13.64854314,1271.366407
8.7850,142.4086822,13.89069995,1271.497024
8.7900,142.1257077,14.13377892,1271.630531
8.7950,141.8342164,14.37942974,1271.767238
8.8000,141.5331765,14.62745466,1271.907398
8.8050,141.2219214,14.87770959,1272.05125
8.8100,140.9019398,15.13068576,1272.198516
8.8150,140.5739966,15.38571271,1272.348885
8.8200,140.2387109,15.64299893,1272.502335
8.8250,139.8953489,15.90324194,1272.659343
8.8300,139.5467023,16.1661852,1272.819108
8.8350,139.1923862,16.43221577,1272.981842
8.8400,138.8331336,16.70125398,1273.147343
8.8450,138.4713703,16.97411511,1273.315083
8.8500,138.1085419,17.2513681,1273.484796
8.8550,137.7451671,17.53200585,1273.656153
8.8600,137.3802168,17.81542142,1273.829264
8.8650,137.0157755,18.10183177,1274.003641
8.8700,136.651165,18.39062286,1274.179464
8.8750,136.2865333,18.68129796,1274.356635
8.8800,135.9227666,18.97398682,1274.535075
8.8850,135.5598439,19.26769937,1274.714532
8.8900,135.1984816,19.56340924,1274.895077
8.8950,134.8386002,19.86101617,1275.07681
8.9000,134.4790569,20.16122625,1275.260218
8.9050,134.1211587,20.4650349,1275.445047
8.9100,133.7659941,20.77236778,1275.630971
8.9150,133.413353,21.08433394,1275.818309
8.9200,133.0642531,21.40070947,1276.006533
8.9250,132.719898,21.71993428,1276.194881
8.9300,132.3807515,22.04115581,1276.382817
8.9350,132.0463209,22.36398223,1276.570212
8.9400,131.7155089,22.68885063,1276.757546
8.9450,131.3883096,23.01543721,1276.944608
8.9500,131.0667493,23.34347661,1277.130616
8.9550,130.7511731,23.67312964,1277.315411
8.9600,130.4430562,24.00460897,1277.498437
8.9650,130.1421979,24.3367139,1277.679459
8.9700,129.8487688,24.67026034,1277.858615
8.9750,129.5625407,25.00372648,1278.035407
8.9800,129.283944,25.33803349,1278.209941
8.9850,129.011466,25.67231483,1278.382504
8.9900,128.7459768,26.00598056,1278.552638
8.9950,128.487966,26.33917945,1278.720207
9.0000,128.2381436,26.67035885,1278.884624
9.0050,127.9946345,26.99992474,1279.046694
9.0100,127.7568591,27.32698786,1279.206399
9.0150,127.5220637,27.65255499,1279.364884
9.0200,127.289125,27.97733431,1279.522786
9.0250,127.056765,28.30194646,1279.680657
9.0300,126.8245138,28.62685234,1279.83888
9.0350,126.5924532,28.95168588,1279.997297
9.0400,126.3613287,29.27562719,1280.155374
9.0450,126.131637,29.59842998,1280.312865
9.0500,125.9025628,29.91982051,1280.470012
9.0550,125.6742892,30.23829198,1280.626197
9.0600,125.4458512,30.55427999,1280.782007
9.0650,125.2152031,30.86642785,1280.937676
9.0700,124.9827977,31.17470958,1281.093
9.0750,124.7470604,31.47808249,1281.248299
9.0800,124.5079182,31.77627178,1281.403509
9.0850,124.2660609,32.07056809,1281.558756
9.0900,124.0232362,32.36196349,1281.713731
9.0950,123.7791784,32.6492472,1281.868231
9.1000,123.5365702,32.93356122,1282.021597
9.1050,123.2959655,33.21434668,1282.173524
9.1100,123.0554738,33.49183199,1282.324869
9.1150,122.81569,33.7663435,1282.475629
9.1200,122.577518,34.0377357,1282.625503
9.1250,122.3415957,34.30576778,1282.774295
9.1300,122.1072784,34.57207619,1282.922743
9.1350,121.8748573,34.83681907,1283.070967
9.1400,121.6454066,35.10026146,1283.218518
9.1450,121.4185375,35.36231465,1283.365599
9.1500,121.1935238,35.6226474,1283.512414
9.1550,120.9700272,35.88231123,1283.659434
9.1600,120.7483056,36.13976168,1283.806136
9.1650,120.5273489,36.39595756,1283.953161
9.1700,120.3074519,36.65080446,1284.100325
9.1750,120.0891456,36.90484192,1284.24761
9.1800,119.8744563,37.15722153,1284.393837
9.1850,119.6622969,37.4092763,1284.539801
9.1900,119.4537551,37.65998499,1284.684742
9.1950,119.2473659,37.909223,1284.829065
9.2000,119.0443728,38.15748122,1284.972482
9.2050,118.8443766,38.40431375,1285.114946
9.2100,118.6482245,38.64960688,1285.255873
9.2150,118.4566508,38.89260283,1285.394605
9.2200,118.2698797,39.13320536,1285.531001
9.2250,118.0879911,39.37242914,1285.665271
9.2300,117.911674,39.60968913,1285.797053
9.2350,117.7419988,39.84500013,1285.925734
9.2400,117.5802713,40.07777396,1286.050446
9.2450,117.4256405,40.30806877,1286.171496
9.2500,117.2773251,40.53468459,1286.288749
9.2550,117.1343049,40.75736806,1286.402465
9.2600,116.9955044,40.97547829,1286.512981
9.2650,116.8615816,41.18936314,1286.62
9.2700,116.7310607,41.39762324,1286.723541
9.2750,116.6036917,41.60040796,1286.823739
9.2800,116.4779864,41.79674903,1286.92095
9.2850,116.3544336,41.98685309,1287.014965
9.2900,116.2320606,42.1707917,1287.106306
9.2950,116.1107024,42.34834493,1287.19488
9.3000,115.9900917,42.52103547,1287.281235
9.3050,115.8703265,42.68814195,1287.365069
9.3100,115.7509431,42.84993289,1287.446638
9.3150,115.6322451,43.00616735,1287.525859
9.3200,115.5155345,43.15723743,1287.602404
9.3250,115.400636,43.30318881,1287.676334
9.3300,115.2867002,43.4434057,1287.747756
9.3350,115.1736491,43.57875523,1287.816989
9.3400,115.0608678,43.71055193,1287.884782
9.3450,114.9497272,43.83773313,1287.950223
9.3500,114.83884,43.96105411,1288.014031
9.3550,114.7297836,44.08060772,1288.075712
9.3600,114.6222098,44.19683479,1288.13538
9.3650,114.5174908,44.31112894,1288.193005
9.3700,114.4148895,44.42362758,1288.248931
9.3750,114.3160423,44.53473112,1288.302651
9.3800,114.2196958,44.64550218,1288.355285
9.3850,114.1258732,44.75430021,1288.406243
9.3900,114.0336288,44.86184031,1288.456278
9.3950,113.9419848,44.96891006,1288.506226
9.4000,113.8507153,45.0751761,1288.556112
9.4050,113.7579555,45.18238274,1288.60732
9.4100,113.6654333,45.29065055,1288.659058
9.4150,113.5729736,45.40165502,1288.712063
9.4200,113.4808268,45.51590953,1288.766389
9.4250,113.389183,45.63438636,1288.822211
9.4300,113.2975756,45.75644508,1288.879473
9.4350,113.2072097,45.88243134,1288.937764
9.4400,113.1175602,46.01245905,1288.997448
9.4450,113.0286396,46.14561602,1289.058119
9.4500,112.9412472,46.28233158,1289.119566
9.4550,112.8546028,46.42151801,1289.181724
9.4600,112.7688266,46.56426965,1289.244915
9.4650,112.6845162,46.70865388,1289.308132
9.4700,112.6010427,46.8548871,1289.371722
9.4750,112.5188812,47.00159848,1289.435113
9.4800,112.4349182,47.14819935,1289.499402
9.4850,112.3509201,47.29510675,1289.564154
9.4900,112.2658428,47.44230301,1289.629571
9.4950,112.1804154,47.59061289,1289.695724
9.5000,112.0956373,47.74037778,1289.762115
9.5050,112.0111083,47.89188845,1289.829066
9.5100,111.9273086,48.04449545,1289.896117
9.5150,111.8436836,48.19944087,1289.964068
9.5200,111.7604436,48.35661625,1290.03278
9.5250,111.6775337,48.51606746,1290.1022
9.5300,111.5942893,48.67757101,1290.172424
9.5350,111.5106215,48.84087945,1290.243489
9.5400,111.4251591,49.00542388,1290.315809
9.5450,111.3388839,49.17106014,1290.388825
9.5500,111.2518738,49.33687413,1290.462181
9.5550,111.1650513,49.50240501,1290.535269
9.5600,111.0783993,49.6672652,1290.607782
9.5650,110.9915832,49.83027011,1290.679566
9.5700,110.9054447,49.99033459,1290.749894
9.5750,110.8191328,50.14790407,1290.819343
9.5800,110.7340528,50.30196084,1290.886703
9.5850,110.6505487,50.45254871,1290.951991
9.5900,110.5684073,50.59899094,1291.014874
9.5950,110.4871502,50.74096866,1291.075632
9.6000,110.406692,50.87767398,1291.133871
9.6050,110.3278854,51.00891778,1291.18905
9.6100,110.2513831,51.13424769,1291.240835
9.6150,110.1765072,51.2525114,1291.289021
9.6200,110.1025843,51.36366027,1291.333866
9.6250,110.0307787,51.46749579,1291.374833
9.6300,109.9602824,51.5651911,1291.412653
9.6350,109.8919805,51.65655437,1291.446852
9.6400,109.8262054,51.74221079,1291.477506
9.6450,109.7616081,51.82307257,1291.505618
9.6500,109.6996861,51.89916587,1291.530616
9.6550,109.6399115,51.97245067,1291.553497
9.6600,109.5831094,52.04284837,1291.573848
9.6650,109.5287379,52.11041159,1291.591854
9.6700,109.4778496,52.17501442,1291.607044
9.6750,109.4299292,52.23715351,1291.619822
9.6800,109.385845,52.29599637,1291.629342
9.6850,109.3450263,52.35251858,1291.636407
9.6900,109.3064259,52.40511718,1291.640933
9.6950,109.269723,52.45477163,1291.643278
9.7000,109.2351847,52.50107675,1291.643273
9.7050,109.2043935,52.54454161,1291.640376
9.7100,109.1755101,52.58532465,1291.635636
9.7150,109.1476735,52.62338164,1291.629309
9.7200,109.1213976,52.65918374,1291.621362
9.7250,109.0970973,52.69341055,1291.61198
9.7300,109.0746748,52.7263317,1291.60119
9.7350,109.0537109,52.75805069,1291.589188
9.7400,109.0336851,52.78881372,1291.576146
9.7450,109.0143228,52.81881523,1291.562357
9.7500,108.9943186,52.84804795,1291.548327
9.7550,108.9745001,52.87694059,1291.533752
9.7600,108.9555496,52.90532786,1291.518004
9.7650,108.9377392,52.93400468,1291.501396
9.7700,108.921265,52.96261635,1291.483735
9.7750,108.9059233,52.99132548,1291.464921
9.7800,108.8925427,53.02090573,1291.445003
9.7850,108.8806279,53.05004466,1291.423668
9.7900,108.8697463,53.07932158,1291.40151
9.7950,108.860936,53.10917543,1291.378195
9.8000,108.8529596,53.13949986,1291.354431
9.8050,108.8459301,53.17129139,1291.330447
9.8100,108.8394326,53.20556948,1291.306918
9.8150,108.8346922,53.24193852,1291.283159
9.8200,108.8309651,53.28106367,1291.259847
9.8250,108.8269799,53.32299211,1291.237707
9.8300,108.8236269,53.36839003,1291.216728
9.8350,108.8191557,53.41726514,1291.197778
9.8400,108.8145318,53.47035851,1291.180714
9.8450,108.8088235,53.52785629,1291.16611
9.8500,108.8023288,53.59086573,1291.154168
9.8550,108.7930527,53.6586399,1291.14563
9.8600,108.7799136,53.73051155,1291.140894
9.8650,108.7618769,53.80802612,1291.140986
9.8700,108.7378659,53.89142629,1291.146498
9.8750,108.7077107,53.97991078,1291.157196
9.8800,108.6695295,54.07398667,1291.174273
9.8850,108.6231312,54.17404944,1291.197816
9.8900,108.5684901,54.27904983,1291.227589
9.8950,108.5054735,54.38920267,1291.263593
9.9000,108.4339135,54.50481437,1291.306061
9.9050,108.3528392,54.6248539,1291.355201
9.9100,108.2617427,54.74943777,1291.411232
9.9150,108.1609533,54.8791237,1291.474326
9.9200,108.0506121,55.01269259,1291.543993
9.9250,107.9286155,55.15003339,1291.621196
9.9300,107.7965652,55.29090492,1291.705243
9.9350,107.6544006,55.43433644,1291.795841
9.9400,107.5024111,55.58040547,1291.892966
9.9450,107.3412636,55.72900088,1291.996263
9.9500,107.1707516,55.87875456,1292.105353
9.9550,106.9915289,56.02994709,1292.219998
9.9600,106.8030172,56.1823112,1292.340526
9.9650,106.6068816,56.33623099,1292.466408
9.9700,106.4027929,56.4919358,1292.598023
9.9750,106.1916801,56.64886647,1292.734767
9.9800,105.9742085,56.80753489,1292.876611
9.9850,105.7511164,56.96728088,1293.022894
9.9900,105.5229985,57.12944978,1293.173902
9.9950,105.2913219,57.29341467,1293.328796
10.0000,105.0573992,57.46022846,1293.487379
10.0050,104.8214921,57.62855872,1293.649109
10.0100,104.5846141,57.79825291,1293.813326
10.0150,104.3480859,57.96950853,1293.979585
10.0200,104.111815,58.14175986,1294.147711
10.0250,103.8766716,58.31437161,1294.316935
10.0300,103.6439193,58.48768494,1294.486829
10.0350,103.41414,58.66012793,1294.65653
10.0400,103.1883615,58.83105907,1294.825242
10.0450,102.9672688,59.00051243,1294.992604
10.0500,102.7513516,59.16725629,1295.157909
10.0550,102.541753,59.33047386,1295.320222
10.0600,102.338594,59.490093,1295.479705
10.0650,102.1409059,59.6448861,1295.63608
10.0700,101.949608,59.79543023,1295.789082
10.0750,101.764634,59.94070799,1295.938409
10.0800,101.585391,60.07931326,1296.083822
10.0850,101.4128107,60.21199012,1296.22506
10.0900,101.2469535,60.33757085,1296.361554
10.0950,101.0865898,60.45651749,1296.493997
10.1000,100.9323455,60.56737693,1296.62134
10.1050,100.7844784,60.66955334,1296.74322
10.1100,100.6425114,60.7634235,1296.860011
10.1150,100.5056847,60.84814628,1296.971655
10.1200,100.3746995,60.92386734,1297.077743
10.1250,100.2504367,60.99069699,1297.177802
10.1300,100.1312186,61.04777463,1297.272181
10.1350,100.0187205,61.09590142,1297.360328
10.1400,99.912145,61.13439578,1297.442332
10.1450,99.81088482,61.16376186,1297.518628
10.1500,99.71352637,61.18399306,1297.589891
10.1550,99.62153744,61.19721961,1297.656211
10.1600,99.53553029,61.20323464,1297.717089
10.1650,99.45561312,61.20121475,1297.772005
10.1700,99.38153585,61.19166737,1297.821425
10.1750,99.31322163,61.1749564,1297.865416
10.1800,99.25120465,61.15165475,1297.903873
10.1850,99.19469971,61.12102523,1297.936993
10.1900,99.14305655,61.0834724,1297.965185
10.1950,99.09559042,61.03972738,1297.989231
10.2000,99.05361156,60.9891261,1298.008237
10.2050,99.01651806,60.93341402,1298.023313
10.2100,98.9841387,60.87238996,1298.034381
10.2150,98.9571452,60.80690631,1298.041339
10.2200,98.93447493,60.73793427,1298.045242
10.2250,98.91749026,60.66616751,1298.045714
10.2300,98.9064962,60.59200311,1298.042736
10.2350,98.90155493,60.51706008,1298.036986
10.2400,98.90181332,60.44145515,1298.02895
10.2450,98.90811065,60.36578205,1298.018407
10.2500,98.92072248,60.29134297,1298.00571
10.2550,98.93976329,60.21699035,1297.990375
10.2600,98.96558336,60.1440186,1297.972742
10.2650,98.99761145,60.07219039,1297.952939
10.2700,99.03652906,60.0024096,1297.931003
10.2750,99.08112923,59.93493249,1297.907569
10.2800,99.13246263,59.86989938,1297.882148
10.2850,99.19059494,59.80736642,1297.854798
10.2900,99.25622288,59.74801684,1297.825362
10.2950,99.32903965,59.6921163,1297.794121
10.3000,99.40790606,59.6390321,1297.761356
10.3050,99.49199459,59.58886964,1297.727492
10.3100,99.5812814,59.54258588,1297.693076
10.3150,99.67618556,59.49827977,1297.65702
10.3200,99.77657297,59.45743668,1297.619987
10.3250,99.88092429,59.4194046,1297.582574
10.3300,99.98917576,59.38356033,1297.544507
10.3350,100.1019482,59.35102835,1297.505854
10.3400,100.218449,59.32084658,1297.466681
10.3450,100.3389359,59.29266057,1297.426694
10.3500,100.4628245,59.26754719,1297.386691
10.3550,100.5895801,59.24474484,1297.346518
10.3600,100.7195227,59.22424199,1297.305979
10.3650,100.8522205,59.20625063,1297.265543
10.3700,100.9870301,59.18926542,1297.224721
10.3750,101.1238378,59.17431059,1297.184048
10.3800,101.2632043,59.16151532,1297.143208
10.3850,101.4034425,59.14993413,1297.102516
10.3900,101.5455141,59.14074983,1297.062061
10.3950,101.6895872,59.13142524,1297.020669
10.4000,101.8361624,59.12243297,1296.978247
10.4050,101.9837121,59.11323784,1296.935375
10.4100,102.1328755,59.10286798,1296.891223
10.4150,102.2832687,59.09160632,1296.846171
10.4200,102.4337316,59.07879008,1296.800452
10.4250,102.5841,59.06461521,1296.754278
10.4300,102.7354564,59.04918388,1296.707175
10.4350,102.8871082,59.03198593,1296.6592
10.4400,103.0387055,59.01429646,1296.611137
10.4450,103.1905529,58.99470265,1296.562285
10.4500,103.3429228,58.97424486,1296.512989
10.4550,103.4957461,58.95167701,1296.462681
10.4600,103.6485436,58.92750936,1296.411795
10.4650,103.8022925,58.90204544,1296.360035
10.4700,103.9563409,58.87507967,1296.30743
10.4750,104.111266,58.84611302,1296.253536
10.4800,104.2659081,58.81529952,1296.199045
10.4850,104.4206467,58.78270723,1296.143676
10.4900,104.576033,58.74915162,1296.087585
10.4950,104.7325463,58.71434372,1296.030427
10.5000,104.8884071,58.67845539,1295.973169
10.5050,105.0447108,58.64233154,1295.915523
10.5100,105.2018113,58.60612854,1295.857496
10.5150,105.3594411,58.56989891,1295.799269
10.5200,105.5186267,58.53425095,1295.740598
10.5250,105.6789913,58.4981464,1295.681263
10.5300,105.8398922,58.46173944,1295.62171
10.5350,106.0006834,58.42393107,1295.561768
10.5400,106.1635244,58.38529316,1295.500592
10.5450,106.3274973,58.34550741,1295.438529
10.5500,106.4926706,58.30404147,1295.375316
10.5550,106.6589024,58.26150839,1295.311258
10.5600,106.8259848,58.21714899,1295.246203
10.5650,106.9939317,58.17194483,1295.180602
10.5700,107.1629805,58.12545065,1295.114109
10.5750,107.3331356,58.07884099,1295.047343
10.5800,107.5032321,58.03256527,1294.980974
10.5850,107.6738561,57.98625551,1294.914552
10.5900,107.8437255,57.93987882,1294.848686
10.5950,108.0148115,57.89383087,1294.782535
10.6000,108.1863926,57.84877202,1294.716679
10.6050,108.3598793,57.80449617,1294.650355
10.6100,108.5359095,57.75996442,1294.582797
10.6150,108.7131901,57.71569203,1294.514811
10.6200,108.892111,57.67028202,1294.445579
10.6250,109.0723014,57.62325091,1294.375083
10.6300,109.2529506,57.57523128,1294.304099
10.6350,109.4338932,57.52543859,1294.232386
10.6400,109.6149475,57.47414848,1294.160276
10.6450,109.796758,57.42268475,1294.088024
10.6500,109.9785201,57.3692842,1294.015239
10.6550,110.1606204,57.31498867,1293.942284
10.6600,110.3427516,57.25891001,1293.868992
10.6650,110.5253878,57.20201382,1293.79545
10.6700,110.708424,57.14394776,1293.721763
10.6750,110.8922485,57.08414847,1293.647483
10.6800,111.0761649,57.02179038,1293.57253
10.6850,111.2613069,56.95773587,1293.496806
10.6900,111.4471122,56.89142111,1293.420134
10.6950,111.6323563,56.82371502,1293.343467
10.7000,111.8170176,56.75480439,1293.266915
10.7050,112.0023278,56.68430417,1293.189704
10.7100,112.1869961,56.6126856,1293.112649
10.7150,112.3720228,56.53981053,1293.035136
10.7200,112.5575377,56.46569183,1292.957143
10.7250,112.7431339,56.39015782,1292.878744
10.7300,112.9283724,56.31257836,1292.79984
10.7350,113.1140049,56.23272677,1292.720035
10.7400,113.2997486,56.14917899,1292.638769
10.7450,113.4855743,56.06195309,1292.556042
10.7500,113.6708885,55.96997582,1292.471658
10.7550,113.8542442,55.87193858,1292.385781
10.7600,114.0359993,55.76828439,1292.298309
10.7650,114.2158034,55.65821583,1292.209102
10.7700,114.3944347,55.54158529,1292.117817
10.7750,114.5714026,55.41903713,1292.024875
10.7800,114.7476722,55.29092359,1291.930048
10.7850,114.9225758,55.15792736,1291.833991
10.7900,115.096539,55.01970636,1291.736367
10.7950,115.2695745,54.87667291,1291.637467
10.8000,115.4423823,54.7296034,1291.537258
10.8050,115.6151958,54.57692824,1291.435065
10.8100,115.7875523,54.41984548,1291.331461
10.8150,115.959117,54.25864087,1291.226771
10.8200,116.130162,54.09270397,1291.120622
10.8250,116.3004579,53.92264659,1291.013233
10.8300,116.4707814,53.74805191,1290.903988
10.8350,116.6418643,53.5699454,1290.792998
10.8400,116.8116206,53.3881436,1290.681097
10.8450,116.980881,53.2031029,1290.568077
10.8500,117.1510098,53.01597118,1290.453869
10.8550,117.3220132,52.82583234,1290.33815
10.8600,117.4951586,52.633571,1290.220736
10.8650,117.6702756,52.43847111,1290.10137
10.8700,117.8471018,52.24126694,1289.980621
10.8750,118.0263391,52.04016713,1289.857383
10.8800,118.2085152,51.83536229,1289.731575
10.8850,118.393245,51.62837243,1289.603988
10.8900,118.5816406,51.41944774,1289.474268
10.8950,118.7718617,51.20869099,1289.343211
10.9000,118.9648275,50.99556968,1289.210335
10.9050,119.1603448,50.78097042,1289.076077
10.9100,119.3579032,50.5647351,1288.940592
10.9150,119.5590403,50.34893302,1288.804081
10.9200,119.7636647,50.13381448,1288.666765
10.9250,119.973523,49.92068731,1288.528353
10.9300,120.1892521,49.70758907,1288.387897
10.9350,120.4095439,49.49552038,1288.246311
10.9400,120.6349281,49.28456368,1288.103362
10.9450,120.8651445,49.07345074,1287.958687
10.9500,121.101438,48.8619194,1287.811734
10.9550,121.3434979,48.65028925,1287.662739
10.9600,121.5894741,48.43702501,1287.511735
10.9650,121.8390832,48.2210381,1287.358539
10.9700,122.0917541,48.00193731,1287.203218
10.9750,122.3461762,47.77875168,1287.045886
10.9800,122.602201,47.55181744,1286.886814
10.9850,122.8581017,47.3205682,1286.726467
10.9900,123.1137016,47.08549314,1286.565235
10.9950,123.368669,46.84680698,1286.403257
11.0000,123.6232144,46.60487513,1286.240642
11.0050,123.8774716,46.36049386,1286.077624
11.0100,124.1314677,46.11476768,1285.914513
11.0150,124.3847991,45.86681359,1285.751169
11.0200,124.636215,45.61745365,1285.588398
11.0250,124.8871707,45.36605832,1285.425303
11.0300,125.1367806,45.1138245,1285.262722
11.0350,125.38401,44.85970934,1285.100582
11.0400,125.6302795,44.60439512,1284.938717
11.0450,125.8755787,44.34778465,1284.777081
11.0500,126.1204848,44.09096048,1284.615833
11.0550,126.3656725,43.83414985,1284.454851
11.0600,126.61124,43.57756397,1284.294235
11.0650,126.8559881,43.32198204,1284.134731
11.0700,127.1010674,43.06841094,1283.976283
11.0750,127.3459364,42.81671145,1283.819125
11.0800,127.5901728,42.56592876,1283.663039
11.0850,127.8362214,42.31773102,1283.507769
11.0900,128.0829161,42.07151415,1283.353408
11.0950,128.3306869,41.82645274,1283.199488
11.1000,128.5796078,41.58233348,1283.045791
11.1050,128.8292771,41.33971169,1282.892704
11.1100,129.0799013,41.09803637,1282.739964
11.1150,129.3315184,40.85767285,1282.587681
11.1200,129.5843465,40.61893106,1282.435815
11.1250,129.8376621,40.3827847,1282.28511
11.1300,130.0918404,40.1490865,1282.135339
11.1350,130.3471929,39.91848249,1281.986636
11.1400,130.6042643,39.69064494,1281.838748
11.1450,130.863815,39.4665033,1281.691736
11.1500,131.1252371,39.24519263,1281.545547
11.1550,131.3893271,39.02758681,1281.400156
11.1600,131.6560178,38.81301382,1281.255244
11.1650,131.9257768,38.60130013,1281.110651
11.1700,132.1986718,38.39118459,1280.965743
11.1750,132.4748519,38.18243315,1280.820436
11.1800,132.7538402,37.97426074,1280.674585
11.1850,133.0360845,37.76607901,1280.527864
11.1900,133.3204899,37.55669535,1280.380248
11.1950,133.6081915,37.3456807,1280.231304
11.2000,133.89878,37.13341857,1280.081312
11.2050,134.1929557,36.91976072,1279.930022
11.2100,134.4912511,36.70515578,1279.777412
11.2150,134.7938986,36.48905909,1279.623274
11.2200,135.1012789,36.27073937,1279.46727
11.2250,135.4124854,36.05023845,1279.30975
11.2300,135.72682,35.82876554,1279.151378
11.2350,136.0452974,35.60509514,1278.991431
11.2400,136.3680912,35.37855772,1278.829678
11.2450,136.6934745,35.14859896,1278.66645
11.2500,137.0218221,34.91609674,1278.501856
11.2550,137.3528014,34.6788469,1278.335215
11.2600,137.6857945,34.43914803,1278.167578
11.2650,138.0214291,34.19567979,1277.998185
11.2700,138.3596291,33.94989111,1277.827555
11.2750,138.6995764,33.70135573,1277.6559
11.2800,139.0417241,33.45073735,1277.483256
11.2850,139.38639,33.19799957,1277.309544
11.2900,139.7333803,32.9415329,1277.134326
11.2950,140.08364,32.68056955,1276.957184
11.3000,140.4362117,32.41535053,1276.778476
11.3050,140.7898749,32.14495303,1276.59833
11.3100,141.1449893,31.86879501,1276.416526
11.3150,141.5006818,31.58821917,1276.233742
11.3200,141.8576161,31.3031827,1276.049805
11.3250,142.2159296,31.01428574,1275.864968
11.3300,142.5755688,30.72198852,1275.679321
11.3350,142.9369423,30.42788766,1275.493279
11.3400,143.299115,30.13240661,1275.307209
11.3450,143.6638687,29.83696099,1275.121068
11.3500,144.030462,29.54105569,1274.934933
11.3550,144.4002968,29.24641249,1274.748813
11.3600,144.7723639,28.95281338,1274.562968
11.3650,145.1478591,28.65970551,1274.376804
11.3700,145.5257151,28.3665783,1274.190556
11.3750,145.9054007,28.07312246,1274.004206
11.3800,146.2872094,27.77953305,1273.817721
11.3850,146.667669,27.48383347,1273.63149
11.3900,147.0473468,27.18667325,1273.445657
11.3950,147.4250634,26.88888549,1273.260658
11.4000,147.7996554,26.59023959,1273.076843
11.4050,148.1700976,26.29311683,1272.895118
11.4100,148.5365969,25.99690944,1272.715191
11.4150,148.8991649,25.70196886,1272.537081
11.4200,149.2580377,25.40921957,1272.361021
11.4250,149.6143055,25.11940427,1272.186894
11.4300,149.9674579,24.83279148,1272.014974
11.4350,150.3173924,24.54961923,1271.845323
11.4400,150.6645481,24.27100293,1271.678102
11.4450,151.0075164,23.99632051,1271.513455
11.4500,151.3463584,23.72562999,1271.351334
11.4550,151.6806729,23.45974765,1271.192062
11.4600,152.0093893,23.19858636,1271.035855
11.4650,152.3319346,22.94308702,1270.883053
11.4700,152.6470372,22.69330718,1270.733948
11.4750,152.9542741,22.44980418,1270.588644
11.4800,153.2541298,22.21299727,1270.447078
11.4850,153.5468628,21.98313276,1270.309033
11.4900,153.8336462,21.76037157,1270.17419
11.4950,154.1138176,21.54410803,1270.04254
11.5000,154.3870912,21.33370653,1269.913818
11.5050,154.653528,21.12853366,1269.787931
11.5100,154.9123117,20.92685308,1269.664581
11.5150,155.1626468,20.72761494,1269.543654
11.5200,155.4023416,20.53005571,1269.425524
11.5250,155.6311531,20.33246778,1269.309784
11.5300,155.8482418,20.13396388,1269.196256
11.5350,156.0534471,19.93515105,1269.085059
11.5400,156.245224,19.73549913,1268.976351
11.5450,156.4254091,19.53535975,1268.869745
11.5500,156.5948321,19.3346377,1268.765095
11.5550,156.7532344,19.13483605,1268.66289
11.5600,156.9023946,18.93473698,1268.562336
11.5650,157.0421856,18.73595296,1268.464032
11.5700,157.1735781,18.53770852,1268.367533
11.5750,157.2969102,18.34071771,1268.272913
11.5800,157.4141397,18.14535341,1268.179881
11.5850,157.5246418,17.95208089,1268.088685
11.5900,157.6288939,17.76109511,1267.999224
11.5950,157.7274289,17.5738646,1267.911778
11.6000,157.8192463,17.39009283,1267.826416
11.6050,157.9063928,17.21032669,1267.742819
11.6100,157.9891077,17.03388443,1267.660735
11.6150,158.0689366,16.86109178,1267.579859
11.6200,158.1482631,16.69090929,1267.499451
11.6250,158.2262745,16.52387689,1267.41977
11.6300,158.3052879,16.35973863,1267.340336
11.6350,158.384572,16.19800059,1267.261231
11.6400,158.4658423,16.03879589,1267.182156
11.6450,158.5479338,15.88175311,1267.103203
11.6500,158.6317962,15.72656497,1267.02426
11.6550,158.7172668,15.57317504,1266.94539
11.6600,158.8051512,15.42015009,1266.866126
11.6650,158.8949975,15.26846346,1266.786833
11.6700,158.9867198,15.11875306,1266.70762
11.6750,159.0810578,14.97078435,1266.628371
11.6800,159.177133,14.82469465,1266.549212
11.6850,159.2763611,14.68136381,1266.470017
11.6900,159.3777145,14.54058163,1266.390896
11.6950,159.4820332,14.40178519,1266.311458
11.7000,159.5894873,14.26530214,1266.231716
11.7050,159.7008134,14.13001349,1266.151166
11.7100,159.8156895,13.99614787,1266.069917
11.7150,159.9332756,13.86407096,1265.988297
11.7200,160.0520955,13.73297935,1265.906337
11.7250,160.1727914,13.60170039,1265.823615
11.7300,160.2948107,13.47236922,1265.740677
11.7350,160.4174431,13.34409703,1265.657382
11.7400,160.538958,13.2160334,1265.573856
11.7450,160.6593696,13.08798834,1265.489937
11.7500,160.7777718,12.96065953,1265.405926
11.7550,160.8935934,12.83258316,1265.321469
11.7600,161.0063413,12.70465707,1265.236863
11.7650,161.1150018,12.57642358,1265.152165
11.7700,161.2208099,12.44766071,1265.066968
11.7750,161.3229018,12.31820659,1264.981473
11.7800,161.4202124,12.18837746,1264.895921
11.7850,161.5114119,12.05762743,1264.810473
11.7900,161.5952279,11.92576691,1264.725277
11.7950,161.6701611,11.7936207,1264.640839
11.8000,161.7357069,11.66102855,1264.55726
11.8050,161.7892877,11.52917163,1264.475202
11.8100,161.8317389,11.3994586,1264.394854
11.8150,161.8630611,11.27081287,1264.316021
11.8200,161.8857461,11.14474121,1264.238529
11.8250,161.900177,11.02135051,1264.162375
11.8300,161.9070404,10.90062641,1264.087477
11.8350,161.9061393,10.78142598,1264.013678
11.8400,161.8995354,10.66501636,1263.940952
11.8450,161.8868799,10.55022151,1263.86912
11.8500,161.8686927,10.43659074,1263.797902
11.8550,161.8454739,10.32319715,1263.727012
11.8600,161.8187892,10.2113827,1263.656586
11.8650,161.789125,10.10013251,1263.586287
11.8700,161.7577324,9.989759238,1263.515928
11.8750,161.727176,9.880716297,1263.445342
11.8800,161.6960339,9.772598995,1263.374575
11.8850,161.6672957,9.665086926,1263.303151
11.8900,161.6414518,9.558822657,1263.23118
11.8950,161.619945,9.453290314,1263.15822
11.9000,161.6039743,9.347719828,1263.083886
11.9050,161.592905,9.241913674,1263.008237
11.9100,161.5870012,9.136287121,1262.931335
11.9150,161.585335,9.028880807,1262.852906
11.9200,161.5864205,8.919963435,1262.773191
11.9250,161.5884459,8.80756477,1262.692104
11.9300,161.5904016,8.69160855,1262.609801
11.9350,161.592736,8.570873041,1262.525994
11.9400,161.5945681,8.444178558,1262.440586
11.9450,161.5944276,8.310743042,1262.353701
11.9500,161.5931899,8.171623915,1262.265429
11.9550,161.5902998,8.025783655,1262.175703
11.9600,161.5868902,7.874598519,1262.08471
11.9650,161.5834678,7.717687563,1261.992307
11.9700,161.5804168,7.55507629,1261.898577
11.9750,161.5780542,7.387540821,1261.803596
11.9800,161.5779829,7.215506708,1261.707354
11.9850,161.5800522,7.038537961,1261.60977
11.9900,161.5847617,6.85749085,1261.510966
11.9950,161.5919862,6.673103298,1261.411133
12.0000,161.6023106,6.486256307,1261.310416
12.0050,161.6153049,6.29642082,1261.208806
12.0100,161.6298564,6.105405666,1261.106848
12.0150,161.6472322,5.912164622,1261.003936
12.0200,161.6678268,5.717087671,1260.900029
12.0250,161.6895622,5.521606546,1260.795618
12.0300,161.7121689,5.324137586,1260.690398
12.0350,161.7343807,5.125509204,1260.584643
12.0400,161.7563751,4.926043244,1260.47831
12.0450,161.7780673,4.726381847,1260.371584
12.0500,161.798935,4.527014111,1260.264501
12.0550,161.8178465,4.329125287,1260.157581
12.0600,161.8353017,4.132445967,1260.050737
12.0650,161.8511423,3.936974257,1259.94396
12.0700,161.8629491,3.744082571,1259.83794
12.0750,161.8708437,3.554532571,1259.732835
12.0800,161.8742466,3.369053969,1259.628893
12.0850,161.8737686,3.188219569,1259.526087
12.0900,161.8695141,3.012680471,1259.424513
12.0950,161.8628098,2.842445465,1259.323863
12.1000,161.8545614,2.679611731,1259.224375
12.1050,161.8457999,2.523723545,1259.125788
12.1100,161.8366926,2.374558404,1259.027937
12.1150,161.8276872,2.23464944,1258.931202
12.1200,161.8186076,2.104052132,1258.835683
12.1250,161.8108603,1.983723616,1258.741375
12.1300,161.8058646,1.87457324,1258.648265
12.1350,161.8056603,1.777713381,1258.556291
12.1400,161.8108569,1.692249566,1258.465272
12.1450,161.8221465,1.619118979,1258.375362
12.1500,161.8404647,1.558707549,1258.286587
12.1550,161.8661505,1.51079069,1258.198875
12.1600,161.89969,1.473719167,1258.11175
12.1650,161.9420243,1.44806651,1258.025202
12.1700,161.9932063,1.433320066,1257.939201
12.1750,162.0534047,1.427855201,1257.853248
12.1800,162.123336,1.430576195,1257.767046
12.1850,162.2039421,1.439654311,1257.67991
12.1900,162.294062,1.454489254,1257.591859
12.1950,162.3934458,1.473400602,1257.502551
12.2000,162.501806,1.494862686,1257.411719
12.2050,162.61902,1.517587421,1257.31919
12.2100,162.744513,1.539855957,1257.224715
12.2150,162.8766141,1.561319159,1257.128507
12.2200,163.0148228,1.580189601,1257.030364
12.2250,163.1599949,1.597172859,1256.930327
12.2300,163.3105184,1.610723805,1256.828347
12.2350,163.4662597,1.621298707,1256.724553
12.2400,163.6248699,1.627275346,1256.618974
12.2450,163.7859696,1.630056958,1256.511993
12.2500,163.9473644,1.627668033,1256.403544
12.2550,164.1082232,1.619692808,1256.293726
12.2600,164.2670295,1.605915555,1256.182786
12.2650,164.4224507,1.587012886,1256.071189
12.2700,164.5731779,1.56143784,1255.958862
12.2750,164.7179109,1.529098031,1255.846018
12.2800,164.855758,1.48952613,1255.732789
12.2850,164.9856738,1.443073807,1255.619435
12.2900,165.106062,1.38999685,1255.506301
12.2950,165.2159843,1.330180988,1255.393562
12.3000,165.3143483,1.264026609,1255.281445
12.3050,165.4009823,1.192448101,1255.170042
12.3100,165.4758237,1.11499655,1255.059327
12.3150,165.5384606,1.033182647,1254.949659
12.3200,165.5881155,0.947569637,1254.841162
12.3250,165.6250244,0.8583512991,1254.733923
12.3300,165.6491734,0.7656166007,1254.627713
12.3350,165.6613194,0.6711649909,1254.522828
12.3400,165.6628046,0.5745491567,1254.418942
12.3450,165.6533695,0.4754085426,1254.315909
12.3500,165.6329328,0.3735257401,1254.213759
12.3550,165.6009389,0.2698459255,1254.112664
12.3600,165.5568248,0.1640443466,1254.012443
12.3650,165.4988935,0.05666120533,1253.913338
12.3700,165.4291611,-0.05163265708,1253.815219
12.3750,165.3478647,-0.1606264064,1253.718121
12.3800,165.255844,-0.2702967718,1253.62204
12.3850,165.1525038,-0.3796639474,1253.52724
12.3900,165.0391542,-0.487316294,1253.433878
12.3950,164.9172992,-0.5919654347,1253.34204
12.4000,164.7878815,-0.6943876539,1253.251585
12.4050,164.6530952,-0.7935419895,1253.162509
12.4100,164.5143443,-0.889395744,1253.074769
12.4150,164.3732671,-0.9821216478,1252.988197
12.4200,164.230137,-1.072598351,1252.902561
12.4250,164.0870671,-1.160672273,1252.81777
12.4300,163.9452774,-1.247402505,1252.733442
12.4350,163.8067565,-1.333319888,1252.649281
12.4400,163.6716956,-1.419168418,1252.565012
12.4450,163.5424423,-1.505097946,1252.480296
12.4500,163.4193315,-1.592318619,1252.394789
12.4550,163.305326,-1.680639983,1252.3082
12.4600,163.2009129,-1.771246486,1252.220226
12.4650,163.1075144,-1.864473299,1252.130625
12.4700,163.0263031,-1.961941427,1252.038939
12.4750,162.9578932,-2.063403375,1251.945163
12.4800,162.9022048,-2.170078989,1251.849138
12.4850,162.8579213,-2.280631014,1251.751383
12.4900,162.8263291,-2.396662195,1251.651467
12.4950,162.8065461,-2.518546467,1251.549415
12.5000,162.7973721,-2.645968102,1251.445513
12.5050,162.7983758,-2.779281084,1251.339698
12.5100,162.8084767,-2.918797117,1251.231949
12.5150,162.8281505,-3.063840089,1251.122361
12.5200,162.856838,-3.214399629,1251.010971
12.5250,162.8923133,-3.371378148,1250.897935
12.5300,162.9347259,-3.534130154,1250.78345
12.5350,162.9818005,-3.702775991,1250.667738
12.5400,163.0341918,-3.876074598,1250.55091
12.5450,163.0922256,-4.05457758,1250.432896
12.5500,163.1548115,-4.237752075,1250.313993
12.5550,163.220651,-4.424934917,1250.194478
12.5600,163.2890241,-4.616238684,1250.074466
12.5650,163.3588836,-4.811193595,1249.954126
12.5700,163.4294135,-5.008871735,1249.833743
12.5750,163.5004141,-5.208938478,1249.713394
12.5800,163.5695748,-5.40947444,1249.593554
12.5850,163.6377237,-5.611432238,1249.473912
12.5900,163.7041865,-5.813414317,1249.354884
12.5950,163.7683885,-6.015271488,1249.236499
12.6000,163.8301821,-6.216350182,1249.118844
12.6050,163.8887611,-6.415995298,1249.002234
12.6100,163.9436322,-6.613951359,1248.886614
12.6150,163.993537,-6.809084711,1248.772492
12.6200,164.038094,-7.000716935,1248.659932
12.6250,164.0774699,-7.188179473,1248.549014
12.6300,164.1105699,-7.370400794,1248.440091
12.6350,164.1372957,-7.547960362,1248.333018
12.6400,164.1558765,-7.719485741,1248.228217
12.6450,164.1672479,-7.884700075,1248.125679
12.6500,164.1706537,-8.042912736,1248.025574
12.6550,164.1654967,-8.195441164,1247.927666
12.6600,164.1518813,-8.341071794,1247.832166
12.6650,164.1315084,-8.479918867,1247.738856
12.6700,164.1049298,-8.611520121,1247.647743
12.6750,164.0713117,-8.736889192,1247.558628
12.6800,164.0309376,-8.854131967,1247.47175
12.6850,163.9850338,-8.963380187,1247.386944
12.6900,163.934825,-9.065350343,1247.303974
12.6950,163.8797557,-9.161189317,1247.222788
12.7000,163.8201557,-9.250231958,1247.143425
12.7050,163.7570354,-9.332795525,1247.065679
12.7100,163.6902694,-9.408289782,1246.989592
12.7150,163.6194407,-9.478181374,1246.915084
12.7200,163.5461676,-9.542900073,1246.841857
12.7250,163.4705181,-9.603086798,1246.769663
12.7300,163.3925935,-9.659273837,1246.698543
12.7350,163.3118231,-9.712155901,1246.628374
12.7400,163.2309846,-9.761667957,1246.558899
12.7450,163.149597,-9.808498853,1246.490054
12.7500,163.068956,-9.853088556,1246.421793
12.7550,162.9888719,-9.896380069,1246.35383
12.7600,162.9107094,-9.937972959,1246.286148
12.7650,162.8352959,-9.979219193,1246.218451
12.7700,162.7632811,-10.01916163,1246.150837
12.7750,162.6952236,-10.05911491,1246.082959
12.7800,162.6315804,-10.09853229,1246.01497
12.7850,162.5735872,-10.13963503,1245.94632
12.7900,162.5214124,-10.1820832,1245.876956
12.7950,162.4751892,-10.22550059,1245.807068
12.8000,162.4352706,-10.27122159,1245.736354
12.8050,162.4015577,-10.31820075,1245.664959
12.8100,162.3742415,-10.36664028,1245.592923
12.8150,162.3516767,-10.4165261,1245.52042
12.8200,162.3335623,-10.46758188,1245.447498
12.8250,162.3193755,-10.51974505,1245.374262
12.8300,162.3083636,-10.57200139,1245.300844
12.8350,162.2996405,-10.62440738,1245.22736
12.8400,162.2924895,-10.67676847,1245.153938
12.8450,162.2849519,-10.72863287,1245.080865
12.8500,162.2775124,-10.78055261,1245.007974
12.8550,162.2693183,-10.83102058,1244.935539
12.8600,162.2599414,-10.88004502,1244.863612
12.8650,162.2480252,-10.92779514,1244.792216
12.8700,162.2332151,-10.97488786,1244.72129
12.8750,162.2147746,-11.02062125,1244.650983
12.8800,162.1937755,-11.06618285,1244.581079
12.8850,162.1688149,-11.1099538,1244.511974
12.8900,162.1408809,-11.15291467,1244.443217
12.8950,162.1092349,-11.19497003,1244.374868
12.9000,162.0737889,-11.23679115,1244.306832
12.9050,162.0336764,-11.27902342,1244.239007
12.9100,161.9895723,-11.32143705,1244.17144
12.9150,161.9414426,-11.3649155,1244.103854
12.9200,161.8890788,-11.40944819,1244.036373
12.9250,161.8322352,-11.45588126,1243.968786
12.9300,161.7721508,-11.50437575,1243.900981
12.9350,161.7088295,-11.55485365,1243.832963
12.9400,161.6435048,-11.60934527,1243.764326
12.9450,161.5747614,-11.66781341,1243.695261
12.9500,161.5035755,-11.73087188,1243.625538
12.9550,161.4303555,-11.79813,1243.555358
12.9600,161.3552818,-11.87122998,1243.484394
12.9650,161.278122,-11.95016164,1243.412792
12.9700,161.1970828,-12.03504752,1243.340777
12.9750,161.1125563,-12.12456579,1243.268671
12.9800,161.0252237,-12.22069875,1243.196142
12.9850,160.9347833,-12.32439785,1243.123148
12.9900,160.8412007,-12.43462642,1243.049763
12.9950,160.7450443,-12.55069976,1242.976081
13.0000,160.6467091,-12.67339187,1242.90214
13.0050,160.5469558,-12.80245162,1242.827968
13.0100,160.4463761,-12.93884145,1242.753534
13.0150,160.3458759,-13.08204827,1242.678876
13.0200,160.2452132,-13.23145572,1242.604235
13.0250,160.1438923,-13.3878507,1242.529727
13.0300,160.041949,-13.54996799,1242.455534
13.0350,159.9392397,-13.71832197,1242.381801
13.0400,159.8343456,-13.89302557,1242.308762
13.0450,159.7259948,-14.07346589,1242.236899
13.0500,159.6138584,-14.25907744,1242.166285
13.0550,159.4974924,-14.44920097,1242.097282
13.0600,159.3769603,-14.64292421,1242.030128
13.0650,159.250258,-14.83858184,1241.965383
13.0700,159.1169184,-15.03571343,1241.903126
13.0750,158.9764612,-15.23397942,1241.843611
13.0800,158.8290755,-15.43241703,1241.786855
13.0850,158.6728934,-15.62967161,1241.733318
13.0900,158.5078017,-15.82480186,1241.683145
13.0950,158.3317116,-16.01752726,1241.636503
13.1000,158.1450843,-16.20562373,1241.59361
13.1050,157.9470069,-16.38975152,1241.554447
13.1100,157.7375823,-16.56825126,1241.5192
13.1150,157.5179209,-16.7411997,1241.487527
13.1200,157.28824,-16.90808004,1241.459411
13.1250,157.0502252,-17.06776926,1241.434682
13.1300,156.8049606,-17.22138827,1241.412969
13.1350,156.5550051,-17.36815407,1241.394023
13.1400,156.3023403,-17.50795533,1241.377463
13.1450,156.049787,-17.64195129,1241.362844
13.1500,155.7982529,-17.77025841,1241.349942
13.1550,155.5516158,-17.89328556,1241.338111
13.1600,155.3106289,-18.01195195,1241.327047
13.1650,155.0785562,-18.12721375,1241.316267
13.1700,154.8575554,-18.23900175,1241.305377
13.1750,154.6488898,-18.34860855,1241.294097
13.1800,154.4531453,-18.45597074,1241.282204
13.1850,154.2720341,-18.56217941,1241.269318
13.1900,154.1054666,-18.6672915,1241.255439
13.1950,153.9550622,-18.77143642,1241.240338
13.2000,152.3890436,-17.90075858,1241.489393
13.2050,152.4238862,-18.03314386,1241.461248
13.2100,152.4650189,-18.16277823,1241.432297
13.2150,152.5127338,-18.29012484,1241.402411
13.2200,152.5669102,-18.41452352,1241.371695
13.2250,152.6266945,-18.5368349,1241.340196
13.2300,152.691054,-18.65690506,1241.308141
13.2350,152.7589751,-18.77482152,1241.275777
13.2400,152.8292299,-18.89004596,1241.24342
13.2450,152.9006571,-19.00209022,1241.211351
13.2500,152.9719489,-19.11048543,1241.179929
13.2550,153.0430479,-19.21539,1241.149146
13.2600,153.1126916,-19.31609987,1241.119339
13.2650,153.1793776,-19.41129338,1241.091055
13.2700,153.2430647,-19.50207528,1241.064139
13.2750,153.3042813,-19.58854033,1241.038502
13.2800,153.3614027,-19.66931736,1241.014656
13.2850,153.4135991,-19.74492753,1240.992681
13.2900,153.4585573,-19.8145091,1240.973211
13.2950,153.4963806,-19.8773972,1240.956302
13.3000,153.5258575,-19.93342425,1240.942317
13.3050,153.5461968,-19.9824153,1240.931464
13.3100,153.5571312,-20.02398688,1240.923791
13.3150,153.5582917,-20.05772569,1240.919441
13.3200,153.5485219,-20.08430456,1240.918619
13.3250,153.5281825,-20.10275506,1240.92134
13.3300,153.4967077,-20.11368356,1240.927709
13.3350,153.4550599,-20.11667884,1240.937505
13.3400,153.4028458,-20.1120778,1240.950743
13.3450,153.3413082,-20.09940197,1240.967355
13.3500,153.2705719,-20.07940579,1240.98712
13.3550,153.191209,-20.05178001,1241.010036
13.3600,153.1035066,-20.01766422,1241.035924
13.3650,153.0088397,-19.97761474,1241.064536
13.3700,152.9069271,-19.93198448,1241.095891
13.3750,152.7982372,-19.88119191,1241.129871
13.3800,152.6826946,-19.8254022,1241.166636
13.3850,152.5607357,-19.765281,1241.205979
13.3900,152.4325693,-19.70090322,1241.247878
13.3950,153.8966869,-20.59139281,1241.035679
13.4000,153.9257686,-20.57391291,1241.066076
13.4050,153.9631264,-20.55887645,1241.096873
13.4100,154.0075858,-20.54682876,1241.12811
13.4150,154.0601139,-20.53778553,1241.159803
13.4200,154.121308,-20.53258355,1241.191832
13.4250,154.1913323,-20.53119761,1241.224215
13.4300,154.2722058,-20.53391505,1241.256712
13.4350,154.3634594,-20.54149122,1241.289273
13.4400,154.4655358,-20.55383836,1241.322008
13.4450,154.578475,-20.57062988,1241.354853
13.4500,154.7020521,-20.592124,1241.387853
13.4550,154.8358876,-20.61961905,1241.421001
13.4600,154.9802994,-20.65282505,1241.454233
13.4650,155.1347657,-20.69196065,1241.487591
13.4700,155.2988822,-20.73714874,1241.521141
13.4750,155.4727922,-20.78801579,1241.554881
13.4800,155.6565317,-20.84494113,1241.58874
13.4850,155.8491796,-20.90748021,1241.62296
13.4900,156.0517867,-20.97651306,1241.657295
13.4950,156.2628672,-21.05075747,1241.692063
13.5000,156.4821276,-21.13006329,1241.727304
13.5050,156.7081853,-21.21442592,1241.763208
13.5100,156.9408481,-21.30353244,1241.79976
13.5150,157.177866,-21.3969826,1241.83727
13.5200,157.4179496,-21.49466445,1241.87576
13.5250,157.6586008,-21.5950316,1241.915607
13.5300,157.8996605,-21.69843571,1241.956888
13.5350,158.1387864,-21.80373955,1241.999859
13.5400,158.3742295,-21.90917168,1242.044861
13.5450,158.6047142,-22.01520155,1242.091896
13.5500,158.8289278,-22.12104354,1242.141072
13.5550,159.0452819,-22.22585744,1242.192605
13.5600,159.2519973,-22.32792052,1242.246896
13.5650,159.4489691,-22.42745998,1242.303793
13.5700,159.6341772,-22.52259821,1242.363689
13.5750,159.8064515,-22.61229399,1242.426858
13.5800,159.965049,-22.69776625,1242.493119
13.5850,160.1098551,-22.77650932,1242.562639
13.5900,160.2411059,-22.84911794,1242.635336
13.5950,160.357744,-22.91465065,1242.711246
13.6000,160.460703,-22.97328866,1242.790223
13.6050,160.5493851,-23.02442642,1242.872365
13.6100,160.6227225,-23.06881029,1242.957652
13.6150,160.6814627,-23.10681054,1243.045955
13.6200,160.726922,-23.13735601,1243.137174
13.6250,160.7595578,-23.16140704,1243.231186
13.6300,160.7802691,-23.17908303,1243.327843
13.6350,160.7891828,-23.19062394,1243.427116
13.6400,160.7872698,-23.19584463,1243.528813
13.6450,160.7742926,-23.1956847,1243.632896
13.6500,160.7513451,-23.19056123,1243.739183
13.6550,160.7175959,-23.18039195,1243.847699
13.6600,160.6742983,-23.16530653,1243.958359
13.6650,160.6216292,-23.1458283,1244.071083
13.6700,160.5607629,-23.12347685,1244.185537
13.6750,160.4921044,-23.0980046,1244.301676
13.6800,160.4183559,-23.06889283,1244.419193
13.6850,160.3404511,-23.03730512,1244.5378
13.6900,160.2587873,-23.00480164,1244.657379
13.6950,160.1752266,-22.97033417,1244.777738
13.7000,160.0908025,-22.93504988,1244.898549
13.7050,160.0051345,-22.89894705,1245.019961
13.7100,159.920381,-22.86312223,1245.141571
13.7150,159.837522,-22.82901787,1245.263041
13.7200,159.7575467,-22.79638123,1245.384282
13.7250,159.6810943,-22.76629133,1245.505084
13.7300,159.609228,-22.74021265,1245.625153
13.7350,159.5432436,-22.7177995,1245.7444
13.7400,159.4841334,-22.69949991,1245.862617
13.7450,159.4325282,-22.68667962,1245.979617
13.7500,159.3910287,-22.67883367,1246.095121
13.7550,159.3586993,-22.67599925,1246.20919
13.7600,159.3368724,-22.6788063,1246.321646
13.7650,159.3266983,-22.68720439,1246.432256
13.7700,159.3276882,-22.70006952,1246.541215
13.7750,159.3404095,-22.71759529,1246.648326
13.7800,159.3645053,-22.73990019,1246.753641
