type,name,time_units,begin_time,frequency,count,units
signal_3d,"Noraxon MyoMotion-Trajectories-Lateral humeral epicondyle RT","s",0.0000,200,5108,"mm"

time,x,y,z
0.0000,212.1105913,1.170240132,1238.602142
0.0050,212.0744493,1.195809772,1238.611251
0.0100,212.03831,1.221380817,1238.620365
0.0150,212.0021733,1.246953265,1238.629486
0.0200,211.9608799,1.272038874,1238.638582
0.0250,211.9141535,1.296015306,1238.647476
0.0300,211.8617281,1.318247552,1238.656
0.0350,211.8033537,1.338118947,1238.663994
0.0400,211.7387997,1.355057337,1238.671325
0.0450,211.6678597,1.368552905,1238.677882
0.0500,211.5903559,1.378170851,1238.683582
0.0550,211.5061477,1.383559934,1238.688374
0.0600,211.415148,1.38445669,1238.692234
0.0650,211.3173433,1.380688421,1238.695161
0.0700,211.2128129,1.372176938,1238.697176
0.0750,211.101748,1.358940141,1238.698316
0.0800,210.9844726,1.341089072,1238.698629
0.0850,210.8614619,1.318821713,1238.698168
0.0900,210.7333526,1.292413397,1238.696986
0.0950,210.6009453,1.262202579,1238.695133
0.1000,210.4652007,1.228574209,1238.69265
0.1050,210.3272319,1.19194506,1238.689568
0.1100,210.1882957,1.152754066,1238.68591
0.1150,210.0497829,1.111457058,1238.681685
0.1200,209.9132023,1.068523392,1238.67689
0.1250,209.7801589,1.024432204,1238.671514
0.1300,209.6523206,0.9796665988,1238.665538
0.1350,209.5313704,0.9347064265,1238.658943
0.1400,209.4189492,0.890018675,1238.651713
0.1450,209.3165961,0.8460446766,1238.643837
0.1500,209.2256917,0.8031894647,1238.635319
0.1550,209.0758946,0.7414342922,1238.62765
0.1600,208.9393092,0.6805047573,1238.619117
0.1650,208.8169784,0.6192882525,1238.609516
0.1700,208.7090682,0.5595918371,1238.599271
0.1750,208.6146903,0.5006300348,1238.588474
0.1800,208.5349783,0.4427831576,1238.577155
0.1850,208.4683646,0.3858185616,1238.565529
0.1900,208.4137926,0.3308451659,1238.553974
0.1950,208.3719731,0.2773382115,1238.5424
0.2000,208.3401638,0.2264368374,1238.531353
0.2050,208.3171961,0.1779485701,1238.52102
0.2100,208.301531,0.1324446265,1238.511722
0.2150,208.29079,0.08956544493,1238.503733
0.2200,208.2843342,0.0493362018,1238.496954
0.2250,208.2801219,0.01179980596,1238.491717
0.2300,208.2755914,-0.02281505131,1238.488252
0.2350,208.2710059,-0.0546150326,1238.486407
0.2400,208.2652053,-0.08236877217,1238.486381
0.2450,208.2565819,-0.1075809948,1238.488049
0.2500,208.2443634,-0.1305998886,1238.491251
0.2550,208.2284626,-0.1520770684,1238.495727
0.2600,208.2079943,-0.1719562084,1238.50148
0.2650,208.1821142,-0.1914090857,1238.508428
0.2700,208.1521275,-0.210449033,1238.516031
0.2750,208.1166781,-0.2303204858,1238.52426
0.2800,208.0773645,-0.2500717535,1238.5329
0.2850,208.0346515,-0.2722994757,1238.541385
0.2900,207.9894836,-0.2956205892,1238.549723
0.2950,207.9410082,-0.32161692,1238.557658
0.3000,207.8903802,-0.351294625,1238.564823
0.3050,207.8376882,-0.3846312052,1238.571176
0.3100,207.7829985,-0.4215128049,1238.576641
0.3150,207.7286486,-0.4628339929,1238.580676
0.3200,207.6736139,-0.5093723357,1238.583406
0.3250,207.6190463,-0.5613302044,1238.584571
0.3300,207.5642707,-0.6182335998,1238.584298
0.3350,207.510663,-0.6797916533,1238.582575
0.3400,207.4574631,-0.7453323242,1238.579535
0.3450,207.4047241,-0.8147186385,1238.57522
0.3500,207.3527327,-0.8876213295,1238.569657
0.3550,207.3016422,-0.9638653966,1238.562897
0.3600,207.2501899,-1.043494917,1238.55507
0.3650,207.199249,-1.125117011,1238.54643
0.3700,207.1504781,-1.208103235,1238.536747
0.3750,207.1026544,-1.292544916,1238.526398
0.3800,207.0554621,-1.376959861,1238.515606
0.3850,207.0099596,-1.461783088,1238.504223
0.3900,206.9652263,-1.547095147,1238.492432
0.3950,206.9226132,-1.632318957,1238.480197
0.4000,206.8815623,-1.717537689,1238.467685
0.4050,206.842376,-1.80132928,1238.455043
0.4100,206.8048448,-1.884276605,1238.442368
0.4150,206.769252,-1.965549583,1238.429826
0.4200,206.7359577,-2.045833934,1238.417288
0.4250,206.7043874,-2.123944957,1238.40503
0.4300,206.6753125,-2.200577137,1238.392918
0.4350,206.6481315,-2.275587909,1238.381201
0.4400,206.6236208,-2.348200285,1238.369781
0.4450,206.6003605,-2.417947413,1238.359038
0.4500,206.5803259,-2.484658123,1238.348698
0.4550,206.56197,-2.54831291,1238.338993
0.4600,206.5453094,-2.609396141,1238.32985
0.4650,206.5303776,-2.66694918,1238.321332
0.4700,206.5177467,-2.721034917,1238.313353
0.4750,206.5073531,-2.772179167,1238.305788
0.4800,206.4987717,-2.820572076,1238.298665
0.4850,206.49235,-2.865311878,1238.292016
0.4900,206.4888619,-2.907447582,1238.285488
0.4950,206.4868424,-2.946365374,1238.279386
0.5000,206.4874046,-2.982626415,1238.273459
0.5050,206.4901127,-3.015671928,1238.26772
0.5100,206.4946463,-3.046718864,1238.262015
0.5150,206.5019482,-3.075188332,1238.256315
0.5200,206.510745,-3.101936688,1238.250659
0.5250,206.5214431,-3.127373693,1238.244861
0.5300,206.5337389,-3.152295291,1238.238863
0.5350,206.5480002,-3.176591675,1238.232685
0.5400,206.5628481,-3.20169628,1238.226264
0.5450,206.5785076,-3.226790818,1238.219671
0.5500,206.5949837,-3.251642873,1238.212996
0.5550,206.6112616,-3.276934347,1238.206361
0.5600,206.6274753,-3.30279501,1238.199697
0.5650,206.6441029,-3.328204084,1238.193043
0.5700,206.6605409,-3.354312823,1238.18644
0.5750,206.6777411,-3.380423314,1238.17981
0.5800,206.6961983,-3.407027925,1238.172957
0.5850,206.715128,-3.433562524,1238.166176
0.5900,206.734829,-3.459905778,1238.159474
0.5950,206.7565315,-3.485855884,1238.152665
0.6000,206.7800955,-3.511346233,1238.145782
0.6050,206.8054111,-3.535863003,1238.138956
0.6100,206.8332049,-3.560740392,1238.131924
0.6150,206.8625456,-3.585346351,1238.124994
0.6200,206.8946414,-3.6095289,1238.117896
0.6250,206.9280146,-3.632708822,1238.111048
0.6300,206.9637809,-3.655694959,1238.104179
0.6350,207.0007549,-3.678728871,1238.097354
0.6400,207.0389767,-3.701175303,1238.090725
0.6450,207.0790863,-3.722712526,1238.084292
0.6500,207.1203934,-3.74409383,1238.077992
0.6550,207.1624481,-3.765001582,1238.07196
0.6600,207.2053063,-3.784610498,1238.066282
0.6650,207.2486027,-3.804118856,1238.060794
0.6700,207.2913501,-3.822747128,1238.055814
0.6750,207.3334379,-3.840593987,1238.051285
0.6800,207.3746891,-3.858257629,1238.047225
0.6850,207.4142683,-3.87461697,1238.043832
0.6900,207.4521456,-3.889904977,1238.041109
0.6950,207.488288,-3.903426997,1238.039012
0.7000,207.5225324,-3.915263115,1238.037565
0.7050,207.5549946,-3.925376785,1238.036741
0.7100,207.5862683,-3.933547575,1238.036398
0.7150,207.6152156,-3.940473599,1238.036481
0.7200,207.6416816,-3.946153216,1238.036985
0.7250,207.6676642,-3.950846806,1238.037574
0.7300,207.6916322,-3.955190441,1238.038328
0.7350,207.7148782,-3.959122997,1238.038986
0.7400,207.7370337,-3.964314526,1238.039436
0.7450,207.7601062,-3.970755491,1238.03931
0.7500,207.7812562,-3.979672363,1238.038875
0.7550,207.8026369,-3.991077518,1238.037834
0.7600,207.8239254,-4.005554917,1238.036193
0.7650,207.8459116,-4.023578649,1238.033713
0.7700,207.8685605,-4.045750666,1238.030375
0.7750,207.8927073,-4.071472713,1238.026128
0.7800,207.918282,-4.101146045,1238.020854
0.7850,207.9470204,-4.134967967,1238.014344
0.7900,207.977804,-4.173261055,1238.006729
0.7950,208.0123058,-4.21509781,1237.997855
0.8000,208.049778,-4.261612443,1237.987649
0.8050,208.0906647,-4.313193497,1237.975974
0.8100,208.1352362,-4.36921032,1237.962884
0.8150,208.1821336,-4.429940032,1237.948518
0.8200,208.2322608,-4.494505624,1237.932899
0.8250,208.2837621,-4.562017638,1237.916419
0.8300,208.3373391,-4.63203703,1237.89906
0.8350,208.3916228,-4.705415304,1237.880914
0.8400,208.4460725,-4.780071305,1237.862452
0.8450,208.5007067,-4.856404496,1237.843585
0.8500,208.5536888,-4.934357717,1237.824736
0.8550,208.6041655,-5.013367814,1237.806047
0.8600,208.6505087,-5.092888842,1237.787922
0.8650,208.6921227,-5.172355525,1237.770478
0.8700,208.7269547,-5.251362888,1237.754121
0.8750,208.7539452,-5.329496094,1237.739043
0.8800,208.7720667,-5.406388221,1237.725448
0.8850,208.7803956,-5.481676595,1237.713421
0.8900,208.7776425,-5.554628868,1237.703163
0.8950,208.7632976,-5.626092925,1237.694627
0.9000,208.7366921,-5.694839101,1237.687964
0.9050,208.6980661,-5.762747246,1237.68282
0.9100,208.6467568,-5.827864312,1237.679455
0.9150,208.5824901,-5.892300124,1237.677485
0.9200,208.5057045,-5.954333402,1237.676977
0.9250,208.4174799,-6.015681633,1237.677471
0.9300,208.3185921,-6.075715268,1237.678861
0.9350,208.2086303,-6.133922518,1237.681128
0.9400,208.0888401,-6.192674771,1237.683764
0.9450,207.9601556,-6.251383938,1237.686552
0.9500,207.8242762,-6.310035376,1237.68921
0.9550,207.6814699,-6.368499405,1237.691633
0.9600,207.5338636,-6.428137836,1237.693313
0.9650,207.3827591,-6.488109346,1237.69412
0.9700,207.2288812,-6.548686208,1237.6939
0.9750,207.0739153,-6.609049588,1237.692502
0.9800,206.9197427,-6.670342743,1237.689438
0.9850,206.7672873,-6.732020178,1237.684685
0.9900,206.6177733,-6.793212595,1237.678115
0.9950,206.4713997,-6.855520408,1237.669538
1.0000,206.3316064,-6.918809573,1237.658407
1.0050,206.198232,-6.982644946,1237.64482
1.0100,206.072117,-7.04708273,1237.628659
1.0150,205.9553014,-7.111104625,1237.609742
1.0200,205.8490245,-7.175612926,1237.587802
1.0250,205.7524193,-7.240196995,1237.56308
1.0300,205.6675371,-7.305301075,1237.535125
1.0350,205.5950404,-7.370924509,1237.503917
1.0400,205.5354557,-7.436056771,1237.469556
1.0450,205.4884451,-7.501618622,1237.432081
1.0500,205.4541856,-7.567570652,1237.391491
1.0550,205.4324245,-7.633750209,1237.347959
1.0600,205.4234697,-7.700011005,1237.301481
1.0650,205.4257219,-7.766624207,1237.252402
1.0700,205.4388857,-7.833739563,1237.20076
1.0750,205.4616918,-7.900620594,1237.146962
1.0800,205.4935321,-7.967829144,1237.091262
1.0850,205.5325377,-8.035090208,1237.033922
1.0900,205.5782229,-8.101051736,1236.975372
1.0950,205.6279643,-8.167318629,1236.915815
1.1000,205.6813435,-8.232570493,1236.855634
1.1050,205.737365,-8.296415477,1236.795011
1.1100,205.7948855,-8.35813387,1236.734324
1.1150,205.8543279,-8.418418288,1236.673374
1.1200,205.9146915,-8.477037061,1236.612398
1.1250,205.9757936,-8.533812951,1236.551438
1.1300,206.0373902,-8.589001336,1236.490541
1.1350,206.0987579,-8.642077231,1236.42978
1.1400,206.1601811,-8.693920848,1236.368906
1.1450,206.2206527,-8.743113014,1236.308418
1.1500,206.2819547,-8.790645531,1236.247735
1.1550,206.3431976,-8.83562038,1236.187139
1.1600,206.405025,-8.879277108,1236.126224
1.1650,206.4680372,-8.921900349,1236.064779
1.1700,206.5321121,-8.963210373,1236.002711
1.1750,206.5984812,-9.004066144,1235.939665
1.1800,206.6665288,-9.044774453,1235.87566
1.1850,206.7364968,-9.085804322,1235.810514
1.1900,206.8095035,-9.128574955,1235.743918
1.1950,206.8846939,-9.171627134,1235.675988
1.2000,206.9628054,-9.216008018,1235.606504
1.2050,207.0442271,-9.261605093,1235.53531
1.2100,207.1288399,-9.310520526,1235.462005
1.2150,207.2166438,-9.360773822,1235.386738
1.2200,207.3077002,-9.414335952,1235.309186
1.2250,207.4031247,-9.47066686,1235.229096
1.2300,207.5019792,-9.530258035,1235.146495
1.2350,207.6053165,-9.593959994,1235.061077
1.2400,207.7135409,-9.660598297,1234.972858
1.2450,207.826662,-9.730956509,1234.881798
1.2500,207.9445863,-9.804694178,1234.787877
1.2550,208.0681062,-9.882363209,1234.690964
1.2600,208.1969629,-9.963993632,1234.591117
1.2650,208.3304494,-10.04860528,1234.488554
1.2700,208.4695003,-10.13642314,1234.383169
1.2750,208.613189,-10.22823507,1234.275001
1.2800,208.7621449,-10.32211765,1234.164259
1.2850,208.9152146,-10.41821955,1234.05099
1.2900,209.0728744,-10.51645208,1233.935198
1.2950,209.2349034,-10.61616315,1233.817002
1.3000,209.4005594,-10.71575224,1233.696718
1.3050,209.5682661,-10.81567857,1233.574581
1.3100,209.7379697,-10.91512294,1233.450718
1.3150,209.9088487,-11.01395085,1233.325435
1.3200,210.0795997,-11.1110614,1233.199094
1.3250,210.250472,-11.20726232,1233.071561
1.3300,210.4195051,-11.29951278,1232.943699
1.3350,210.5852069,-11.38883316,1232.81554
1.3400,210.7477018,-11.47408815,1232.687268
1.3450,210.905087,-11.55497976,1232.55916
1.3500,211.0588614,-11.6310298,1232.431094
1.3550,211.2077437,-11.70201152,1232.303352
1.3600,211.3505739,-11.7670268,1232.176179
1.3650,211.4878956,-11.8265263,1232.049467
1.3700,211.6190791,-11.87993997,1231.923426
1.3750,211.7438895,-11.92814471,1231.797937
1.3800,211.8625032,-11.97031585,1231.672949
1.3850,211.9745231,-12.00812652,1231.548344
1.3900,212.0799607,-12.04128749,1231.424069
1.3950,212.180345,-12.06971298,1231.299913
1.4000,212.2753176,-12.09328077,1231.175865
1.4050,212.3659869,-12.11254176,1231.051745
1.4100,212.4514678,-12.12812329,1230.927464
1.4150,212.5321858,-12.14001534,1230.803055
1.4200,212.607892,-12.14882094,1230.678321
1.4250,212.6795584,-12.15495893,1230.553115
1.4300,212.7464739,-12.15808965,1230.427472
1.4350,212.8099066,-12.15869404,1230.301215
1.4400,212.868923,-12.15773039,1230.174365
1.4450,212.9250553,-12.15547341,1230.04651
1.4500,212.9768032,-12.15141545,1229.91796
1.4550,213.0261296,-12.14624163,1229.788356
1.4600,213.0727456,-12.13968981,1229.657771
1.4650,213.1163629,-12.13248067,1229.526249
1.4700,213.1577058,-12.12430262,1229.393695
1.4750,213.195368,-12.11591361,1229.260216
1.4800,213.2306289,-12.10801318,1229.125533
1.4850,213.263697,-12.09914479,1228.989913
1.4900,213.293996,-12.08947705,1228.853254
1.4950,213.3218703,-12.08011773,1228.71556
1.5000,213.3473734,-12.07103688,1228.576786
1.5050,213.3693387,-12.06197448,1228.437106
1.5100,213.3876458,-12.05191095,1228.296741
1.5150,213.4026994,-12.04195847,1228.15565
1.5200,213.4134707,-12.03162748,1228.013979
1.5250,213.4195429,-12.02138284,1227.871837
1.5300,213.4203759,-12.01061439,1227.729371
1.5350,213.4154159,-11.99914966,1227.586758
1.5400,213.4047645,-11.98779892,1227.443902
1.5450,213.3874811,-11.97602221,1227.301004
1.5500,213.3635214,-11.96452567,1227.158141
1.5550,213.3324416,-11.95364787,1227.015246
1.5600,213.2930279,-11.94214907,1226.872704
1.5650,213.2453692,-11.93026757,1226.730607
1.5700,213.1896486,-11.91778064,1226.589096
1.5750,213.1273747,-11.90425748,1226.448116
1.5800,213.0563389,-11.88914685,1226.308054
1.5850,212.9782869,-11.87255918,1226.168934
1.5900,212.89258,-11.85381704,1226.030976
1.5950,212.7993635,-11.83238338,1225.894273
1.6000,212.6976419,-11.80768175,1225.759131
1.6050,212.5896142,-11.77948335,1225.625349
1.6100,212.4749884,-11.74775609,1225.49302
1.6150,212.3531482,-11.7120613,1225.362346
1.6200,212.2253929,-11.6713275,1225.233322
1.6250,212.0915865,-11.62503952,1225.106045
1.6300,211.9538778,-11.57460023,1224.980086
1.6350,211.8110554,-11.51862868,1224.855845
1.6400,211.6636794,-11.45770406,1224.733086
1.6450,211.5123048,-11.39240978,1224.611717
1.6500,211.3568051,-11.322303,1224.491824
1.6550,211.1976122,-11.24747637,1224.37325
1.6600,211.0364916,-11.16852755,1224.255666
1.6650,210.8731988,-11.0840181,1224.139283
1.6700,210.7082696,-10.99449438,1224.023916
1.6750,210.5424904,-10.90058477,1223.909391
1.6800,210.3762649,-10.80176539,1223.795757
1.6850,210.2110335,-10.69688462,1223.682958
1.6900,210.0464704,-10.58695197,1223.570904
1.6950,209.8820055,-10.47134109,1223.459839
1.7000,209.719231,-10.35071113,1223.349433
1.7050,209.5574877,-10.22476276,1223.239915
1.7100,209.397163,-10.09312672,1223.131322
1.7150,209.2380667,-9.955947782,1223.023635
1.7200,209.0809433,-9.811354864,1222.917042
1.7250,208.926538,-9.659457512,1222.811399
1.7300,208.7752463,-9.500306147,1222.706733
1.7350,208.6259323,-9.333713284,1222.603214
1.7400,208.4798274,-9.158329615,1222.500882
1.7450,208.3358047,-8.975209344,1222.399765
1.7500,208.1953314,-8.783622945,1222.299768
1.7550,208.0569215,-8.583802934,1222.201033
1.7600,207.9209471,-8.375370657,1222.10368
1.7650,207.7858094,-8.158786994,1222.007804
1.7700,207.6514664,-7.93450044,1221.913424
1.7750,207.5174902,-7.701426782,1221.820868
1.7800,207.3825674,-7.460151783,1221.730178
1.7850,207.246742,-7.211807535,1221.641236
1.7900,207.1088646,-6.956581843,1221.55426
1.7950,206.9693549,-6.694967506,1221.469149
1.8000,206.8269544,-6.427281603,1221.386007
1.8050,206.6822646,-6.154535692,1221.304528
1.8100,206.5347566,-5.878410785,1221.22456
1.8150,206.3828631,-5.598944147,1221.146273
1.8200,206.227466,-5.316968918,1221.069486
1.8250,206.0667203,-5.031927073,1220.994467
1.8300,205.9010161,-4.744450644,1220.921236
1.8350,205.7300099,-4.455247795,1220.84962
1.8400,205.5525915,-4.164308367,1220.779763
1.8450,205.3700015,-3.871822961,1220.711588
1.8500,205.1818573,-3.576048959,1220.645327
1.8550,204.9879458,-3.276066238,1220.581183
1.8600,204.7889963,-2.972407816,1220.519001
1.8650,204.5863425,-2.664717652,1220.458619
1.8700,204.3788614,-2.352397577,1220.4003
1.8750,204.1667184,-2.034319657,1220.344211
1.8800,203.9507875,-1.7100711,1220.290402
1.8850,203.7315699,-1.378915368,1220.238844
1.8900,203.5084868,-1.040267617,1220.189727
1.8950,203.2822054,-0.6928142335,1220.143279
1.9000,203.0527677,-0.3371519215,1220.099372
1.9050,202.8211747,0.02687832639,1220.057918
1.9100,202.5855392,0.4003034697,1220.019351
1.9150,202.3474004,0.7824882804,1219.983316
1.9200,202.1051698,1.173779767,1219.950254
1.9250,201.859289,1.57263568,1219.919919
1.9300,201.6073977,1.97952173,1219.892743
1.9350,201.3506943,2.393751834,1219.868558
1.9400,201.088344,2.815210935,1219.847565
1.9450,200.820811,3.243468266,1219.829634
1.9500,200.5468479,3.677690696,1219.814893
1.9550,200.2658792,4.116789866,1219.80332
1.9600,199.9765065,4.560019759,1219.795045
1.9650,199.6783021,5.006312071,1219.789982
1.9700,199.3716051,5.456396797,1219.788364
1.9750,199.0556359,5.910235131,1219.790353
1.9800,198.7315307,6.367722998,1219.795913
1.9850,198.3983407,6.828886157,1219.8053
1.9900,198.057048,7.292674051,1219.818194
1.9950,197.708375,7.758506938,1219.834336
2.0000,197.351549,8.226207901,1219.853784
2.0050,196.9861591,8.694558403,1219.876284
2.0100,196.6125066,9.162667469,1219.901629
2.0150,196.2313298,9.632224307,1219.929975
2.0200,195.8411762,10.1028433,1219.961518
2.0250,195.4425316,10.57540811,1219.996447
2.0300,195.0366501,11.05129751,1220.034902
2.0350,194.6239899,11.53093906,1220.076916
2.0400,194.2052909,12.01415303,1220.122414
2.0450,193.781192,12.50074786,1220.171262
2.0500,193.3506151,12.99134871,1220.223789
2.0550,192.9118426,13.48647736,1220.280444
2.0600,192.4655944,13.98530781,1220.341023
2.0650,192.0130227,14.48756941,1220.405377
2.0700,191.5536245,14.99272608,1220.473581
2.0750,191.0873704,15.49915854,1220.545201
2.0800,190.61408,16.00716003,1220.620398
2.0850,190.132783,16.51605868,1220.699115
2.0900,189.6438889,17.02418034,1220.780909
2.0950,189.1465834,17.53161259,1220.865912
2.1000,188.6410401,18.03813279,1220.954085
2.1050,188.1268238,18.54389974,1221.04563
2.1100,187.6049128,19.04970362,1221.140571
2.1150,187.0768883,19.55492294,1221.238557
2.1200,186.5421447,20.06103358,1221.340052
2.1250,186.0020166,20.56570046,1221.444347
2.1300,185.4559197,21.06890671,1221.551497
2.1350,184.9038873,21.57149045,1221.661737
2.1400,184.3464607,22.07419064,1221.775255
2.1450,183.7839027,22.57607148,1221.89177
2.1500,183.2160164,23.07506924,1222.010854
2.1550,182.6428842,23.57233158,1222.132752
2.1600,182.0655995,24.06790342,1222.257358
2.1650,181.4823254,24.56182096,1222.38503
2.1700,180.8939235,25.05497696,1222.515752
2.1750,180.299978,25.54761493,1222.649778
2.1800,179.7010886,26.04052343,1222.787216
2.1850,179.0973416,26.53336701,1222.927999
2.1900,178.4887302,27.02532922,1223.072006
2.1950,177.8741397,27.51678498,1223.2195
2.2000,177.2536703,28.00746923,1223.370482
2.2050,176.6263802,28.49763234,1223.525217
2.2100,175.9924556,28.98702702,1223.683642
2.2150,175.3504209,29.47595602,1223.846092
2.2200,174.7006081,29.96263737,1224.012038
2.2250,174.0414229,30.44814579,1224.182032
2.2300,173.3750042,30.93367462,1224.356034
2.2350,172.7013264,31.42098216,1224.53456
2.2400,172.0201205,31.91098864,1224.718048
2.2450,171.3327663,32.40470041,1224.906651
2.2500,170.6413495,32.90276305,1225.100185
2.2550,169.9457249,33.40476058,1225.298629
2.2600,169.2476764,33.9095857,1225.501411
2.2650,168.5469484,34.41557683,1225.708245
2.2700,167.8420301,34.92232601,1225.91923
2.2750,167.1316505,35.4285171,1226.134359
2.2800,166.4138099,35.93342972,1226.353725
2.2850,165.6876901,36.43560069,1226.577139
2.2900,164.9535507,36.93531615,1226.804709
2.2950,164.2111363,37.4326634,1227.036575
2.3000,163.4606098,37.92942348,1227.273391
2.3050,162.7039231,38.42674838,1227.515141
2.3100,161.9416256,38.9261769,1227.762246
2.3150,161.1736896,39.42661904,1228.014547
2.3200,160.4015802,39.92774686,1228.271601
2.3250,159.6250991,40.42968435,1228.533501
2.3300,158.8438665,40.93141479,1228.800052
2.3350,158.0576907,41.43307444,1229.071404
2.3400,157.2661812,41.93416611,1229.347471
2.3450,156.4691748,42.4349878,1229.628409
2.3500,155.6674381,42.93479575,1229.913877
2.3550,154.8629815,43.4341824,1230.203544
2.3600,154.057209,43.93342174,1230.497177
2.3650,153.250886,44.43423323,1230.795157
2.3700,152.445688,44.93754142,1231.097335
2.3750,151.6431481,45.44327199,1231.403411
2.3800,150.8451712,45.95062071,1231.712637
2.3850,150.0517176,46.46015614,1232.025305
2.3900,149.2640328,46.97040069,1232.3406
2.3950,148.4820806,47.48092597,1232.658303
2.4000,147.706016,47.98977253,1232.977746
2.4050,146.9362149,48.49643783,1233.298597
2.4100,146.1725511,48.99979075,1233.620429
2.4150,145.4137972,49.50003169,1233.943552
2.4200,144.6604208,49.99631583,1234.267553
2.4250,143.9124581,50.48984032,1234.592721
2.4300,143.171159,50.98118755,1234.918839
2.4350,142.4382122,51.4714867,1235.245824
2.4400,141.7130691,51.9606338,1235.573667
2.4450,140.9954188,52.44887269,1235.902411
2.4500,140.2841631,52.93795937,1236.23286
2.4550,139.5808009,53.42679832,1236.564232
2.4600,138.8840003,53.91618785,1236.897092
2.4650,138.1954445,54.4061103,1237.230887
2.4700,137.5148407,54.89677572,1237.565807
2.4750,136.842875,55.38697627,1237.901153
2.4800,136.1778353,55.87514696,1238.236762
2.4850,135.5189597,56.36167775,1238.572985
2.4900,134.8653728,56.84733045,1238.910309
2.4950,134.2177184,57.3305992,1239.247985
2.5000,133.5760562,57.81197477,1239.586114
2.5050,132.9385398,58.29110533,1239.925092
2.5100,132.3056236,58.76743049,1240.264516
2.5150,131.6775505,59.23989244,1240.603972
2.5200,131.0545332,59.70961017,1240.943741
2.5250,130.4365424,60.17676022,1241.283917
2.5300,129.8232639,60.63987028,1241.624042
2.5350,129.2138621,61.09652659,1241.963312
2.5400,128.6069889,61.54478822,1242.301302
2.5450,128.0012271,61.9844491,1242.638271
2.5500,127.3936695,62.41535123,1242.975036
2.5550,126.7854862,62.83942524,1243.311938
2.5600,126.1762366,63.25907795,1243.650021
2.5650,125.5665652,63.67453691,1243.98915
2.5700,124.9583217,64.08699857,1244.329216
2.5750,124.3542292,64.49653936,1244.669383
2.5800,123.7547004,64.90313289,1245.009528
2.5850,123.160664,65.30599411,1245.34903
2.5900,122.5721035,65.70621891,1245.688304
2.5950,121.9891875,66.10289939,1246.026922
2.6000,121.4120036,66.49297225,1246.363529
2.6050,120.838951,66.87602177,1246.698399
2.6100,120.2701905,67.24991176,1247.030657
2.6150,119.7050318,67.61398759,1247.360122
2.6200,119.1432606,67.9683382,1247.686864
2.6250,118.5852956,68.3110665,1248.009863
2.6300,118.0297337,68.64211151,1248.329484
2.6350,117.4774304,68.96100862,1248.64511
2.6400,116.9292413,69.26978524,1248.957225
2.6450,116.3860119,69.56996922,1249.266126
2.6500,115.8468804,69.86154035,1249.572013
2.6550,115.3134336,70.14494285,1249.874531
2.6600,114.7853099,70.4203257,1250.173728
2.6650,114.2624069,70.68737857,1250.469478
2.6700,113.7454605,70.94607847,1250.761441
2.6750,113.2336209,71.19722057,1251.05008
2.6800,112.7262181,71.44174016,1251.33607
2.6850,112.2247395,71.67925495,1251.618581
2.6900,111.7294945,71.91337387,1251.899036
2.6950,111.242262,72.14438433,1252.176948
2.7000,110.7645322,72.37399679,1252.452476
2.7050,110.2964797,72.60270625,1252.725729
2.7100,109.8374625,72.83157529,1252.997338
2.7150,109.3886853,73.05881372,1253.266015
2.7200,108.9500762,73.28498598,1253.53198
2.7250,108.520388,73.50973816,1253.795497
2.7300,108.0995803,73.73232285,1254.056273
2.7350,107.6858378,73.95185518,1254.314488
2.7400,107.2790483,74.16757993,1254.569812
2.7450,106.8789781,74.38086948,1254.822848
2.7500,106.4855449,74.59053387,1255.073155
2.7550,106.0990529,74.79607214,1255.32034
2.7600,105.7184263,74.99768563,1255.56483
2.7650,105.3428997,75.19575871,1255.807089
2.7700,104.9718402,75.38996721,1256.04718
2.7750,104.6040625,75.58110914,1256.285946
2.7800,104.2412951,75.77036009,1256.523292
2.7850,103.8842349,75.95863606,1256.759408
2.7900,103.5347921,76.14622752,1256.993773
2.7950,103.1938042,76.332842,1257.225925
2.8000,102.8609591,76.51774937,1257.455772
2.8050,102.5369328,76.70042456,1257.682723
2.8100,102.222304,76.87982388,1257.906232
2.8150,101.9156656,77.05542876,1258.126496
2.8200,101.6161017,77.22606055,1258.343292
2.8250,101.3230707,77.38981755,1258.55589
2.8300,101.0351511,77.54619166,1258.764551
2.8350,100.7505797,77.69510365,1258.9699
2.8400,100.470368,77.83805604,1259.172167
2.8450,100.1934035,77.97397137,1259.371204
2.8500,99.91902004,78.10220747,1259.566864
2.8550,99.64579098,78.222433,1259.759403
2.8600,99.37069674,78.33334558,1259.949391
2.8650,99.09219466,78.4366082,1260.137965
2.8700,98.80726313,78.53087456,1260.325586
2.8750,98.51318002,78.61867522,1260.514405
2.8800,98.2095388,78.70045789,1260.704662
2.8850,97.89606664,78.77943929,1260.897827
2.8900,97.5707866,78.85581793,1261.094666
2.8950,97.23253265,78.93115154,1261.29635
2.9000,96.8812744,79.0088134,1261.504421
2.9050,96.51743621,79.09117706,1261.719922
2.9100,96.14173499,79.18055963,1261.943586
2.9150,95.75641671,79.27998465,1262.176008
2.9200,95.36226605,79.38973782,1262.417005
2.9250,94.96013895,79.51196776,1262.667364
2.9300,94.55230445,79.647363,1262.926502
2.9350,94.139812,79.79721096,1263.194725
2.9400,93.72257245,79.96034014,1263.471654
2.9450,93.30092205,80.13499544,1263.756457
2.9500,92.87589678,80.3207804,1264.048589
2.9550,92.44786272,80.51488945,1264.346623
2.9600,92.01704011,80.71709473,1264.650464
2.9650,91.58478103,80.92669287,1264.959292
2.9700,91.15059725,81.14211854,1265.27259
2.9750,90.71623792,81.36428568,1265.590158
2.9800,90.28232251,81.59124343,1265.910787
2.9850,89.84996405,81.82296798,1266.23406
2.9900,89.41977629,82.05722853,1266.55857
2.9950,88.99184891,82.29435515,1266.88442
3.0000,88.56503732,82.53409032,1267.211849
3.0050,88.14072958,82.77590666,1267.540042
3.0100,87.71977629,83.01921272,1267.868355
3.0150,87.3024347,83.26664114,1268.197892
3.0200,86.88844084,83.5175585,1268.528434
3.0250,86.47891321,83.77116807,1268.85908
3.0300,86.07415032,84.02937907,1269.190505
3.0350,85.67416235,84.29183825,1269.522527
3.0400,85.27908416,84.55830415,1269.854943
3.0450,84.8892473,84.82836385,1270.187429
3.0500,84.5058872,85.10288814,1270.519814
3.0550,84.12891927,85.38222867,1270.852355
3.0600,83.75887184,85.66542512,1271.184371
3.0650,83.39766709,85.95242781,1271.514987
3.0700,83.04450128,86.24215411,1271.843972
3.0750,82.70068625,86.5342497,1272.170589
3.0800,82.36572041,86.8274728,1272.494373
3.0850,82.03901948,87.12004446,1272.814657
3.0900,81.71928828,87.41034961,1273.131171
3.0950,81.40582242,87.69953383,1273.444852
3.1000,81.09910034,87.98608543,1273.754627
3.1050,80.79941812,88.2710378,1274.060962
3.1100,80.50603732,88.55403546,1274.363827
3.1150,80.21962206,88.83482302,1274.662846
3.1200,79.94046117,89.11377533,1274.958064
3.1250,79.66733657,89.39119168,1275.250119
3.1300,79.40051336,89.66790124,1275.539239
3.1350,79.1411475,89.94491862,1275.825354
3.1400,78.88702688,90.22114153,1276.108896
3.1450,78.63875217,90.49805744,1276.390301
3.1500,78.3958229,90.77605292,1276.670064
3.1550,78.15637771,91.05391507,1276.948398
3.1600,77.92078753,91.33116407,1277.224883
3.1650,77.68620629,91.60680909,1277.500318
3.1700,77.45226606,91.88072182,1277.77482
3.1750,77.21816801,92.15060887,1278.04762
3.1800,76.98157796,92.41587924,1278.319539
3.1850,76.74008858,92.67431258,1278.590611
3.1900,76.49321856,92.92561981,1278.860967
3.1950,76.24123718,93.17072103,1279.130968
3.2000,75.98304996,93.40684797,1279.399738
3.2050,75.71752369,93.6321501,1279.666781
3.2100,75.44332539,93.84677716,1279.932872
3.2150,75.15937604,94.04919154,1280.197712
3.2200,74.86677135,94.24065511,1280.46159
3.2250,74.56343695,94.42000916,1280.724878
3.2300,74.25095072,94.58831609,1280.987554
3.2350,73.92993375,94.74447019,1281.248649
3.2400,73.60093477,94.88868604,1281.508039
3.2450,73.26599928,95.02156972,1281.765073
3.2500,72.92645016,95.14378569,1282.019447
3.2550,72.58253656,95.25643181,1282.271663
3.2600,72.23514725,95.36039607,1282.521735
3.2650,71.88472333,95.45566378,1282.769349
3.2700,71.533443,95.54335956,1283.014131
3.2750,71.18296611,95.62276595,1283.254805
3.2800,70.83478588,95.69585939,1283.491668
3.2850,70.48954416,95.76258985,1283.724285
3.2900,70.14738735,95.82348058,1283.95286
3.2950,69.80823206,95.87762784,1284.176918
3.3000,69.47392137,95.92511023,1284.395554
3.3050,69.14302624,95.96617139,1284.609549
3.3100,68.81564726,96.0003926,1284.818573
3.3150,68.4919687,96.02688749,1285.022072
3.3200,68.17227404,96.04663098,1285.220425
3.3250,67.85828298,96.0613844,1285.413657
3.3300,67.54956939,96.06926495,1285.600987
3.3350,67.24713718,96.07169109,1285.782556
3.3400,66.95092833,96.06885169,1285.958461
3.3450,66.66124396,96.06162927,1286.12902
3.3500,66.37686392,96.04988185,1286.294705
3.3550,66.09716985,96.03390825,1286.455983
3.3600,65.82303144,96.01496292,1286.613056
3.3650,65.55261748,95.99238527,1286.766446
3.3700,65.28770302,95.96675968,1286.915606
3.3750,65.0274431,95.93827907,1287.061024
3.3800,64.77199855,95.9071466,1287.202713
3.3850,64.52067802,95.87409819,1287.341438
3.3900,64.27294783,95.83889446,1287.477299
3.3950,64.02873325,95.80069583,1287.6098
3.4000,63.78673685,95.76073252,1287.740273
3.4050,63.54716943,95.71830389,1287.868193
3.4100,63.30998493,95.6737384,1287.993831
3.4150,63.07551798,95.6286324,1288.11783
3.4200,62.84261761,95.58270845,1288.240672
3.4250,62.61300184,95.5374303,1288.36218
3.4300,62.38491797,95.49147354,1288.482589
3.4350,62.1565584,95.44462823,1288.60282
3.4400,61.92892773,95.39740117,1288.722567
3.4450,61.70008697,95.34924983,1288.842649
3.4500,61.47029193,95.30080907,1288.963272
3.4550,61.23982824,95.25392693,1289.0853
3.4600,61.0072102,95.20863483,1289.209499
3.4650,60.77448067,95.16551377,1289.335177
3.4700,60.54086989,95.12335554,1289.46203
3.4750,60.30690991,95.08429754,1289.590912
3.4800,60.07266702,95.04775858,1289.721496
3.4850,59.83937021,95.01535222,1289.853951
3.4900,59.60651743,94.98621595,1289.988074
3.4950,59.37368134,94.9589552,1290.123366
3.5000,59.14203585,94.93497732,1290.259914
3.5050,58.91198283,94.91479368,1290.397741
3.5100,58.68459655,94.8975297,1290.535706
3.5150,58.45932735,94.88253149,1290.673796
3.5200,58.23673031,94.86907109,1290.811202
3.5250,58.01727253,94.85738846,1290.947761
3.5300,57.80045639,94.84605827,1291.082846
3.5350,57.58650167,94.83680719,1291.217323
3.5400,57.37707352,94.82848225,1291.349678
3.5450,57.17222123,94.82202598,1291.480314
3.5500,56.97367001,94.81756268,1291.608424
3.5550,56.78401093,94.81559704,1291.732787
3.5600,56.60362073,94.81536052,1291.852753
3.5650,56.43296206,94.81663377,1291.967941
3.5700,56.27148747,94.81924268,1292.078498
3.5750,56.11885144,94.82373394,1292.184889
3.5800,55.97471559,94.82995775,1292.287293
3.5850,55.83965855,94.83743955,1292.385158
3.5900,55.71349372,94.84630151,1292.478679
3.5950,55.59621644,94.8560863,1292.567592
3.6000,55.48729219,94.8652428,1292.651381
3.6050,55.38683037,94.87302917,1292.729565
3.6100,55.29474312,94.87916221,1292.802091
3.6150,55.20932591,94.88256891,1292.869297
3.6200,55.12881148,94.88023941,1292.930536
3.6250,55.05069298,94.87134655,1292.98674
3.6300,54.97356294,94.85569621,1293.038577
3.6350,54.89635228,94.83191678,1293.085966
3.6400,54.81778833,94.80048283,1293.129956
3.6450,54.73707362,94.76128037,1293.170899
3.6500,54.65497728,94.71364679,1293.208054
3.6550,54.56922308,94.65803026,1293.242968
3.6600,54.47906395,94.59336965,1293.275437
3.6650,54.38368892,94.52092854,1293.30664
3.6700,54.28224329,94.44074121,1293.337067
3.6750,54.17431901,94.35278532,1293.366919
3.6800,54.06014122,94.25805827,1293.396644
3.6850,53.93950588,94.15660582,1293.426336
3.6900,53.81423802,94.05008576,1293.455867
3.6950,53.68376539,93.93961146,1293.486218
3.7000,53.54858786,93.82661349,1293.517898
3.7050,53.40961532,93.71206683,1293.55084
3.7100,53.26617644,93.59655354,1293.585745
3.7150,53.12054651,93.48234908,1293.622547
3.7200,52.97301704,93.37021401,1293.661372
3.7250,52.82341277,93.25988853,1293.702185
3.7300,52.67329958,93.15402896,1293.745561
3.7350,52.52366776,93.05231715,1293.790556
3.7400,52.37413992,92.95564892,1293.83794
3.7450,52.22686688,92.86459271,1293.886629
3.7500,52.08125973,92.77933444,1293.937026
3.7550,51.93823569,92.69999556,1293.988638
3.7600,51.79938224,92.62779492,1294.041201
3.7650,51.66488947,92.5633266,1294.094818
3.7700,51.53577597,92.50742607,1294.149436
3.7750,51.41179386,92.46029874,1294.205207
3.7800,51.29371344,92.42261981,1294.261939
3.7850,51.18131371,92.39389932,1294.319447
3.7900,51.07512743,92.37483585,1294.377781
3.7950,50.97543599,92.36551144,1294.436707
3.8000,50.88146445,92.36552662,1294.496382
3.8050,50.79351985,92.37536073,1294.556912
3.8100,50.71178125,92.39511745,1294.618265
3.8150,50.63831638,92.42488764,1294.679177
3.8200,50.57218133,92.46384215,1294.739779
3.8250,50.51534458,92.51233598,1294.799053
3.8300,50.46812209,92.57053069,1294.856981
3.8350,50.4307381,92.63746832,1294.912868
3.8400,50.40336592,92.71325407,1294.966588
3.8450,50.38449936,92.79680071,1295.018506
3.8500,50.37438543,92.88806979,1295.068366
3.8550,50.37118504,92.98552245,1295.116519
3.8600,50.37569379,93.08882896,1295.162371
3.8650,50.3872229,93.19787393,1295.206326
3.8700,50.40547478,93.31010578,1295.247165
3.8750,50.42956764,93.42472076,1295.285107
3.8800,50.45996104,93.53969566,1295.318759
3.8850,50.49563454,93.65475478,1295.34863
3.8900,50.53597436,93.76751818,1295.373851
3.8950,50.58068954,93.87739688,1295.394315
3.9000,50.62837585,93.98311298,1295.410117
3.9050,50.67776452,94.0844034,1295.421926
3.9100,50.72783662,94.18064454,1295.429951
3.9150,50.77922778,94.27146344,1295.433749
3.9200,50.8317048,94.35789624,1295.434016
3.9250,50.88583487,94.43977223,1295.43045
3.9300,50.94050353,94.51555288,1295.422836
3.9350,50.99499003,94.58496317,1295.411512
3.9400,51.05010009,94.64751039,1295.395713
3.9450,51.10372199,94.70160379,1295.375754
3.9500,51.15611052,94.74828588,1295.352152
3.9550,51.20863585,94.78691889,1295.323741
3.9600,51.26123455,94.81851572,1295.291149
3.9650,51.31410639,94.84138378,1295.253336
3.9700,51.3676647,94.85708544,1295.210993
3.9750,51.4219379,94.86534715,1295.163934
3.9800,51.4763882,94.86650425,1295.112665
3.9850,51.53150138,94.86056341,1295.056994
3.9900,51.5869294,94.84791359,1294.997274
3.9950,51.64375677,94.82858996,1294.932903
4.0000,51.70196279,94.801816,1294.86346
4.0050,51.76247262,94.76758759,1294.788447
4.0100,51.82580855,94.72717209,1294.708228
4.0150,51.88949586,94.67875368,1294.623222
4.0200,51.9547491,94.6234435,1294.533374
4.0250,52.02201912,94.56140934,1294.438556
4.0300,52.09114276,94.49186676,1294.338404
4.0350,52.16289555,94.41646767,1294.233427
4.0400,52.23827793,94.33585666,1294.123387
4.0450,52.31623371,94.25001242,1294.008889
4.0500,52.39849337,94.16041141,1293.889636
4.0550,52.48437242,94.06659287,1293.76582
4.0600,52.57420951,93.96940312,1293.637669
4.0650,52.66903205,93.86950001,1293.504935
4.0700,52.76885764,93.76891557,1293.36865
4.0750,52.87389981,93.6668072,1293.228257
4.0800,52.98435586,93.56366463,1293.083979
4.0850,53.1007596,93.45991456,1292.935695
4.0900,53.22470423,93.35666466,1292.783154
4.0950,53.35548374,93.25386085,1292.626687
4.1000,53.49336831,93.15187112,1292.466456
4.1050,53.63771786,93.04883905,1292.301706
4.1100,53.78968509,92.94682208,1292.132976
4.1150,53.94739305,92.8450476,1291.960944
4.1200,54.11179754,92.74373569,1291.785135
4.1250,54.2828016,92.64296885,1291.605687
4.1300,54.46065773,92.54197001,1291.42202
4.1350,54.64443577,92.43978555,1291.234185
4.1400,54.8347262,92.33753906,1291.042547
4.1450,55.03270784,92.23430204,1290.84598
4.1500,55.23700825,92.12944087,1290.644982
4.1550,55.44771177,92.02306168,1290.439557
4.1600,55.66346021,91.914773,1290.230282
4.1650,55.88361308,91.80337277,1290.016938
4.1700,56.10834321,91.68961919,1289.799888
4.1750,56.33805154,91.57413659,1289.579177
4.1800,56.57165166,91.45700359,1289.355479
4.1850,56.80841593,91.33836413,1289.129252
4.1900,57.04899396,91.21868612,1288.900323
4.1950,57.29327462,91.0983601,1288.668971
4.2000,57.54194271,90.9794317,1288.435983
4.2050,57.79519978,90.86152728,1288.201009
4.2100,58.05377274,90.74578302,1287.964294
4.2150,58.3171321,90.63235954,1287.726171
4.2200,58.58611184,90.52035379,1287.485736
4.2250,58.8593849,90.40918658,1287.243418
4.2300,59.13819012,90.29975719,1286.999037
4.2350,59.42224338,90.19137103,1286.75237
4.2400,59.71137277,90.08444278,1286.503744
4.2450,60.0063935,89.97880483,1286.252702
4.2500,60.30728782,89.87322981,1285.998537
4.2550,60.61345433,89.7685093,1285.741952
4.2600,60.92525207,89.66313292,1285.482054
4.2650,61.24316831,89.55801348,1285.219095
4.2700,61.56847138,89.45259886,1284.952125
4.2750,61.90222212,89.34712637,1284.680693
4.2800,62.24427148,89.24086964,1284.404569
4.2850,62.59516774,89.13373545,1284.123438
4.2900,62.9556604,89.0251766,1283.836732
4.2950,63.32412238,88.91397869,1283.544691
4.3000,63.70166326,88.80012477,1283.246785
4.3050,64.08610065,88.68432833,1282.944552
4.3100,64.47763816,88.56524635,1282.637233
4.3150,64.87680646,88.44404788,1282.325159
4.3200,65.28375569,88.32109616,1282.008523
4.3250,65.6985132,88.19719642,1281.687764
4.3300,66.12153677,88.07335489,1281.363133
4.3350,66.55443196,87.9502085,1281.034201
4.3400,66.99639514,87.82733979,1280.701223
4.3450,67.44813589,87.70485965,1280.36398
4.3500,67.90886263,87.58214887,1280.022668
4.3550,68.37871247,87.45936709,1279.677356
4.3600,68.8571339,87.33553611,1279.327855
4.3650,69.34335467,87.2110219,1278.974928
4.3700,69.83512595,87.08461559,1278.619139
4.3750,70.332365,86.95619667,1278.260532
4.3800,70.83534927,86.82707868,1277.899685
4.3850,71.34305287,86.69709144,1277.537123
4.3900,71.8557591,86.5661978,1277.172643
4.3950,72.3728727,86.43530937,1276.807122
4.4000,72.8949638,86.30459301,1276.440329
4.4050,73.42179306,86.17397496,1276.072501
4.4100,73.9518109,86.04159317,1275.703456
4.4150,74.48587513,85.9081159,1275.333137
4.4200,75.02215545,85.77279549,1274.962166
4.4250,75.56023117,85.63565274,1274.590864
4.4300,76.09912621,85.49665518,1274.219649
4.4350,76.63902931,85.35608156,1273.848665
4.4400,77.17784696,85.2135854,1273.478699
4.4450,77.71609769,85.06985144,1273.109869
4.4500,78.25300178,84.92508752,1272.742649
4.4550,78.78855169,84.77959324,1272.377154
4.4600,79.32369187,84.6341167,1272.013369
4.4650,79.85937998,84.4891212,1271.651067
4.4700,80.39607781,84.34536483,1271.290419
4.4750,80.933161,84.20134417,1270.931031
4.4800,81.47139945,84.05693175,1270.572548
4.4850,82.01115117,83.91117689,1270.214417
4.4900,82.55248361,83.76434376,1269.856833
4.4950,83.09468357,83.615305,1269.499612
4.5000,83.6375312,83.46272602,1269.14224
4.5050,84.18148799,83.30541662,1268.783983
4.5100,84.72559832,83.14220568,1268.424754
4.5150,85.2695773,82.97339366,1268.064844
4.5200,85.81323883,82.79768339,1267.703746
4.5250,86.35622607,82.61607485,1267.342081
4.5300,86.89844143,82.42805542,1266.979683
4.5350,87.43919024,82.23260659,1266.616394
4.5400,87.9782519,82.02919303,1266.252115
4.5450,88.51522711,81.81729718,1265.886765
4.5500,89.04935216,81.597571,1265.521002
4.5550,89.58218867,81.36882261,1265.153621
4.5600,90.1147737,81.13212028,1264.784658
4.5650,90.64660733,80.88740801,1264.414268
4.5700,91.17734319,80.63313506,1264.041942
4.5750,91.70572918,80.37017067,1263.668662
4.5800,92.23288783,80.09851359,1263.293984
4.5850,92.75795393,79.81904881,1262.918743
4.5900,93.28012877,79.53211957,1262.543424
4.5950,93.800367,79.23932869,1262.168442
4.6000,94.31772115,78.94225398,1261.794938
4.6050,94.8343239,78.64173499,1261.422459
4.6100,95.35069578,78.3384015,1261.051072
4.6150,95.8672123,78.03198471,1260.680616
4.6200,96.38477864,77.72342979,1260.311172
4.6250,96.90363501,77.41276795,1259.942618
4.6300,97.42374299,77.09954142,1259.574857
4.6350,97.94319408,76.78214132,1259.207941
4.6400,98.46303533,76.4601429,1258.841263
4.6450,98.98176309,76.13385381,1258.475534
4.6500,99.50054137,75.80382274,1258.110588
4.6550,100.0183152,75.46997018,1257.746792
4.6600,100.535636,75.13315011,1257.384343
4.6650,101.0518754,74.79433552,1257.023812
4.6700,101.5700014,74.45325037,1256.663931
4.6750,102.0898749,74.11107949,1256.305145
4.6800,102.6116352,73.76719172,1255.947082
4.6850,103.1363011,73.42157452,1255.589345
4.6900,103.6628164,73.0751974,1255.232662
4.6950,104.1936246,72.72685537,1254.875515
4.7000,104.7284206,72.3778835,1254.51859
4.7050,105.2675155,72.02967776,1254.16228
4.7100,105.8133761,71.68362828,1253.806253
4.7150,106.3643419,71.33999009,1253.451207
4.7200,106.9204705,71.00022979,1253.097679
4.7250,107.4826865,70.66439115,1252.745306
4.7300,108.0499561,70.33340592,1252.394963
4.7350,108.6224393,70.00807204,1252.046792
4.7400,109.2012407,69.68887017,1251.700612
4.7450,109.7857318,69.37716062,1251.35719
4.7500,110.3778316,69.07295749,1251.015826
4.7550,110.9764203,68.77634722,1250.677002
4.7600,111.5808612,68.48719783,1250.340841
4.7650,112.1908899,68.20467633,1250.007144
4.7700,112.8048856,67.92899538,1249.67649
4.7750,113.4227918,67.65940221,1249.34865
4.7800,114.0435588,67.39588466,1249.023983
4.7850,114.666583,67.13700211,1248.702076
4.7900,115.2889088,66.88265059,1248.383846
4.7950,115.910714,66.63217892,1248.068968
4.8000,116.5294312,66.3854969,1247.758287
4.8050,117.1445354,66.14280792,1247.45206
4.8100,117.7556093,65.90319881,1247.150038
4.8150,118.3609458,65.66584131,1246.852469
4.8200,118.9611433,65.43132928,1246.55937
4.8250,119.5557073,65.19895846,1246.27067
4.8300,120.1443757,64.96717846,1245.985884
4.8350,120.7282344,64.73725837,1245.705146
4.8400,121.3068637,64.50845521,1245.428284
4.8450,121.8812889,64.28052571,1245.15491
4.8500,122.4503621,64.05153754,1244.884683
4.8550,123.0122989,63.82191539,1244.618312
4.8600,123.5660345,63.59118713,1244.356024
4.8650,124.111333,63.35813291,1244.097466
4.8700,124.6469533,63.12323922,1243.84312
4.8750,125.173981,62.88597919,1243.592437
4.8800,125.6918276,62.64685814,1243.345758
4.8850,126.2019169,62.40666356,1243.102888
4.8900,126.7054143,62.1654675,1242.863442
4.8950,127.2027277,61.92391373,1242.627531
4.9000,127.6948718,61.68048006,1242.394168
4.9050,128.1811508,61.43392828,1242.163093
4.9100,128.6609701,61.18449212,1241.93459
4.9150,129.1333752,60.93070944,1241.708353
4.9200,129.5982286,60.6701712,1241.483462
4.9250,130.0551951,60.40310447,1241.260163
4.9300,130.504018,60.12961553,1241.038513
4.9350,130.9446067,59.85059557,1240.818863
4.9400,131.3762234,59.56664572,1240.601679
4.9450,131.8000745,59.27738409,1240.386573
4.9500,132.2148339,58.98325923,1240.174096
4.9550,132.6232694,58.68459998,1239.963524
4.9600,133.0253659,58.38151248,1239.755069
4.9650,133.4234973,58.07126974,1239.547039
4.9700,133.8178514,57.75513568,1239.3399
4.9750,134.208934,57.43132016,1239.132908
4.9800,134.5965651,57.09871311,1238.925735
4.9850,134.9804708,56.75752877,1238.71849
4.9900,135.3618885,56.40688802,1238.510585
4.9950,135.7408604,56.04789557,1238.302463
5.0000,136.1171484,55.68004584,1238.094013
5.0050,136.4932343,55.30526034,1237.885212
5.0100,136.8676841,54.92315667,1237.676355
5.0150,137.2434873,54.53584018,1237.46731
5.0200,137.6216315,54.144006,1237.258106
5.0250,138.0028133,53.74914222,1237.049011
5.0300,138.3888508,53.35238529,1236.839843
5.0350,138.7804031,52.9554311,1236.631021
5.0400,139.1775797,52.55735197,1236.422167
5.0450,139.5806695,52.15895025,1236.2134
5.0500,139.9887762,51.76085389,1236.005167
5.0550,140.4036265,51.36451634,1235.797412
5.0600,140.8263989,50.97080131,1235.590098
5.0650,141.2574674,50.58155673,1235.383672
5.0700,141.6983468,50.19720775,1235.177949
5.0750,142.148718,49.81817088,1234.973129
5.0800,142.6083696,49.44445211,1234.769279
5.0850,143.0763612,49.07670511,1234.566852
5.0900,143.5543935,48.71581946,1234.36573
5.0950,144.0410011,48.36064163,1234.165969
5.1000,144.5370939,48.01160129,1233.967443
5.1050,145.0407114,47.66805891,1233.77056
5.1100,145.5501782,47.32915334,1233.575455
5.1150,146.0662597,46.9934968,1233.381509
5.1200,146.5870783,46.66097859,1233.189178
5.1250,147.1125686,46.33009794,1232.997901
5.1300,147.6412809,46.0015613,1232.808285
5.1350,148.1717952,45.67447827,1232.620351
5.1400,148.7039918,45.34995892,1232.434453
5.1450,149.2360364,45.02714822,1232.250765
5.1500,149.7681745,44.70729817,1232.06958
5.1550,150.3008625,44.39062493,1231.890925
5.1600,150.8334013,44.07643503,1231.714537
5.1650,151.3661699,43.76701857,1231.541019
5.1700,151.8989859,43.46087386,1231.369907
5.1750,152.431672,43.15936153,1231.201653
5.1800,152.9629123,42.86152449,1231.036204
5.1850,153.4925017,42.56650136,1230.873418
5.1900,154.0180471,42.27321703,1230.713637
5.1950,154.5398384,41.98079351,1230.556476
5.2000,155.0564963,41.68880575,1230.402262
5.2050,155.5670386,41.39684054,1230.25107
5.2100,156.0714229,41.10345067,1230.102487
5.2150,156.5693009,40.80923361,1229.95681
5.2200,157.0591007,40.51465138,1229.814612
5.2250,157.5404842,40.21821921,1229.675523
5.2300,158.0130371,39.9196172,1229.53965
5.2350,158.476668,39.61856546,1229.406907
5.2400,158.9321553,39.31456804,1229.276937
5.2450,159.3797478,39.00720248,1229.149484
5.2500,159.8191549,38.69638666,1229.024533
5.2550,160.2485811,38.3816042,1228.902441
5.2600,160.6689896,38.06262037,1228.782794
5.2650,161.0798544,37.74034975,1228.666002
5.2700,161.4812489,37.41511553,1228.552088
5.2750,161.8739775,37.08850674,1228.44139
5.2800,162.2591623,36.76203849,1228.334018
5.2850,162.63782,36.43619534,1228.229863
5.2900,163.0099233,36.11194771,1228.129126
5.2950,163.3761414,35.78951715,1228.031602
5.3000,163.7374394,35.46914466,1227.937065
5.3050,164.0930861,35.150806,1227.845632
5.3100,164.4439864,34.83549981,1227.757221
5.3150,164.7890418,34.52245157,1227.671895
5.3200,165.1292571,34.21149598,1227.589286
5.3250,165.4635546,33.90218008,1227.509511
5.3300,165.7911621,33.59418574,1227.432629
5.3350,166.1146527,33.28718467,1227.357973
5.3400,166.4333287,32.98135859,1227.285662
5.3450,166.7476013,32.67568351,1227.215416
5.3500,167.0584779,32.37120433,1227.147334
5.3550,167.3655884,32.06703165,1227.081234
5.3600,167.667646,31.76421977,1227.0177
5.3650,167.9646148,31.46259642,1226.95667
5.3700,168.2563759,31.16240684,1226.898219
5.3750,168.5432462,30.86575905,1226.842768
5.3800,168.8251481,30.57263719,1226.790192
5.3850,169.1035973,30.28483938,1226.740682
5.3900,169.37869,30.00190814,1226.694129
5.3950,169.6506991,29.72439049,1226.650531
5.4000,169.9204484,29.45298812,1226.609973
5.4050,170.1893325,29.18830837,1226.572161
5.4100,170.4581072,28.93103291,1226.537161
5.4150,170.7267642,28.68215239,1226.50516
5.4200,170.9953921,28.44207472,1226.476271
5.4250,171.2641802,28.21124952,1226.4506
5.4300,171.5335117,27.98944017,1226.427915
5.4350,171.8028894,27.77779512,1226.408612
5.4400,172.0729537,27.5750715,1226.392204
5.4450,172.3438999,27.38269868,1226.378936
5.4500,172.6155701,27.20058292,1226.368654
5.4550,172.8880558,27.02713431,1226.360844
5.4600,173.1609745,26.8629731,1226.355768
5.4650,173.4339766,26.70527296,1226.352708
5.4700,173.7065276,26.55513426,1226.35206
5.4750,173.9789052,26.41018511,1226.353165
5.4800,174.2514538,26.27065472,1226.356086
5.4850,174.5247825,26.13575436,1226.360412
5.4900,174.7998684,26.00532732,1226.365817
5.4950,175.0775758,25.87866457,1226.371955
5.5000,175.3577865,25.75638406,1226.378892
5.5050,175.6397886,25.63845923,1226.386893
5.5100,175.9238701,25.52593598,1226.396161
5.5150,176.2096184,25.41832338,1226.406591
5.5200,176.4981747,25.31556507,1226.417952
5.5250,176.7888441,25.21748119,1226.430438
5.5300,177.0820111,25.12401321,1226.443868
5.5350,177.3780272,25.03425371,1226.458027
5.5400,177.6766893,24.94705277,1226.47267
5.5450,177.9773398,24.86196822,1226.487751
5.5500,178.2807818,24.77685513,1226.502609
5.5550,178.5868536,24.69139014,1226.517176
5.5600,178.8944839,24.60437877,1226.531393
5.5650,179.2038467,24.51678185,1226.545486
5.5700,179.5140417,24.42801529,1226.559542
5.5750,179.8247986,24.33715362,1226.573305
5.5800,180.13559,24.24377218,1226.586737
5.5850,180.4458529,24.14794216,1226.600028
5.5900,180.7556964,24.04971995,1226.613095
5.5950,181.065133,23.94826806,1226.625713
5.6000,181.3738342,23.8447641,1226.638185
5.6050,181.6819048,23.73828753,1226.650244
5.6100,181.9892932,23.62851062,1226.661966
5.6150,182.2963129,23.51670149,1226.673433
5.6200,182.6024657,23.40273765,1226.684743
5.6250,182.9083893,23.28848783,1226.696316
5.6300,183.2150822,23.174021,1226.708076
5.6350,183.519575,23.0598909,1226.720769
5.6400,183.8224935,22.94645636,1226.73457
5.6450,184.1230386,22.83454692,1226.749833
5.6500,184.4206449,22.72334271,1226.766563
5.6550,184.7151686,22.61339988,1226.784894
5.6600,185.0065579,22.50317142,1226.804523
5.6650,185.2937487,22.39174835,1226.825481
5.6700,185.5756824,22.27960448,1226.848006
5.6750,185.8525624,22.16532117,1226.8717
5.6800,186.1240237,22.04821421,1226.896462
5.6850,186.3895321,21.92762422,1226.922148
5.6900,186.6483387,21.80282859,1226.948623
5.6950,186.9004385,21.67637771,1226.976436
5.7000,187.1444598,21.54525703,1227.004982
5.7050,187.3811438,21.41051448,1227.034345
5.7100,187.6107327,21.27165301,1227.064223
5.7150,187.8335389,21.1294191,1227.094688
5.7200,188.0491268,20.98366992,1227.125646
5.7250,188.2580938,20.83431361,1227.156829
5.7300,188.46147,20.68270762,1227.188335
5.7350,188.6614929,20.52820962,1227.219567
5.7400,188.8575813,20.3719827,1227.250801
5.7450,189.0507374,20.2153789,1227.28219
5.7500,189.2426356,20.05871425,1227.313486
5.7550,189.4339469,19.90307597,1227.344714
5.7600,189.6261601,19.74861676,1227.375614
5.7650,189.8202858,19.59717575,1227.406487
5.7700,190.0174523,19.44963478,1227.437336
5.7750,190.2177902,19.30609942,1227.468182
5.7800,190.4224148,19.16710545,1227.499013
5.7850,190.6300771,19.03295445,1227.530136
5.7900,190.8417649,18.90364819,1227.561548
5.7950,191.0562137,18.77878641,1227.593436
5.8000,191.2735716,18.65878364,1227.625944
5.8050,191.4948414,18.54197296,1227.658574
5.8100,191.7191697,18.42760172,1227.691275
5.8150,191.9466906,18.31492695,1227.72392
5.8200,192.1755071,18.20300355,1227.756561
5.8250,192.4055767,18.09206209,1227.789273
5.8300,192.6358308,17.98004351,1227.821715
5.8350,192.8646692,17.86646003,1227.854044
5.8400,193.0920495,17.75148088,1227.886355
5.8450,193.3172653,17.63625367,1227.919136
5.8500,193.5403451,17.51996584,1227.95218
5.8550,193.7622524,17.40355294,1227.985493
5.8600,193.9824803,17.28786084,1228.019303
5.8650,194.1998918,17.17171463,1228.053511
5.8700,194.4151945,17.05528837,1228.087946
5.8750,194.6273871,16.94019075,1228.123065
5.8800,194.8367337,16.82625216,1228.158753
5.8850,195.0438919,16.71344364,1228.194764
5.8900,195.248612,16.60209258,1228.231231
5.8950,195.4508253,16.49362375,1228.268388
5.9000,195.6500459,16.38623609,1228.305957
5.9050,195.8459108,16.2811627,1228.344147
5.9100,196.0391623,16.17723316,1228.382637
5.9150,196.228517,16.07487751,1228.421798
5.9200,196.4145734,15.97473576,1228.461764
5.9250,196.5966621,15.87567893,1228.50247
5.9300,196.7726074,15.77736427,1228.544161
5.9350,196.9440143,15.67936157,1228.586542
5.9400,197.1101484,15.5828857,1228.630031
5.9450,197.2708798,15.48668161,1228.674417
5.9500,197.4258577,15.39155657,1228.719808
5.9550,197.5744906,15.29669673,1228.766246
5.9600,197.7172278,15.20140311,1228.813485
5.9650,197.8537605,15.10650015,1228.861768
5.9700,197.9844049,15.01044661,1228.910644
5.9750,198.1087396,14.91250013,1228.960066
5.9800,198.226511,14.81356084,1229.010248
5.9850,198.3378741,14.71297859,1229.061119
5.9900,198.4437084,14.61130315,1229.112561
5.9950,198.5434982,14.50650197,1229.164326
6.0000,198.6389284,14.40058269,1229.216496
6.0050,198.7296284,14.29351049,1229.269149
6.0100,198.8155591,14.18520534,1229.322251
6.0150,198.897392,14.07516784,1229.375497
6.0200,198.9765246,13.96460246,1229.428896
6.0250,199.0536324,13.85320397,1229.482236
6.0300,199.1291571,13.74201958,1229.535528
6.0350,199.2046803,13.63149947,1229.588574
6.0400,199.2804516,13.52170625,1229.641353
6.0450,199.358267,13.41115875,1229.693108
6.0500,199.4378921,13.30163233,1229.744305
6.0550,199.5211289,13.19211589,1229.794515
6.0600,199.6082789,13.08386633,1229.843918
6.0650,199.7010493,12.97678659,1229.892126
6.0700,199.7986103,12.86954761,1229.93901
6.0750,199.9025605,12.76338334,1229.984497
6.0800,200.0126044,12.65731552,1230.028384
6.0850,200.129812,12.5513988,1230.070474
6.0900,200.2537474,12.44552139,1230.110714
6.0950,200.3851653,12.34020646,1230.149044
6.1000,200.5238802,12.23338482,1230.184948
6.1050,200.6690796,12.12683982,1230.218913
6.1100,200.8213986,12.02025438,1230.250745
6.1150,200.980493,11.91394089,1230.280583
6.1200,201.1474927,11.80704061,1230.30816
6.1250,201.3212219,11.69989567,1230.333768
6.1300,201.5009418,11.59210893,1230.357539
6.1350,201.6873927,11.48455521,1230.379551
6.1400,201.8794666,11.37663423,1230.399837
6.1450,202.075796,11.26654427,1230.41836
6.1500,202.275028,11.15608686,1230.435767
6.1550,202.476,11.04351943,1230.451792
6.1600,202.6785515,10.92859743,1230.466505
6.1650,202.8809529,10.81241151,1230.480367
6.1700,203.0828441,10.69377682,1230.493169
6.1750,203.2845712,10.57142693,1230.504728
6.1800,203.4841602,10.44603817,1230.515403
6.1850,203.6808688,10.31725876,1230.525433
6.1900,203.8747988,10.18489653,1230.534648
6.1950,204.0641931,10.04905302,1230.54347
6.2000,204.2501783,9.909611135,1230.551631
6.2050,204.4310719,9.765692897,1230.559369
6.2100,204.6057161,9.618926092,1230.566982
6.2150,204.7743795,9.467694116,1230.574159
6.2200,204.936588,9.311694944,1230.581005
6.2250,205.091224,9.150289168,1230.587425
6.2300,205.2385445,8.984226983,1230.593597
6.2350,205.3774311,8.813480463,1230.599741
6.2400,205.5069891,8.637525193,1230.60584
6.2450,205.6263815,8.456856102,1230.612139
6.2500,205.7358753,8.271059719,1230.618641
6.2550,205.8339708,8.080812322,1230.62568
6.2600,205.9200583,7.887644579,1230.633745
6.2650,205.9945971,7.690262791,1230.642541
6.2700,206.057118,7.489740529,1230.652548
6.2750,206.1077453,7.286246504,1230.663813
6.2800,206.1470802,7.079575765,1230.676243
6.2850,206.1748759,6.870927974,1230.690051
6.2900,206.1921293,6.659103195,1230.704927
6.2950,206.1990802,6.44526931,1230.720979
6.3000,206.195973,6.22874075,1230.738119
6.3050,206.1837522,6.009842248,1230.756158
6.3100,206.1634081,5.790414915,1230.775322
6.3150,206.1369216,5.570485532,1230.795322
6.3200,206.104118,5.349848209,1230.816171
6.3250,206.0671165,5.13052068,1230.837901
6.3300,206.0266316,4.91148188,1230.860305
6.3350,205.9832616,4.694165927,1230.883494
6.3400,205.9384161,4.478128651,1230.907214
6.3450,205.8925406,4.265170701,1230.931841
6.3500,205.8481958,4.054374784,1230.956889
6.3550,205.80381,3.847474422,1230.982834
6.3600,205.759744,3.644237922,1231.009588
6.3650,205.7156519,3.443850528,1231.037236
6.3700,205.6730847,3.247958557,1231.065759
6.3750,205.6303298,3.056083969,1231.095386
6.3800,205.5891214,2.869311783,1231.126073
6.3850,205.5495694,2.686638353,1231.157738
6.3900,205.5107455,2.508418817,1231.190573
6.3950,205.4728053,2.334966036,1231.224631
6.4000,205.4350215,2.167169303,1231.260195
6.4050,205.3985906,2.003832267,1231.296867
6.4100,205.3632687,1.844107845,1231.334587
6.4150,205.3280157,1.688255635,1231.37352
6.4200,205.2921128,1.535901732,1231.413693
6.4250,205.2565958,1.386411535,1231.454794
6.4300,205.2212048,1.239472735,1231.496821
6.4350,205.1864069,1.095457965,1231.539664
6.4400,205.1513439,0.9531296414,1231.583263
6.4450,205.1166333,0.8138073259,1231.627698
6.4500,205.0830358,0.6763262827,1231.672557
6.4550,205.0503786,0.5409164772,1231.718024
6.4600,205.0188436,0.4064878528,1231.763731
6.4650,204.9896176,0.2725124233,1231.809405
6.4700,204.9617949,0.1401292507,1231.85539
6.4750,204.9363392,0.009269419195,1231.901423
6.4800,204.9138872,-0.120694142,1231.947396
6.4850,204.8956375,-0.2493177888,1231.993043
6.4900,204.8799961,-0.3773259318,1232.038503
6.4950,204.8683683,-0.5047229048,1232.083437
6.5000,204.8594886,-0.6313025325,1232.12815
6.5050,204.8539721,-0.7576002824,1232.172292
6.5100,204.8524137,-0.8846153788,1232.215637
6.5150,204.8548672,-1.012104466,1232.258204
6.5200,204.8608236,-1.13977868,1232.299892
6.5250,204.8715596,-1.268190705,1232.340467
6.5300,204.8884746,-1.397461846,1232.379657
6.5350,204.9120901,-1.528820711,1232.417135
6.5400,204.9416308,-1.660995768,1232.453056
6.5450,204.9797388,-1.795015432,1232.486862
6.5500,205.0249372,-1.93012207,1232.518799
6.5550,205.0794499,-2.066502395,1232.548478
6.5600,205.142751,-2.206301724,1232.575529
6.5650,205.2145455,-2.347668969,1232.600247
6.5700,205.295153,-2.491710098,1232.622368
6.5750,205.3844918,-2.637418336,1232.641959
6.5800,205.4830403,-2.784797321,1232.658922
6.5850,205.5895868,-2.935843005,1232.673173
6.5900,205.702257,-3.08860996,1232.68529
6.5950,205.8216386,-3.243503865,1232.695196
6.6000,205.9470531,-3.400372643,1232.703108
6.6050,206.0781801,-3.559483998,1232.70909
6.6100,206.213702,-3.721641577,1232.713239
6.6150,206.3522262,-3.885700426,1232.715927
6.6200,206.4943224,-4.051887583,1232.717036
6.6250,206.6375244,-4.220579478,1232.716983
6.6300,206.7810933,-4.39047882,1232.715993
6.6350,206.9225824,-4.56202416,1232.714445
6.6400,207.0603698,-4.733542856,1232.712829
6.6450,207.1939558,-4.905820995,1232.711142
6.6500,207.3210256,-5.079275177,1232.709537
6.6550,207.4422994,-5.2537159,1232.707967
6.6600,207.5566133,-5.429044296,1232.70671
6.6650,207.6633322,-5.604633219,1232.705864
6.6700,207.7611548,-5.780257989,1232.705636
6.6750,207.8510491,-5.955735203,1232.705987
6.6800,207.9301002,-6.130604786,1232.707365
6.6850,207.9972561,-6.304746911,1232.709833
6.6900,208.0523625,-6.476771959,1232.713711
6.6950,208.0956213,-6.647164925,1232.718846
6.7000,208.1267681,-6.816239468,1232.725276
6.7050,208.1456987,-6.985113192,1232.732932
6.7100,208.1510658,-7.152618084,1232.74213
6.7150,208.1449586,-7.319356647,1232.752579
6.7200,208.1269378,-7.485507462,1232.764298
6.7250,208.0966901,-7.651788088,1232.77731
6.7300,208.0553769,-7.817850917,1232.791655
6.7350,208.0012584,-7.984970797,1232.807545
6.7400,207.9358736,-8.151690754,1232.825085
6.7450,207.8594119,-8.319567194,1232.84404
6.7500,207.7720315,-8.488152911,1232.86468
6.7550,207.6730142,-8.656825893,1232.887229
6.7600,207.5633332,-8.824440342,1232.911956
6.7650,207.4421036,-8.991932022,1232.939005
6.7700,207.3105832,-9.158893553,1232.968358
6.7750,207.1677528,-9.325131397,1233.000289
6.7800,207.0141062,-9.490304679,1233.034915
6.7850,206.8487061,-9.653657485,1233.072575
6.7900,206.6729265,-9.815370569,1233.113119
6.7950,206.4861986,-9.975219486,1233.15672
6.8000,206.2898764,-10.13231019,1233.203254
6.8050,206.0853715,-10.2862611,1233.252652
6.8100,205.8728069,-10.43638039,1233.305007
6.8150,205.6531992,-10.5833602,1233.36005
6.8200,205.4281404,-10.72703937,1233.417598
6.8250,205.1979642,-10.86742097,1233.477555
6.8300,204.9639226,-11.00454001,1233.539652
6.8350,204.7252852,-11.13820675,1233.604019
6.8400,204.484973,-11.26915365,1233.670071
6.8450,204.2432515,-11.39729695,1233.737638
6.8500,204.0017543,-11.52422648,1233.806241
6.8550,203.7615662,-11.64983075,1233.875669
6.8600,203.5244512,-11.77361915,1233.945534
6.8650,203.2922189,-11.89659045,1234.015412
6.8700,203.0652645,-12.01912971,1234.084917
6.8750,202.844184,-12.14169102,1234.153949
6.8800,202.6297603,-12.26409653,1234.222295
6.8850,202.4236995,-12.386575,1234.289507
6.8900,202.227127,-12.50982825,1234.355251
6.8950,202.0399186,-12.63397772,1234.419304
6.9000,201.8614795,-12.7582498,1234.481744
6.9050,201.6917867,-12.88330482,1234.542326
6.9100,201.5313927,-13.00818724,1234.601056
6.9150,201.3799751,-13.13341739,1234.657768
6.9200,201.235718,-13.25860917,1234.712687
6.9250,201.099017,-13.38360567,1234.765665
6.9300,200.9706199,-13.50737725,1234.816652
6.9350,200.8498519,-13.63090173,1234.865587
6.9400,200.73783,-13.75442916,1234.91211
6.9450,200.634371,-13.87682866,1234.956237
6.9500,200.5387019,-13.99786481,1234.998157
6.9550,200.4508705,-14.11633607,1235.038017
6.9600,200.3708255,-14.23240686,1235.07563
6.9650,200.298688,-14.34572278,1235.110952
6.9700,200.2345227,-14.45608724,1235.143976
6.9750,200.178377,-14.56317667,1235.17458
6.9800,200.1319633,-14.66794745,1235.202324
6.9850,200.0960895,-14.76862444,1235.227276
6.9900,200.0716228,-14.86572143,1235.249115
6.9950,200.0585099,-14.95934155,1235.267856
7.0000,200.0577275,-15.04910063,1235.28337
7.0050,200.068467,-15.13315791,1235.295921
7.0100,200.0925004,-15.21116954,1235.305358
7.0150,200.1290447,-15.28436113,1235.311513
7.0200,200.1781078,-15.35005666,1235.314898
7.0250,200.238727,-15.4090862,1235.315511
7.0300,200.3094848,-15.46069885,1235.313638
7.0350,200.3901195,-15.5052321,1235.309425
7.0400,200.4784955,-15.54246144,1235.303231
7.0450,200.5728381,-15.57167821,1235.295544
7.0500,200.6716901,-15.59260734,1235.286637
7.0550,200.7747385,-15.60505497,1235.276678
7.0600,200.8784291,-15.60934914,1235.266193
7.0650,200.9834498,-15.60463696,1235.255337
7.0700,201.0871001,-15.59217708,1235.244349
7.0750,201.1886865,-15.57026036,1235.233632
7.0800,201.2869905,-15.53916082,1235.223343
7.0850,201.3813479,-15.50011292,1235.213545
7.0900,201.4697995,-15.45187309,1235.204823
7.0950,201.552075,-15.39566017,1235.197218
7.1000,201.6276103,-15.33081735,1235.190961
7.1050,201.6963095,-15.25718348,1235.186181
7.1100,201.7572865,-15.17567817,1235.182935
7.1150,201.8101081,-15.08574485,1235.181396
7.1200,201.8547489,-14.98844843,1235.181472
7.1250,201.8914467,-14.8833559,1235.183247
7.1300,201.9190844,-14.77062754,1235.186814
7.1350,201.9388202,-14.65149736,1235.191795
7.1400,201.9505019,-14.52674383,1235.19826
7.1450,201.952513,-14.3964298,1235.206478
7.1500,201.9460081,-14.26101816,1235.216147
7.1550,201.9298471,-14.12212473,1235.227224
7.1600,201.904389,-13.97939558,1235.239672
7.1650,201.8688122,-13.83558452,1235.25322
7.1700,201.8235366,-13.69005223,1235.268023
7.1750,201.7695394,-13.54407051,1235.28355
7.1800,201.7063806,-13.39960012,1235.299635
7.1850,201.6348579,-13.25608471,1235.316123
7.1900,201.5548716,-13.1154123,1235.332638
7.1950,201.4682282,-12.97846139,1235.348723
7.2000,201.3777585,-12.84600435,1235.363682
7.2050,201.2840582,-12.71891547,1235.377224
7.2100,201.1895426,-12.59898759,1235.38846
7.2150,201.0962239,-12.48584458,1235.397073
7.2200,201.0068137,-12.38051428,1235.402273
7.2250,200.9225494,-12.283087,1235.403721
7.2300,200.8453518,-12.19536797,1235.400774
7.2350,200.7777819,-12.11647131,1235.393026
7.2400,200.7209441,-12.04703887,1235.380113
7.2450,200.6762016,-11.98757582,1235.361726
7.2500,200.6455512,-11.9369702,1235.337573
7.2550,200.6303333,-11.89599662,1235.307248
7.2600,200.62999,-11.86436319,1235.270912
7.2650,200.6457038,-11.84113938,1235.228411
7.2700,200.6782963,-11.82625809,1235.179716
7.2750,200.7264507,-11.81869379,1235.125099
7.2800,200.7891738,-11.81738108,1235.064973
7.2850,200.8657035,-11.82267804,1234.999486
7.2900,200.9550114,-11.83334226,1234.929057
7.2950,201.05472,-11.84982312,1234.854016
7.3000,201.164292,-11.87029696,1234.774796
7.3050,201.2822945,-11.89522419,1234.691638
7.3100,201.4058893,-11.9245042,1234.605014
7.3150,201.533155,-11.95654857,1234.515606
7.3200,201.6636157,-11.99161404,1234.423372
7.3250,201.7965506,-12.02916308,1234.328657
7.3300,201.9298377,-12.06824905,1234.231936
7.3350,202.0643412,-12.10875095,1234.132961
7.3400,202.1990734,-12.14922263,1234.032144
7.3450,202.3341474,-12.19014987,1233.929438
7.3500,202.4696633,-12.23100729,1233.824901
7.3550,202.6047865,-12.27229843,1233.718641
7.3600,202.7395069,-12.31319133,1233.610788
7.3650,202.8727019,-12.35284611,1233.501585
7.3700,203.0040129,-12.39052817,1233.391234
7.3750,203.1319339,-12.42701564,1233.279998
7.3800,203.2561954,-12.46169577,1233.168028
7.3850,203.3769281,-12.49345677,1233.055415
7.3900,203.4935706,-12.52236425,1232.942188
7.3950,203.6050419,-12.54762761,1232.828696
7.4000,203.7106594,-12.56992626,1232.714922
7.4050,203.8084445,-12.58919104,1232.601175
7.4100,203.8991324,-12.60564931,1232.487417
7.4150,203.9811789,-12.61879232,1232.373931
7.4200,204.0533561,-12.62809971,1232.260956
7.4250,204.1146114,-12.63461164,1232.148497
7.4300,204.1648602,-12.63933971,1232.036597
7.4350,204.2031852,-12.64048502,1231.925627
7.4400,204.2292352,-12.64064311,1231.815244
7.4450,204.2443259,-12.63996101,1231.705243
7.4500,204.2472034,-12.63903828,1231.595753
7.4550,204.2384801,-12.63761902,1231.486653
7.4600,204.2186062,-12.63770342,1231.377639
7.4650,204.1885947,-12.63785568,1231.268694
7.4700,204.1495817,-12.6395013,1231.159342
7.4750,204.1012217,-12.64265746,1231.049674
7.4800,204.0443445,-12.64655862,1230.93966
7.4850,203.9799029,-12.65236666,1230.828994
7.4900,203.9091514,-12.65961272,1230.717663
7.4950,203.8311953,-12.66786045,1230.605836
7.5000,203.746605,-12.67796037,1230.493369
7.5050,203.6551205,-12.68868259,1230.380582
7.5100,203.557399,-12.69863287,1230.267671
7.5150,203.4524707,-12.7090858,1230.154712
7.5200,203.3403998,-12.7186178,1230.042006
7.5250,203.2216258,-12.72732626,1229.929584
7.5300,203.0954214,-12.73387124,1229.817826
7.5350,202.9611657,-12.73889559,1229.706648
7.5400,202.8198713,-12.74153736,1229.596184
7.5450,202.6708768,-12.74143255,1229.486617
7.5500,202.513728,-12.73924959,1229.377936
7.5550,202.3473172,-12.73370379,1229.270587
7.5600,202.1737425,-12.72480961,1229.164279
7.5650,201.9921267,-12.71229506,1229.059289
7.5700,201.8025975,-12.69629488,1228.9556
7.5750,201.6067241,-12.67633128,1228.853189
7.5800,201.4053285,-12.65204598,1228.751901
7.5850,201.1991137,-12.62352976,1228.651723
7.5900,200.9881875,-12.59158007,1228.552484
7.5950,200.7748654,-12.55478249,1228.454081
7.6000,200.5592167,-12.51347253,1228.356476
7.6050,200.3416328,-12.4674409,1228.259631
7.6100,200.1237829,-12.41586873,1228.163425
7.6150,199.9065966,-12.35865668,1228.06769
7.6200,199.690104,-12.29638661,1227.972367
7.6250,199.4743185,-12.22850908,1227.877469
7.6300,199.2611186,-12.15507409,1227.782859
7.6350,199.0490163,-12.07624722,1227.688744
7.6400,198.8403954,-11.99263454,1227.59481
7.6450,198.6338892,-11.90359571,1227.501319
7.6500,198.4293855,-11.81002516,1227.408196
7.6550,198.226533,-11.71035771,1227.315675
7.6600,198.0260647,-11.60644633,1227.2235
7.6650,197.8278313,-11.4983323,1227.13168
7.6700,197.632516,-11.38692634,1227.040005
7.6750,197.4405245,-11.27179016,1226.948545
7.6800,197.2525333,-11.1533435,1226.857037
7.6850,197.0674426,-11.03272519,1226.765539
7.6900,196.8861436,-10.91086794,1226.673878
7.6950,196.7089582,-10.78869248,1226.581765
7.7000,196.5355708,-10.66661201,1226.489308
7.7050,196.3672463,-10.54539392,1226.396123
7.7100,196.203573,-10.424401,1226.302252
7.7150,196.0457853,-10.30535799,1226.207403
7.7200,195.8932114,-10.18800804,1226.111691
7.7250,195.746851,-10.07200279,1226.014892
7.7300,195.6065341,-9.957026463,1225.917035
7.7350,195.4739357,-9.844477313,1225.817631
7.7400,195.3489683,-9.73283595,1225.716875
7.7450,195.2301294,-9.622216017,1225.615032
7.7500,195.1176725,-9.51298345,1225.512
7.7550,195.0094189,-9.404757931,1225.408321
7.7600,194.9051722,-9.297504231,1225.304142
7.7650,194.8039982,-9.190647573,1225.199703
7.7700,194.7041124,-9.085255832,1225.095265
7.7750,194.6061215,-8.981627105,1224.990774
7.7800,194.5090355,-8.879187492,1224.886489
7.7850,194.412146,-8.777957205,1224.782671
7.7900,194.3140824,-8.676482221,1224.679708
7.7950,194.2159204,-8.575688075,1224.577428
7.8000,194.1165373,-8.474641937,1224.476076
7.8050,194.015843,-8.37394626,1224.375638
7.8100,193.9121562,-8.273777111,1224.276404
7.8150,193.8063642,-8.174031651,1224.178215
7.8200,193.6976637,-8.075271824,1224.081172
7.8250,193.5859621,-7.976340539,1223.985374
7.8300,193.4720753,-7.87848528,1223.890558
7.8350,193.3559724,-7.780512382,1223.797007
7.8400,193.2391571,-7.681955264,1223.704421
7.8450,193.1223513,-7.582372629,1223.612706
7.8500,193.0067018,-7.480142239,1223.521945
7.8550,192.8935463,-7.376071376,1223.431748
7.8600,192.7827982,-7.26863967,1223.342357
7.8650,192.6762597,-7.157028898,1223.253614
7.8700,192.5732668,-7.040699988,1223.165622
7.8750,192.4756426,-6.918394865,1223.078299
7.8800,192.3828022,-6.791131561,1222.991594
7.8850,192.2943068,-6.656919096,1222.905814
7.8900,192.2111863,-6.515137687,1222.820903
7.8950,192.1318695,-6.365473153,1222.737194
7.9000,192.0568863,-6.208498899,1222.654516
7.9050,191.9869257,-6.04275612,1222.572911
7.9100,191.9209319,-5.869119879,1222.492421
7.9150,191.8590116,-5.686831722,1222.413178
7.9200,191.7998883,-5.49641677,1222.335246
7.9250,191.7449505,-5.296139997,1222.258714
7.9300,191.6936155,-5.086587885,1222.183503
7.9350,191.6462158,-4.867843793,1222.109671
7.9400,191.6002917,-4.640330124,1222.037483
7.9450,191.557343,-4.404836517,1221.966565
7.9500,191.5157307,-4.160379067,1221.89733
7.9550,191.4767687,-3.909333498,1221.829301
7.9600,191.4389731,-3.65040685,1221.762863
7.9650,191.4019369,-3.385190257,1221.69781
7.9700,191.3652959,-3.113349435,1221.634468
7.9750,191.3288926,-2.835922867,1221.572508
7.9800,191.2914394,-2.554704002,1221.512
7.9850,191.2525596,-2.269408694,1221.453095
7.9900,191.2120596,-1.980131644,1221.395846
7.9950,191.1700972,-1.686865803,1221.340252
8.0000,191.1254673,-1.3907865,1221.286319
8.0050,191.077666,-1.091369982,1221.234352
8.0100,191.0251426,-0.7903407758,1221.184338
8.0150,190.9667711,-0.4871152606,1221.136551
8.0200,190.9029125,-0.1829885612,1221.090735
8.0250,190.8312184,0.1215855028,1221.047302
8.0300,190.7516135,0.4264261712,1221.006127
8.0350,190.6619828,0.7312880239,1220.967519
8.0400,190.562048,1.035673131,1220.931452
8.0450,190.4514797,1.339705027,1220.897913
8.0500,190.3302033,1.644116873,1220.867073
8.0550,190.2000767,1.948977556,1220.8385
8.0600,190.0602719,2.254061361,1220.812194
8.0650,189.9110115,2.559784283,1220.788235
8.0700,189.752458,2.867618975,1220.766821
8.0750,189.5845996,3.177423569,1220.747919
8.0800,189.4070351,3.488462394,1220.731365
8.0850,189.2198536,3.802234731,1220.71747
8.0900,189.0243537,4.117115795,1220.705825
8.0950,188.8190705,4.434394204,1220.696887
8.1000,188.6048581,4.753955548,1220.690665
8.1050,188.3820617,5.075584545,1220.687158
8.1100,188.1519714,5.399646812,1220.686161
8.1150,187.9145374,5.726261233,1220.687776
8.1200,187.6707871,6.056053954,1220.692059
8.1250,187.4224625,6.38720821,1220.698438
8.1300,187.1693497,6.721756628,1220.707298
8.1350,186.9126583,7.058757519,1220.718238
8.1400,186.6518147,7.398613316,1220.731511
8.1450,186.3865958,7.740138408,1220.746951
8.1500,186.1171883,8.083189475,1220.764473
8.1550,185.8442437,8.428165045,1220.784034
8.1600,185.5691956,8.775117467,1220.805392
8.1650,185.2916485,9.123354995,1220.828471
8.1700,185.0145631,9.474054129,1220.85299
8.1750,184.7360369,9.825828126,1220.878938
8.1800,184.4570479,10.1807786,1220.906613
8.1850,184.1781003,10.5378098,1220.935717
8.1900,183.8986861,10.89683427,1220.966376
8.1950,183.6204624,11.2579598,1220.998342
8.2000,183.3431437,11.62169766,1221.03168
8.2050,183.0661875,11.9869013,1221.066412
8.2100,182.7908956,12.35516411,1221.102666
8.2150,182.5170865,12.72496416,1221.140179
8.2200,182.2450682,13.096264,1221.178885
8.2250,181.9730237,13.46774477,1221.218824
8.2300,181.7019162,13.83944777,1221.2598
8.2350,181.4312157,14.21129927,1221.301857
8.2400,181.1614151,14.58375182,1221.344965
8.2450,180.8917804,14.95679177,1221.389346
8.2500,180.6228372,15.32943741,1221.434653
8.2550,180.3527899,15.70304265,1221.481428
8.2600,180.0830519,16.07778459,1221.529451
8.2650,179.814061,16.45279337,1221.57852
8.2700,179.5461001,16.8291425,1221.628674
8.2750,179.2791413,17.20537531,1221.679705
8.2800,179.0130703,17.58252292,1221.731803
8.2850,178.747794,17.9602826,1221.784997
8.2900,178.4831324,18.33761923,1221.839023
8.2950,178.2158312,18.71475083,1221.894556
8.3000,177.9472993,19.09232475,1221.95156
8.3050,177.6751981,19.4680326,1222.009945
8.3100,177.3985718,19.84270304,1222.070161
8.3150,177.1175748,20.21571496,1222.132074
8.3200,176.8318709,20.58796212,1222.196085
8.3250,176.5426286,20.95980634,1222.262082
8.3300,176.2487387,21.33089972,1222.330353
8.3350,175.9498575,21.7009216,1222.40086
8.3400,175.6453818,22.06892171,1222.473521
8.3450,175.3361931,22.43423659,1222.54801
8.3500,175.0217041,22.7965239,1222.624297
8.3550,174.7003509,23.15436228,1222.70226
8.3600,174.3730508,23.5102494,1222.782347
8.3650,174.0396056,23.8619708,1222.86397
8.3700,173.7006357,24.2105176,1222.947255
8.3750,173.3548326,24.55629874,1223.032465
8.3800,173.002333,24.89980493,1223.119748
8.3850,172.6420289,25.24003256,1223.209024
8.3900,172.2738987,25.5779794,1223.300524
8.3950,171.8987836,25.91435617,1223.394273
8.4000,171.5166834,26.24916453,1223.490263
8.4050,171.1294622,26.58312122,1223.588255
8.4100,170.7367654,26.91608216,1223.688324
8.4150,170.3382886,27.24899038,1223.790742
8.4200,169.9345044,27.58156041,1223.895347
8.4250,169.524041,27.91469768,1224.002746
8.4300,169.1069207,28.2474733,1224.112765
8.4350,168.6834751,28.57967875,1224.225367
8.4400,168.2534112,28.91057704,1224.340325
8.4450,167.8169574,29.24056118,1224.457627
8.4500,167.3752109,29.56969136,1224.577053
8.4550,166.9282357,29.89797683,1224.69861
8.4600,166.475756,30.224865,1224.822142
8.4650,166.018988,30.55103414,1224.947547
8.4700,165.5575018,30.87802336,1225.075226
8.4750,165.0913617,31.20628811,1225.205282
8.4800,164.6227475,31.53659009,1225.33737
8.4850,164.1529971,31.87007881,1225.471451
8.4900,163.6831569,32.20739473,1225.607409
8.4950,163.2131377,32.54861683,1225.745247
8.5000,162.7428402,32.89460441,1225.885229
8.5050,162.2737878,33.24708679,1226.027464
8.5100,161.8059874,33.60551674,1226.171826
8.5150,161.3393092,33.97158523,1226.318917
8.5200,160.8737009,34.34637992,1226.469289
8.5250,160.4111804,34.72969764,1226.622682
8.5300,159.9503306,35.12072579,1226.779386
8.5350,159.4916262,35.51974451,1226.939528
8.5400,159.0350683,35.92531392,1227.102782
8.5450,158.5802478,36.33674207,1227.269145
8.5500,158.1274467,36.75234576,1227.438151
8.5550,157.677419,37.17036704,1227.609187
8.5600,157.2307016,37.58957874,1227.781798
8.5650,156.7856737,38.00927608,1227.956124
8.5700,156.3424983,38.42704157,1228.131487
8.5750,155.90071,38.84410287,1228.308357
8.5800,155.4600264,39.26066023,1228.486894
8.5850,155.0207139,39.67563573,1228.666582
8.5900,154.5818073,40.08865189,1228.847508
8.5950,154.1464817,40.49892723,1229.028652
8.6000,153.714487,40.90602654,1229.209861
8.6050,153.2872472,41.31078058,1229.390891
8.6100,152.8651053,41.71398784,1229.57189
8.6150,152.4483928,42.11611864,1229.752847
8.6200,152.0366563,42.51682733,1229.93367
8.6250,151.6294942,42.91685672,1230.114734
8.6300,151.2268183,43.31741412,1230.296421
8.6350,150.8289604,43.71847932,1230.478634
8.6400,150.4366697,44.12085219,1230.661514
8.6450,150.0493337,44.52313699,1230.84482
8.6500,149.6650985,44.92496351,1231.028932
8.6550,149.2842697,45.32549931,1231.213581
8.6600,148.9046597,45.72251182,1231.398653
8.6650,148.5250877,46.11641839,1231.584601
8.6700,148.1448782,46.50516209,1231.770918
8.6750,147.7642228,46.88877021,1231.957504
8.6800,147.3833307,47.2663663,1232.144002
8.6850,147.002435,47.63801765,1232.330341
8.6900,146.6208407,48.00443593,1232.516874
8.6950,146.2376244,48.36475042,1232.703509
8.7000,145.8505315,48.7196178,1232.890943
8.7050,145.4589352,49.06962085,1233.079538
8.7100,145.0623094,49.4153552,1233.269629
8.7150,144.6624395,49.75623922,1233.46055
8.7200,144.2590848,50.09213641,1233.652288
8.7250,143.8532172,50.42293951,1233.844447
8.7300,143.44466,50.74806132,1234.036808
8.7350,143.0320647,51.06835306,1234.229933
8.7400,142.6142996,51.38337307,1234.423964
8.7450,142.1898782,51.69502226,1234.619994
8.7500,141.7582966,52.00321232,1234.818122
8.7550,141.3178729,52.30958935,1235.019383
8.7600,140.8693581,52.61400261,1235.223549
8.7650,140.4128188,52.91726307,1235.430823
8.7700,139.9474679,53.21815499,1235.641066
8.7750,139.4755828,53.519182,1235.854571
8.7800,138.9965909,53.81990164,1236.071398
8.7850,138.5095945,54.12097768,1236.292122
8.7900,138.014895,54.42258295,1236.516762
8.7950,137.5132763,54.72655691,1236.745786
8.8000,137.0037662,55.0327465,1236.979471
8.8050,136.4856617,55.34094375,1237.217964
8.8100,135.9605245,55.65174978,1237.461086
8.8150,135.4292269,55.9643645,1237.708336
8.8200,134.8922187,56.27893448,1237.959621
8.8250,134.3486828,56.59616061,1238.215416
8.8300,133.8012758,56.9157266,1238.474848
8.8350,133.2497906,57.23812626,1238.738208
8.8400,132.6949489,57.56329151,1239.005289
8.8450,132.139283,57.89223373,1239.27576
8.8500,131.5843134,58.22560294,1239.54942
8.8550,131.0303581,58.56219243,1239.825716
8.8600,130.4764627,58.90144085,1240.104785
8.8650,129.9249308,59.24347047,1240.385956
8.8700,129.3746116,59.58740633,1240.669166
8.8750,128.8255537,59.93259547,1240.954128
8.8800,128.2784792,60.27893376,1241.240488
8.8850,127.7334647,60.62533341,1241.52783
8.8900,127.1911424,60.97283652,1241.816305
8.8950,126.6512719,61.32117519,1242.105821
8.9000,126.1127378,61.67126485,1242.397097
8.9050,125.5773774,62.02442514,1242.690137
8.9100,125.0459596,62.38053977,1242.984619
8.9150,124.5184546,62.74094291,1243.281085
8.9200,123.9963122,63.10565453,1243.579179
8.9250,123.4805696,63.47287563,1243.877858
8.9300,122.9718673,63.84191685,1244.176722
8.9350,122.4699425,64.21264235,1244.475884
8.9400,121.9737303,64.58553285,1244.775847
8.9450,121.4831589,64.96043262,1245.076621
8.9500,121.0004513,65.3371195,1245.377398
8.9550,120.5262172,65.71591005,1245.67812
8.9600,120.061993,66.09722578,1245.978469
8.9650,119.6072538,66.47963489,1246.277987
8.9700,119.162368,66.86407193,1246.576889
8.9750,118.7272917,67.24905901,1246.874654
8.9800,118.3024465,67.63559678,1247.171479
8.9850,117.8861587,68.02264634,1247.467455
8.9900,117.4789458,68.40948886,1247.762059
8.9950,117.0815527,68.79628255,1248.055057
9.0000,116.6944111,69.18107453,1248.345394
9.0050,116.3156119,69.56420169,1248.633768
9.0100,115.9442087,69.94455249,1248.919971
9.0150,115.5777055,70.32339636,1249.205393
9.0200,115.2149724,70.70144173,1249.490657
9.0250,114.8549608,71.07951536,1249.776496
9.0300,114.4970225,71.45799006,1250.063221
9.0350,114.141385,71.83651637,1250.350619
9.0400,113.7887227,72.21422835,1250.638101
9.0450,113.4394236,72.59083584,1250.925384
9.0500,113.0928741,72.96599928,1251.212506
9.0550,112.7492631,73.33819847,1251.498804
9.0600,112.40748,73.70772874,1251.784697
9.0650,112.0654581,74.07321782,1252.07038
9.0700,111.7238179,74.43470439,1252.355645
9.0750,111.380745,74.79090644,1252.640535
9.0800,111.0360453,75.14152091,1252.924972
9.0850,110.690463,75.48801457,1253.209298
9.0900,110.3458582,75.83147082,1253.493268
9.0950,110.0016868,76.1704146,1253.776382
9.1000,109.6608328,76.50617121,1254.058141
9.1050,109.3235665,76.83797584,1254.338037
9.1100,108.9879579,77.16593991,1254.616737
9.1150,108.6543376,77.49022996,1254.894093
9.1200,108.3233016,77.8105286,1255.169662
9.1250,107.9950914,78.1263498,1255.443036
9.1300,107.6692178,78.43953954,1255.715183
9.1350,107.3458017,78.75000809,1255.985886
9.1400,107.0260382,79.05824258,1256.254964
9.1450,106.7092309,79.36398027,1256.522481
9.1500,106.394673,79.66681353,1256.788479
9.1550,106.0820906,79.96790533,1257.053551
9.1600,105.7713976,80.26541059,1257.316844
9.1650,105.4617195,80.56047972,1257.579214
9.1700,105.1534714,80.85308577,1257.840499
9.1750,104.8472998,81.14383402,1258.100698
9.1800,104.5453879,81.4319775,1258.358689
9.1850,104.2465792,81.71904343,1258.615614
9.1900,103.952094,82.0039347,1258.870484
9.1950,103.6605456,82.28667803,1259.123894
9.2000,103.3734805,82.56781687,1259.375441
9.2050,103.0904861,82.84692652,1259.625098
9.2100,102.8127643,83.12420819,1259.872585
9.2150,102.5409261,83.39894288,1260.117369
9.2200,102.2751721,83.67103056,1260.359296
9.2250,102.0159331,83.94175509,1260.598811
9.2300,101.7634581,84.21024765,1260.835311
9.2350,101.5192339,84.47682146,1261.068427
9.2400,101.2846942,84.74101605,1261.297421
9.2450,101.059129,85.00295801,1261.522613
9.2500,100.8416018,85.26132408,1261.74373
9.2550,100.6310846,85.51588628,1261.961065
9.2600,100.4261447,85.76570021,1262.174624
9.2650,100.2276714,86.01135491,1262.384378
9.2700,100.0340779,86.25138564,1262.590285
9.2750,99.84503436,86.4859403,1262.792516
9.2800,99.65862209,86.7137472,1262.991146
9.2850,99.47557421,86.93516473,1263.186061
9.2900,99.29486973,87.15012121,1263.377532
9.2950,99.11618412,87.35843176,1263.565624
9.3000,98.93949801,87.56190016,1263.751232
9.3050,98.76476755,87.75971196,1263.933963
9.3100,98.59163697,87.95220178,1264.114111
9.3150,98.42012036,88.13889691,1264.291342
9.3200,98.25131656,88.32009852,1264.46529
9.3250,98.0850559,88.49587929,1264.63605
9.3300,97.92039008,88.6655629,1264.803671
9.3350,97.75731141,88.83012554,1264.968621
9.3400,97.59513827,88.99094271,1265.131809
9.3450,97.43515799,89.14680313,1265.292083
9.3500,97.27594766,89.29864813,1265.45055
9.3550,97.11852533,89.44631379,1265.606631
9.3600,96.96327291,89.59063596,1265.760661
9.3650,96.81136116,89.73303582,1265.912821
9.3700,96.66214778,89.873688,1266.063453
9.3750,96.51700261,90.01293079,1266.212137
9.3800,96.37455805,90.15165341,1266.359728
9.3850,96.23460393,90.28800879,1266.505395
9.3900,96.09604715,90.42262714,1266.649831
9.3950,95.95764176,90.55614947,1266.793781
9.4000,95.81907507,90.68814178,1266.937125
9.4050,95.67869211,90.82057197,1267.081541
9.4100,95.53847284,90.95375135,1267.226424
9.4150,95.39837758,91.08946981,1267.372641
9.4200,95.25877103,91.22834425,1267.520371
9.4250,95.1205028,91.3716901,1267.669962
9.4300,94.98290824,91.518789,1267.82136
9.4350,94.8471092,91.67003102,1267.974326
9.4400,94.71255361,91.82543376,1268.129042
9.4450,94.57943068,91.98412807,1268.28504
9.4500,94.4484697,92.14659424,1268.442287
9.4550,94.31883657,92.31164277,1268.600541
9.4600,94.19105775,92.48058843,1268.760251
9.4650,94.06546214,92.65132253,1268.920261
9.4700,93.94162,92.82413012,1269.080888
9.4750,93.81969119,92.99732379,1269.241133
9.4800,93.69628777,93.17020815,1269.402096
9.4850,93.57324743,93.343105,1269.56305
9.4900,93.44969187,93.51626226,1269.724647
9.4950,93.3267408,93.6906029,1269.886808
9.5000,93.20525747,93.86664584,1270.049575
9.5050,93.08496052,94.04469733,1270.213193
9.5100,92.96621999,94.22404086,1270.377153
9.5150,92.84865151,94.40597273,1270.542213
9.5200,92.73230947,94.59034227,1270.708288
9.5250,92.61725582,94.77731749,1270.875505
9.5300,92.50296977,94.96679361,1271.044103
9.5350,92.38911624,95.15835811,1271.213972
9.5400,92.27413164,95.35131531,1271.385416
9.5450,92.15924739,95.54565638,1271.557955
9.5500,92.04423974,95.74029679,1271.731126
9.5550,91.93000841,95.93476551,1271.904319
9.5600,91.81666618,96.12882496,1272.077472
9.5650,91.70347434,96.32095762,1272.250021
9.5700,91.59100527,96.50987917,1272.421019
9.5750,91.47830524,96.69600207,1272.591062
9.5800,91.3672249,96.87853515,1272.759045
9.5850,91.25780972,97.05730741,1272.92475
9.5900,91.15000017,97.23177204,1273.08801
9.5950,91.04282542,97.40127722,1273.248767
9.6000,90.93646155,97.56512727,1273.406629
9.6050,90.83180384,97.72320464,1273.561189
9.6100,90.72937488,97.87487513,1273.711767
9.6150,90.62834035,98.01890415,1273.858102
9.6200,90.52822673,98.15530713,1274.000385
9.6250,90.42991361,98.28374136,1274.137998
9.6300,90.33284774,98.40559068,1274.27194
9.6350,90.23775461,98.52060852,1274.401761
9.6400,90.14501249,98.62948444,1274.527653
9.6450,90.05335963,98.73316896,1274.650617
9.6500,89.96402791,98.83155254,1274.770003
9.6550,89.87717167,98.92692157,1274.886912
9.6600,89.79322527,99.01908851,1275.00108
9.6650,89.71208507,99.10829427,1275.112698
9.6700,89.63436591,99.1942382,1275.221318
9.6750,89.55978101,99.27752658,1275.327376
9.6800,89.48927656,99.35739635,1275.43013
9.6850,89.42199824,99.43467574,1275.530299
9.6900,89.35654919,99.50749178,1275.627439
9.6950,89.29316022,99.57717816,1275.722253
9.7000,89.23173426,99.64311282,1275.814385
9.7050,89.17412451,99.7059514,1275.903381
9.7100,89.11785179,99.76554211,1275.990167
9.7150,89.06246857,99.82204429,1276.075079
9.7200,89.00862046,99.87599022,1276.158094
9.7250,88.95643408,99.92793957,1276.2394
9.7300,88.90640484,99.97844941,1276.319124
9.7350,88.85815012,100.0276602,1276.397526
9.7400,88.81169418,100.0761136,1276.474966
9.7450,88.76655441,100.1238818,1276.551634
9.7500,88.72180487,100.1711298,1276.628059
9.7550,88.67849521,100.2184478,1276.704148
9.7600,88.6377593,100.2659806,1276.779644
9.7650,88.59957586,100.3143906,1276.854846
9.7700,88.56394328,100.3632161,1276.929496
9.7750,88.53111965,100.4129411,1277.003904
9.7800,88.50189908,100.4642926,1277.078028
9.7850,88.47536797,100.515755,1277.151493
9.7900,88.45095653,100.5677814,1277.224681
9.7950,88.42923864,100.6207113,1277.297606
9.8000,88.40867333,100.6742035,1277.370641
9.8050,88.38937297,100.7293763,1277.444443
9.8100,88.37088888,100.7872321,1277.5197
9.8150,88.35411951,100.847231,1277.595736
9.8200,88.33796622,100.9099019,1277.673308
9.8250,88.32097735,100.9751423,1277.752911
9.8300,88.30361191,101.0434336,1277.834558
9.8350,88.28389977,101.1146554,1277.919017
9.8400,88.26282414,101.1895922,1278.006294
9.8450,88.23908997,101.2682619,1278.096947
9.8500,88.21336462,101.3520082,1278.191487
9.8550,88.1830943,101.4397677,1278.290408
9.8600,88.14698722,101.5306621,1278.393689
9.8650,88.10447445,101.6264966,1278.502596
9.8700,88.05446274,101.7275054,1278.617745
9.8750,87.99689234,101.8328809,1278.738721
9.8800,87.92980633,101.9430431,1278.866528
9.8850,87.85357941,102.0586879,1279.001489
9.8900,87.76784475,102.1785047,1279.142944
9.8950,87.67333349,102.3030996,1279.29097
9.9000,87.57008335,102.4328506,1279.445741
9.9050,87.45683068,102.5664896,1279.607023
9.9100,87.33364637,102.7043824,1279.775023
9.9150,87.20107172,102.8471468,1279.949769
9.9200,87.05901691,102.9934134,1280.130552
9.9250,86.90577133,103.1431934,1280.318104
9.9300,86.74308272,103.2962449,1280.511428
9.9350,86.57105539,103.4516006,1280.709896
9.9400,86.39017262,103.6094005,1280.913334
9.9450,86.20140884,103.7696683,1281.121333
9.9500,86.00448434,103.9309363,1281.333155
9.9550,85.8003975,104.0936762,1281.548674
9.9600,85.58867316,104.2575953,1281.767828
9.9650,85.37094209,104.4230723,1281.990061
9.9700,85.14726204,104.5904549,1282.215434
9.9750,84.9185658,104.7591704,1282.443191
9.9800,84.68568557,104.9298108,1282.673247
9.9850,84.44949831,105.101787,1282.904906
9.9900,84.21099734,105.2766703,1283.138612
9.9950,83.97153831,105.4537464,1283.373268
10.0000,83.7325917,105.6341999,1283.6089
10.0050,83.49402175,105.8164589,1283.844592
10.0100,83.25730212,106.0006077,1284.079774
10.0150,83.0235034,106.1867356,1284.313951
10.0200,82.79232946,106.3741831,1284.546869
10.0250,82.56493751,106.5624491,1284.777738
10.0300,82.34251861,106.7518587,1285.006157
10.0350,82.12514127,106.9405643,1285.230965
10.0400,81.91339746,107.127764,1285.451477
10.0450,81.70827866,107.313626,1285.66728
10.0500,81.50985735,107.4967019,1285.877451
10.0550,81.31896223,107.6760485,1286.081075
10.0600,81.1350048,107.8512244,1286.277963
10.0650,80.95738792,108.0211812,1286.467879
10.0700,80.78685247,108.1864741,1286.650814
10.0750,80.62278131,108.3458024,1286.82621
10.0800,80.46415306,108.4975197,1286.993505
10.0850,80.31202053,108.6424859,1287.152739
10.0900,80.166159,108.7793945,1287.303238
10.0950,80.02570279,108.9088895,1287.445795
10.1000,79.89106708,109.0294291,1287.579362
10.1050,79.76227803,109.1402969,1287.703453
10.1100,79.63891211,109.2419013,1287.81848
10.1150,79.52005056,109.3333291,1287.924364
10.1200,79.40689977,109.414955,1288.020753
10.1250,79.30022598,109.4868754,1288.107376
10.1300,79.19849144,109.5482774,1288.184528
10.1350,79.10367812,109.6001228,1288.251827
10.1400,79.01464664,109.6415721,1288.309332
10.1450,78.9310868,109.6732733,1288.35759
10.1500,78.851572,109.6952092,1288.397283
10.1550,78.77839255,109.7099129,1288.428796
10.1600,78.71215774,109.7171993,1288.451796
10.1650,78.6530931,109.7162881,1288.465766
10.1700,78.60080922,109.7075934,1288.471046
10.1750,78.55577583,109.6917238,1288.46781
10.1800,78.51865602,109.6693433,1288.456196
10.1850,78.48821468,109.639461,1288.436143
10.1900,78.46406561,109.6026138,1288.408223
10.1950,78.4453569,109.5594367,1288.373153
10.2000,78.43304413,109.5090862,1288.329965
10.2050,78.42674325,109.4534138,1288.279902
10.2100,78.42626632,109.3922202,1288.222998
10.2150,78.43275172,109.3265982,1288.159434
10.2200,78.44501925,109.2574535,1288.090256
10.2250,78.46438747,109.1854778,1288.015241
10.2300,78.49111194,109.1110704,1287.934547
10.2350,78.52541544,109.035952,1287.849084
10.2400,78.56647146,108.9602323,1287.759315
10.2450,78.61515407,108.8845558,1287.665253
10.2500,78.67212492,108.8104251,1287.5675
10.2550,78.73697247,108.7364277,1287.465418
10.2600,78.81023892,108.6639827,1287.359615
10.2650,78.89148425,108.5928973,1287.250232
10.2700,78.98125476,108.5240665,1287.137576
10.2750,79.07868432,108.4578884,1287.022339
10.2800,79.1849752,108.3945622,1286.904074
10.2850,79.2998266,108.3339864,1286.782862
10.2900,79.42433933,108.2770441,1286.658752
10.2950,79.55809481,108.2239616,1286.532105
10.3000,79.70001502,108.1740909,1286.403082
10.3050,79.84909769,108.1274907,1286.272268
10.3100,80.00526871,108.0850717,1286.140151
10.3150,80.16847584,108.0447279,1286.005629
10.3200,80.33931928,108.008248,1285.869448
10.3250,80.51554183,107.9746478,1285.732105
10.3300,80.69697209,107.9432532,1285.59334
10.3350,80.88465057,107.9154201,1285.453526
10.3400,81.07754485,107.8900093,1285.312443
10.3450,81.27557397,107.8665552,1285.16993
10.3500,81.47792175,107.8460819,1285.02697
10.3550,81.68449728,107.8279631,1284.883291
10.3600,81.89530703,107.8121105,1284.73891
10.3650,82.10941936,107.7985085,1284.594192
10.3700,82.32644434,107.7857335,1284.448607
10.3750,82.54608602,107.7747818,1284.302875
10.3800,82.76901998,107.7658771,1284.156891
10.3850,82.99371074,107.7581165,1284.010929
10.3900,83.22093327,107.7526665,1283.865297
10.3950,83.4506405,107.7468087,1283.718466
10.4000,83.68336419,107.7410822,1283.570558
10.4050,83.91741595,107.7348357,1283.421958
10.4100,84.15318628,107.7270499,1283.272009
10.4150,84.39023884,107.7179653,1283.121013
10.4200,84.62718407,107.7068497,1282.969256
10.4250,84.86381058,107.6938674,1282.816902
10.4300,85.10111034,107.6791144,1282.663565
10.4350,85.33815743,107.6620297,1282.509414
10.4400,85.57486141,107.6439799,1282.355215
10.4450,85.81088091,107.6232968,1282.200178
10.4500,86.04665977,107.6011063,1282.044716
10.4550,86.28191929,107.5760965,1281.888277
10.4600,86.51614281,107.5488094,1281.731424
10.4650,86.7501022,107.5195076,1281.573945
10.4700,86.98356461,107.4882027,1281.416077
10.4750,87.21662044,107.4542438,1281.257409
10.4800,87.44785222,107.4176873,1281.098576
10.4850,87.67802424,107.3787932,1280.939457
10.4900,87.90766041,107.3383853,1280.780234
10.4950,88.13692643,107.2961045,1280.620651
10.5000,88.36390252,107.2520625,1280.461602
10.5050,88.59009944,107.2073521,1280.303098
10.5100,88.81551735,107.1620076,1280.145104
10.5150,89.03975593,107.1160454,1279.987792
10.5200,89.26421555,107.0702226,1279.830951
10.5250,89.48817709,107.0233507,1279.674222
10.5300,89.71105782,106.9755526,1279.517862
10.5350,89.93164986,106.9255591,1279.361721
10.5400,90.15271432,106.8741883,1279.205062
10.5450,90.37331585,106.8210621,1279.048045
10.5500,90.59352563,106.7656309,1278.890329
10.5550,90.81352744,106.7086329,1278.73225
10.5600,91.03283181,106.6491597,1278.573473
10.5650,91.25155498,106.5882502,1278.414499
10.5700,91.470255,106.5255398,1278.254897
10.5750,91.68869212,106.4621422,1278.095327
10.5800,91.90592526,106.3986119,1277.936537
10.5850,92.1227564,106.3346287,1277.778001
10.5900,92.33778665,106.2700995,1277.620253
10.5950,92.55348191,106.2056377,1277.462608
10.6000,92.7691846,106.1419762,1277.30578
10.6050,92.98662963,106.0789988,1277.148959
10.6100,93.20630851,106.0156195,1276.991368
10.6150,93.42734644,105.9524491,1276.833705
10.6200,93.64979342,105.8879962,1276.67518
10.6250,93.87339196,105.8217531,1276.515609
10.6300,94.0970747,105.7542304,1276.355652
10.6350,94.3206267,105.6845752,1276.194924
10.6400,94.54363711,105.6129324,1276.0336
10.6450,94.76705259,105.5407817,1275.872098
10.6500,94.98993728,105.4662243,1275.709775
10.6550,95.21261655,105.3902835,1275.546999
10.6600,95.43443011,105.3118944,1275.383432
10.6650,95.65659655,105.2323013,1275.219288
10.6700,95.87849529,105.1508711,1275.054363
10.6750,96.10066972,105.0670604,1274.888149
10.6800,96.32249875,104.9800308,1274.72048
10.6850,96.54497913,104.8906525,1274.551398
10.6900,96.76821706,104.7985885,1274.38079
10.6950,96.99080079,104.7046746,1274.209679
10.7000,97.21308839,104.6091474,1274.038021
10.7050,97.43627766,104.5116636,1273.865182
10.7100,97.6591298,104.4126704,1273.691891
10.7150,97.8828175,104.3121603,1273.517739
10.7200,98.10776733,104.2101668,1273.342543
10.7250,98.3334218,104.1065042,1273.16647
10.7300,98.55944497,104.0005329,1272.989333
10.7350,98.78668664,103.8920095,1272.81064
10.7400,99.01486712,103.7794886,1272.629794
10.7450,99.24417157,103.663038,1272.446779
10.7500,99.47394356,103.5414989,1272.261259
10.7550,99.70226967,103.4133049,1272.07314
10.7600,99.93011186,103.2791411,1271.882489
10.7650,100.1569561,103.1380847,1271.68901
10.7700,100.3834471,102.9899154,1271.492312
10.7750,100.6094444,102.835418,1271.292923
10.7800,100.8360189,102.6749561,1271.090599
10.7850,101.0623096,102.509138,1270.88598
10.7900,101.288698,102.3376101,1270.67876
10.7950,101.5151741,102.1606839,1270.469045
10.8000,101.7427341,101.9792887,1270.256982
10.8050,101.9713296,101.791643,1270.041634
10.8100,102.2010438,101.5992023,1269.823826
10.8150,102.431489,101.4021889,1269.60381
10.8200,102.6626852,101.1999267,1269.381259
10.8250,102.8949099,100.993254,1269.156598
10.8300,103.1289567,100.7818576,1268.929455
10.8350,103.3659121,100.5668919,1268.700027
10.8400,103.6035799,100.348074,1268.469031
10.8450,103.8427394,100.1259438,1268.236496
10.8500,104.0850833,99.90175513,1268.002408
10.8550,104.3301672,99.67442137,1267.766378
10.8600,104.5795706,99.44496496,1267.528353
10.8650,104.8331833,99.21266308,1267.288056
10.8700,105.0903347,98.97808135,1267.045968
10.8750,105.3518081,98.73942604,1266.800957
10.8800,105.6179781,98.49683722,1266.552956
10.8850,105.888582,98.25193428,1266.302912
10.8900,106.1646483,98.00500189,1266.05061
10.8950,106.4442678,97.75611235,1265.796846
10.9000,106.7280963,97.50457408,1265.540984
10.9050,107.0158907,97.25133211,1265.28362
10.9100,107.3070671,96.99619183,1265.024898
10.9150,107.6031659,96.74140806,1264.765391
10.9200,107.9039002,96.48713867,1264.505254
10.9250,108.211279,96.23496819,1264.244608
10.9300,108.5255805,95.98269221,1263.982224
10.9350,108.845533,95.73138218,1263.719142
10.9400,109.1717104,95.48121581,1263.455294
10.9450,109.5036862,95.23079211,1263.190151
10.9500,109.8427553,94.97982389,1262.923098
10.9550,110.1885227,94.72868161,1262.654509
10.9600,110.5393395,94.4758282,1262.384332
10.9650,110.8945366,94.2199322,1262.112115
10.9700,111.2534097,93.96058222,1261.837956
10.9750,111.6147729,93.69676122,1261.561839
10.9800,111.978329,93.4287391,1261.283988
10.9850,112.3424578,93.15587035,1261.004694
10.9900,112.7068579,92.87851812,1260.724187
10.9950,113.0713793,92.59700608,1260.442741
11.0000,113.4361229,92.31166972,1260.16047
11.0050,113.8014232,92.02340146,1259.877711
11.0100,114.1678032,91.73353075,1259.594994
11.0150,114.53481,91.44104436,1259.311984
11.0200,114.9011831,91.14676265,1259.029511
11.0250,115.2686348,90.85017699,1258.74681
11.0300,115.6362851,90.55248344,1258.464734
11.0350,116.0032486,90.25261188,1258.183135
11.0400,116.3707557,89.95117083,1257.901808
11.0450,116.738919,89.6480597,1257.620686
11.0500,117.1084584,89.34448784,1257.340112
11.0550,117.4799322,89.04064093,1257.05996
11.0600,117.8533499,88.73666351,1256.780268
11.0650,118.2275947,88.43332713,1256.501768
11.0700,118.6039857,88.13172765,1256.22452
11.0750,118.981778,87.83156221,1255.948579
11.0800,119.3604676,87.53179999,1255.673654
11.0850,119.7426928,87.23424397,1255.399675
11.0900,120.1275735,86.93834455,1255.126766
11.0950,120.5153076,86.64322586,1254.854472
11.1000,120.9062407,86.34880003,1254.582724
11.1050,121.2999858,86.05558173,1254.311871
11.1100,121.696471,85.76296302,1254.041661
11.1150,122.0959938,85.4713259,1253.772192
11.1200,122.4988765,85.18109663,1253.503604
11.1250,122.9041425,84.89309841,1253.236503
11.1300,123.3123727,84.60720687,1252.970675
11.1350,123.7238956,84.32408044,1252.7063
11.1400,124.1389946,84.043292,1252.443063
11.1450,124.5586298,83.76583478,1252.181108
11.1500,124.9817721,83.49070492,1251.920292
11.1550,125.4094966,83.21892077,1251.660773
11.1600,125.841805,82.94989221,1251.402368
11.1650,126.2791089,82.68334607,1251.14481
11.1700,126.7216319,82.41815711,1250.887661
11.1750,127.1693486,82.15401037,1250.630781
11.1800,127.6218448,81.89009478,1250.374
11.1850,128.0794076,81.62574894,1250.116946
11.1900,128.5408033,81.35963805,1249.859434
11.1950,129.0068788,81.091216,1249.600938
11.2000,129.4771405,80.82089001,1249.341806
11.2050,129.9521427,80.54849503,1249.081807
11.2100,130.4324054,80.27454954,1248.82104
11.2150,130.9180246,79.99842394,1248.55921
11.2200,131.409278,79.71931704,1248.295912
11.2250,131.9050826,79.43724,1248.031491
11.2300,132.4047512,79.15346757,1247.76671
11.2350,132.9091498,78.86670735,1247.500785
11.2400,133.4182501,78.5762262,1247.233426
11.2450,133.9303453,78.28146843,1246.964968
11.2500,134.4460006,77.9835036,1246.695774
11.2550,134.964651,77.6800884,1246.425134
11.2600,135.4856328,77.37359536,1246.154209
11.2650,136.0096224,77.06283708,1245.882414
11.2700,136.5368224,76.74934618,1245.610365
11.2750,137.0660485,76.43256974,1245.338131
11.2800,137.5978768,76.11331777,1245.065933
11.2850,138.1325881,75.79154425,1244.793683
11.2900,138.6698421,75.46550106,1244.520766
11.2950,139.2103747,75.13426221,1244.246564
11.3000,139.7532743,74.79811872,1243.971498
11.3050,140.2972884,74.45597504,1243.695472
11.3100,140.8426383,74.10714383,1243.418136
11.3150,141.3885248,73.75311025,1243.140349
11.3200,141.9354405,73.39384715,1242.861959
11.3250,142.4835366,73.0298721,1242.583108
11.3300,143.0329456,72.66179409,1242.304079
11.3350,143.5841678,72.29133122,1242.025436
11.3400,144.1363103,71.91899832,1241.747663
11.3450,144.6910694,71.54637468,1241.470913
11.3500,145.247772,71.17288454,1241.19516
11.3550,145.8082381,70.80058319,1240.920838
11.3600,146.3714433,70.42915294,1240.648083
11.3650,146.9386969,70.05817469,1240.376467
11.3700,147.5088389,69.68693133,1240.105971
11.3750,148.0814258,69.31520097,1239.83669
11.3800,148.6568489,68.94320757,1239.568633
11.3850,149.2314392,68.56868293,1239.301831
11.3900,149.8055751,68.1922125,1239.036339
11.3950,150.3783039,67.81484983,1238.772877
11.4000,150.9483888,67.43611577,1238.511497
11.4050,151.5148779,67.05867534,1238.253453
11.4100,152.0781538,66.68186844,1237.998412
11.4150,152.6381751,66.30621245,1237.746587
11.4200,153.1952688,65.9325898,1237.498176
11.4250,153.7505038,65.56190181,1237.253249
11.4300,154.3031502,65.19432587,1237.011951
11.4350,154.8532327,64.83008829,1236.774348
11.4400,155.4012477,64.47043869,1236.540767
11.4450,155.9456963,64.11470155,1236.311279
11.4500,156.486647,63.76296216,1236.085873
11.4550,157.0237435,63.41604327,1235.864887
11.4600,157.5558116,63.07382634,1235.648488
11.4650,158.0823177,62.73736154,1235.43715
11.4700,158.6018825,62.40669988,1235.231137
11.4750,159.1143601,62.08255217,1235.030777
11.4800,159.6202892,61.76539605,1234.836082
11.4850,160.1201848,61.4557642,1234.647204
11.4900,160.6152794,61.15392053,1234.463953
11.4950,161.1048794,60.85908754,1234.286132
11.5000,161.5890805,60.57062656,1234.113556
11.5050,162.0677888,60.28759424,1233.945778
11.5100,162.5400882,60.00802984,1233.782247
11.5150,163.005261,59.73063487,1233.622614
11.5200,163.4608835,59.45435857,1233.466911
11.5250,163.9067407,59.17717885,1233.314418
11.5300,164.342048,58.89824895,1233.165037
11.5350,164.7667656,58.6182645,1233.019035
11.5400,165.1793439,58.33660696,1232.8765
11.5450,165.5815482,58.05378231,1232.737218
11.5500,165.9738818,57.76963164,1232.600915
11.5550,166.3562804,57.48556033,1232.468046
11.5600,166.7306627,57.20026219,1232.337786
11.5650,167.0966814,56.91524466,1232.21059
11.5700,167.4550952,56.62974902,1232.085993
11.5750,167.8063229,56.34454006,1231.964167
11.5800,168.1520642,56.06005767,1231.844837
11.5850,168.4918624,55.77667238,1231.728217
11.5900,168.8261155,55.4946976,1231.614327
11.5950,169.1552621,55.2157192,1231.503555
11.6000,169.4782996,54.93948555,1231.396032
11.6050,169.7971484,54.66669866,1231.291572
11.6100,170.1119009,54.39670107,1231.18991
11.6150,170.4241112,54.12997537,1231.090912
11.6200,170.7359163,53.86546319,1230.993742
11.6250,171.0465742,53.60378247,1230.898765
11.6300,171.3581736,53.34465191,1230.805399
11.6350,171.6697202,53.08752606,1230.713577
11.6400,171.9829411,52.8324948,1230.622957
11.6450,172.296772,52.57920361,1230.533683
11.6500,172.611876,52.32710488,1230.445289
11.6550,172.9280418,52.07606939,1230.357744
11.6600,173.2458653,51.82450947,1230.270338
11.6650,173.5648764,51.57346047,1230.183485
11.6700,173.8851307,51.32370248,1230.097481
11.6750,174.2070783,51.07497848,1230.012064
11.6800,174.5299982,50.82755847,1229.927543
11.6850,174.8552264,50.5826573,1229.844078
11.6900,175.1818229,50.34010315,1229.761841
11.6950,175.5107358,50.09943166,1229.680569
11.7000,175.8421286,49.86112231,1229.600411
11.7050,176.1769668,49.62400773,1229.520905
11.7100,176.5148983,49.38840177,1229.442221
11.7150,176.8550858,49.15453564,1229.364551
11.7200,177.1961119,48.92160143,1229.287942
11.7250,177.5385854,48.68837041,1229.211895
11.7300,177.8821127,48.45728727,1229.137322
11.7350,178.2260828,48.22745653,1229.064119
11.7400,178.5686157,47.9980454,1228.992353
11.7450,178.9099531,47.76895499,1228.922054
11.7500,179.2492243,47.5410199,1228.85367
11.7550,179.5859642,47.3127923,1228.786914
11.7600,179.9198116,47.08519193,1228.722171
11.7650,180.2496729,46.85780697,1228.659503
11.7700,180.5770694,46.63047002,1228.598707
11.7750,180.9009875,46.40289113,1228.539792
11.7800,181.2206002,46.17526873,1228.483023
11.7850,181.5344741,45.94691278,1228.428382
11.7900,181.8415195,45.71750414,1228.376007
11.7950,182.1402855,45.48773654,1228.326327
11.8000,182.4300697,45.25744689,1228.279343
11.8050,182.7085715,45.02781733,1228.235892
11.8100,182.9767106,44.80024695,1228.196225
11.8150,183.2342474,44.57351775,1228.159894
11.8200,183.4839673,44.34919268,1228.126973
11.8250,183.7260679,44.12737763,1228.097368
11.8300,183.9611918,43.90791817,1228.070865
11.8350,184.1891032,43.68931019,1228.046972
11.8400,184.4117948,43.47283791,1228.025658
11.8450,184.6289216,43.25703963,1228.006509
11.8500,184.8411478,43.04143427,1227.989331
11.8550,185.0487383,42.82513264,1227.973746
11.8600,185.2529402,42.60965212,1227.959863
11.8650,185.4541134,42.39399465,1227.947291
11.8700,185.6536205,42.17850197,1227.935953
11.8750,185.8534828,41.96375066,1227.925439
11.8800,186.0526104,41.7492151,1227.915916
11.8850,186.2534996,41.53475581,1227.906738
11.8900,186.4565174,41.32108748,1227.89799
11.8950,186.6631747,41.10778823,1227.889358
11.9000,186.8745881,40.89412798,1227.880428
11.9050,187.0901378,40.67989286,1227.87125
11.9100,187.3100093,40.4656416,1227.861952
11.9150,187.5331933,40.24927273,1227.852063
11.9200,187.7583848,40.03109422,1227.841985
11.9250,187.9836082,39.80898953,1227.831376
11.9300,188.2079511,39.5827764,1227.820362
11.9350,188.4316942,39.35114475,1227.808441
11.9400,188.6538275,39.11292222,1227.795415
11.9450,188.8729317,38.86705981,1227.781198
11.9500,189.0898746,38.61475365,1227.765988
11.9550,189.3039589,38.35487348,1227.749511
11.9600,189.5163227,38.08875255,1227.731908
11.9650,189.7274303,37.81598747,1227.712969
11.9700,189.9374361,37.53654998,1227.692526
11.9750,190.1468882,37.25111992,1227.670743
11.9800,190.3571884,36.96001543,1227.647336
11.9850,190.5682857,36.66270628,1227.62221
11.9900,190.7806151,36.36021031,1227.595557
11.9950,190.9941519,36.05323063,1227.56761
12.0000,191.2092698,35.74293988,1227.538568
12.0050,191.4253479,35.428985,1227.508386
12.0100,191.6414215,35.11330514,1227.477828
12.0150,191.8588706,34.7951506,1227.446622
12.0200,192.0780693,34.47525728,1227.414986
12.0250,192.2971957,34.15533887,1227.383862
12.0300,192.5159626,33.83375962,1227.352867
12.0350,192.7331752,33.51169172,1227.322613
12.0400,192.9492378,33.18942193,1227.293223
12.0450,193.1641054,32.86751036,1227.264836
12.0500,193.3775581,32.54650689,1227.237817
12.0550,193.5884284,32.22746941,1227.212538
12.0600,193.7970744,31.91015418,1227.188794
12.0650,194.0034537,31.5944594,1227.166595
12.0700,194.2052582,31.28161245,1227.146615
12.0750,194.4026003,30.97236969,1227.128996
12.0800,194.5949019,30.66746746,1227.113994
12.0850,194.7829467,30.36734495,1227.101646
12.0900,194.9668894,30.07264487,1227.092093
12.0950,195.1481258,29.78351378,1227.085224
12.1000,195.3277356,29.50203011,1227.081448
12.1050,195.5066779,29.22777697,1227.080475
12.1100,195.6852471,28.96050681,1227.082265
12.1150,195.8640705,28.70281613,1227.087458
12.1200,196.0428249,28.4547239,1227.095987
12.1250,196.2229762,28.21702084,1227.10779
12.1300,196.4059968,27.99041813,1227.122771
12.1350,196.5939396,27.77591922,1227.140814
12.1400,196.7872438,27.572471,1227.161442
12.1450,196.9866268,27.38073206,1227.184628
12.1500,197.1928827,27.20103024,1227.210211
12.1550,197.4064336,27.03279212,1227.237948
12.1600,197.6279089,26.87411581,1227.267342
12.1650,197.858237,26.72554135,1227.29837
12.1700,198.097299,26.58653191,1227.330809
12.1750,198.345435,26.4554652,1227.364389
12.1800,198.603179,26.33138716,1227.398741
12.1850,198.8715958,26.21265701,1227.433509
12.1900,199.1494248,26.0989513,1227.468844
12.1950,199.4362916,25.98887934,1227.504515
12.2000,199.731842,25.88095783,1227.540227
12.2050,200.035689,25.77419027,1227.575731
12.2100,200.3471847,25.66687082,1227.610707
12.2150,200.6645173,25.55886019,1227.645365
12.2200,200.9869601,25.44850269,1227.679322
12.2250,201.3151991,25.33694169,1227.712746
12.2300,201.6475163,25.22274076,1227.745525
12.2350,201.9837103,25.10655129,1227.77784
12.2400,202.3214118,24.98668524,1227.80962
12.2450,202.6602036,24.86464058,1227.841253
12.2500,202.9978438,24.73839405,1227.872549
12.2550,203.333519,24.60726633,1227.903395
12.2600,203.6656717,24.47089478,1227.933839
12.2650,203.9928551,24.32980674,1227.964042
12.2700,204.313742,24.18222697,1227.993692
12.2750,204.6270933,24.0277487,1228.022805
12.2800,204.9318697,23.865889,1228.051262
12.2850,205.2270715,23.69675706,1228.07916
12.2900,205.5111547,23.52023324,1228.106586
12.2950,205.7831144,23.33612737,1228.133526
12.3000,206.0419787,23.14455243,1228.160126
12.3050,206.2877884,22.94630572,1228.186676
12.3100,206.5203914,22.74095395,1228.213011
12.3150,206.7394234,22.52995958,1228.239502
12.3200,206.944274,22.31376995,1228.26642
12.3250,207.1350495,22.09266513,1228.293707
12.3300,207.3119896,21.86690318,1228.321654
12.3350,207.4758021,21.63838843,1228.350555
12.3400,207.627759,21.40707002,1228.380279
12.3450,207.7676186,21.1729141,1228.410957
12.3500,207.89514,20.93597114,1228.442555
12.3550,208.0097372,20.69766349,1228.475555
12.3600,208.1109898,20.45794583,1228.51021
12.3650,208.197264,20.21752805,1228.546985
12.3700,208.2705362,19.97727382,1228.585816
12.3750,208.3310574,19.73731277,1228.626679
12.3800,208.3795352,19.49775949,1228.669395
12.3850,208.4154627,19.25942922,1228.714226
12.3900,208.4402236,19.02342081,1228.761189
12.3950,208.45533,18.79097845,1228.810333
12.4000,208.4616591,18.56105033,1228.861166
12.4050,208.4613705,18.33459599,1228.913537
12.4100,208.4558092,18.11139269,1228.967074
12.4150,208.4465392,17.89126677,1229.021445
12.4200,208.433897,17.67322895,1229.076423
12.4250,208.4197985,17.45759444,1229.131648
12.4300,208.4054619,17.2433977,1229.186773
12.4350,208.3927381,17.03038881,1229.241425
12.4400,208.381917,16.81791646,1229.295544
12.4450,208.3752645,16.60619663,1229.348881
12.4500,208.3732231,16.39391722,1229.401176
12.4550,208.3786205,16.18161842,1229.452104
12.4600,208.3919799,15.96807295,1229.50135
12.4650,208.4147124,15.75303201,1229.548672
12.4700,208.4480179,15.53480771,1229.593564
12.4750,208.4925287,15.31358545,1229.635961
12.4800,208.5481502,15.08805154,1229.675553
12.4850,208.6135691,14.85934709,1229.712665
12.4900,208.6900366,14.62593845,1229.746795
12.4950,208.7767934,14.38718082,1229.777965
12.5000,208.8725493,14.14362674,1229.806409
12.5050,208.976942,13.89499102,1229.832213
12.5100,209.0889925,13.64107796,1229.855615
12.5150,209.209109,13.38288105,1229.876766
12.5200,209.3367877,13.12047958,1229.895828
12.5250,209.4698331,12.85283959,1229.912877
12.5300,209.6083145,12.58075368,1229.927997
12.5350,209.7500902,12.30388081,1229.941491
12.5400,209.8958415,12.02363464,1229.953621
12.5450,210.0458615,11.73946165,1229.964196
12.5500,210.1990835,11.45171796,1229.973386
12.5550,210.3541811,11.16137646,1229.981598
12.5600,210.510391,10.86846676,1229.988907
12.5650,210.6667758,10.57330378,1229.995573
12.5700,210.8225044,10.27696273,1230.001913
12.5750,210.977374,9.979925615,1230.008065
12.5800,211.1292497,9.684044017,1230.014834
12.5850,211.2790099,9.388322695,1230.021959
12.5900,211.4259096,9.094253252,1230.029723
12.5950,211.5695063,8.801702215,1230.038225
12.6000,211.7097431,8.51112664,1230.047601
12.6050,211.8458143,8.222868549,1230.057894
12.6100,211.9774453,7.936777832,1230.069272
12.6150,212.1033106,7.653750739,1230.08187
12.6200,212.2231671,7.374197482,1230.095885
12.6250,212.33723,7.098599227,1230.111368
12.6300,212.4444249,6.827788212,1230.128533
12.6350,212.5447019,6.561118963,1230.147304
12.6400,212.6363032,6.299974034,1230.168144
12.6450,212.7200859,6.044759243,1230.190926
12.6500,212.7953454,5.79602125,1230.215843
12.6550,212.8615191,5.552515575,1230.242804
12.6600,212.9187152,5.315336689,1230.271935
12.6650,212.9685772,5.084575471,1230.303017
12.6700,213.0116282,4.860822056,1230.336067
12.6750,213.0471365,4.642969323,1230.371096
12.6800,213.0754239,4.43286241,1230.408415
12.6850,213.0976831,4.230468472,1230.447837
12.6900,213.1150702,4.035259285,1230.489077
12.6950,213.1269916,3.846003889,1230.531893
12.7000,213.1337743,3.663474282,1230.576395
12.7050,213.1364568,3.487311416,1230.622416
12.7100,213.1349417,3.31819132,1230.670145
12.7150,213.1287149,3.154741606,1230.719273
12.7200,213.1194204,2.996505631,1230.769546
12.7250,213.1071847,2.842991182,1230.821004
12.7300,213.0919909,2.693806454,1230.873418
12.7350,213.0733218,2.548247477,1230.926813
12.7400,213.0539202,2.406342687,1230.980777
12.7450,213.0333107,2.267410914,1231.035256
12.7500,213.0126734,2.131045227,1231.089836
12.7550,212.9919436,1.996170044,1231.144512
12.7600,212.9724106,1.863345528,1231.199126
12.7650,212.9549059,1.731132967,1231.253304
12.7700,212.9400387,1.600697252,1231.307146
12.7750,212.9284091,1.470732821,1231.360426
12.7800,212.920359,1.342083233,1231.41311
12.7850,212.917133,1.212668997,1231.46475
12.7900,212.9189489,1.082877661,1231.515472
12.7950,212.9258457,0.9532268643,1231.565208
12.8000,212.9382165,0.822343895,1231.613729
12.8050,212.9559849,0.6913312924,1231.661267
12.8100,212.9792993,0.5599892155,1231.707673
12.8150,213.0066171,0.4278853332,1231.753102
12.8200,213.0376202,0.2955642569,1231.797719
12.8250,213.0718198,0.1628491906,1231.841529
12.8300,213.1085595,0.03061201984,1231.884884
12.8350,213.1469413,-0.1011415201,1231.927881
12.8400,213.1863064,-0.2325720075,1231.97056
12.8450,213.2247141,-0.3632262717,1232.013262
12.8500,213.2626514,-0.493577343,1232.055869
12.8550,213.2993365,-0.6223200684,1232.098758
12.8600,213.3343585,-0.7495557371,1232.141962
12.8650,213.366422,-0.8754658068,1232.185731
12.8700,213.3951743,-1.00066066,1232.230013
12.8750,213.4198921,-1.124349016,1232.275078
12.8800,213.4416136,-1.247831991,1232.320478
12.8850,213.4589568,-1.369520619,1232.366663
12.8900,213.4729712,-1.490253704,1232.413556
12.8950,213.4829545,-1.610045781,1232.461286
12.9000,213.4887928,-1.729413123,1232.509781
12.9050,213.4896314,-1.848752189,1232.559197
12.9100,213.4860813,-1.967703733,1232.609411
12.9150,213.4781343,-2.086872382,1232.660489
12.9200,213.4654981,-2.20596581,1232.712409
12.9250,213.4479748,-2.325818224,1232.765186
12.9300,213.4267104,-2.446121739,1232.818663
12.9350,213.4017216,-2.566852044,1232.872853
12.9400,213.3742232,-2.690079364,1232.927226
12.9450,213.3428132,-2.815876031,1232.981938
12.9500,213.3084573,-2.944712788,1233.036822
12.9550,213.2714986,-3.076279341,1233.091684
12.9600,213.2321439,-3.212205626,1233.14632
12.9650,213.1901341,-3.352609308,1233.200624
12.9700,213.1436728,-3.497588102,1233.254804
12.9750,213.0930815,-3.645730115,1233.308871
12.9800,213.0390255,-3.798992699,1233.362395
12.9850,212.9811926,-3.958342048,1233.41523
12.9900,212.9195775,-4.122635574,1233.467656
12.9950,212.8547421,-4.291242585,1233.519653
13.0000,212.787013,-4.464891584,1233.570875
13.0050,212.717133,-4.643322153,1233.621204
13.0100,212.6456655,-4.827684508,1233.670219
13.0150,212.5735263,-5.017611845,1233.717812
13.0200,212.500469,-5.212636208,1233.763983
13.0250,212.4259676,-5.41362328,1233.808513
13.0300,212.3501121,-5.619576701,1233.851567
13.0350,212.2727194,-5.831074668,1233.892896
13.0400,212.1923823,-6.048322635,1233.932611
13.0450,212.1077844,-6.270774196,1233.970739
13.0500,212.0186445,-6.497915479,1234.007484
13.0550,211.9244657,-6.729005624,1234.042821
13.0600,211.8253336,-6.963398035,1234.076746
13.0650,211.7192319,-7.199288348,1234.109732
13.0700,211.6057635,-7.436484746,1234.141931
13.0750,211.4844299,-7.674660782,1234.173331
13.0800,211.3555062,-7.913150202,1234.204113
13.0850,211.2171405,-8.150633611,1234.234693
13.0900,211.0692645,-8.386379543,1234.265209
13.0950,210.909837,-8.620018307,1234.296144
13.1000,210.7393524,-8.849385258,1234.3278
13.1050,210.556936,-9.075238072,1234.360246
13.1100,210.362724,-9.296009288,1234.393735
13.1150,210.1578625,-9.511548558,1234.428351
13.1200,209.9426426,-9.721739257,1234.464152
13.1250,209.7187724,-9.925354782,1234.501189
13.1300,209.4873383,-10.12330575,1234.539281
13.1350,209.2509077,-10.31480415,1234.578206
13.1400,209.0114856,-10.49959607,1234.617864
13.1450,208.771837,-10.67855068,1234.65764
13.1500,208.5328984,-10.85179845,1234.697473
13.1550,208.2985297,-11.01945546,1234.736838
13.1600,208.069475,-11.18217422,1234.775591
13.1650,207.8489468,-11.34064982,1234.81306
13.1700,207.6391091,-11.49463475,1234.849033
13.1750,207.4412067,-11.64540647,1234.883041
13.1800,207.2558142,-11.79246548,1234.915168
13.1850,207.0846469,-11.93693503,1234.944972
13.1900,206.9276076,-12.07878773,1234.97242
13.1950,206.7862871,-12.21791206,1234.997241
13.2000,205.300537,-11.46629983,1235.829456
13.2050,205.3353665,-11.61813383,1235.779155
13.2100,205.3766897,-11.76653895,1235.730851
13.2150,205.42481,-11.91201778,1235.684438
13.2200,205.4796214,-12.05397317,1235.640058
13.2250,205.5402314,-12.19302499,1235.597638
13.2300,205.6055855,-12.32916871,1235.557021
13.2350,205.6746275,-12.4622806,1235.518276
13.2400,205.7460963,-12.59177518,1235.481449
13.2450,205.818796,-12.71713176,1235.446531
13.2500,205.8914011,-12.83793981,1235.413645
13.2550,205.9638275,-12.95420466,1235.382699
13.2600,206.0347877,-13.0652308,1235.353782
13.2650,206.102732,-13.16955889,1235.327151
13.2700,206.1676307,-13.26833184,1235.302713
13.2750,206.2300101,-13.36161415,1235.280386
13.2800,206.2882097,-13.44800205,1235.260387
13.2850,206.3414219,-13.52830534,1235.242684
13.2900,206.3873263,-13.60194799,1235.227537
13.2950,206.4260578,-13.66842457,1235.215117
13.3000,206.4563754,-13.72770334,1235.205368
13.3050,206.4774978,-13.77983269,1235.198348
13.3100,206.489165,-13.82450004,1235.194092
13.3150,206.4910072,-13.86142014,1235.1926
13.3200,206.4818309,-13.8910686,1235.193944
13.3250,206.4620092,-13.91257236,1235.19815
13.3300,206.4309584,-13.92644431,1235.205258
13.3350,206.3896735,-13.93231751,1235.215301
13.3400,206.3377706,-13.93067769,1235.228217
13.3450,206.276527,-13.92109627,1235.244207
13.3500,206.2060793,-13.90433526,1235.263149
13.3550,206.1270317,-13.88014258,1235.285279
13.3600,206.0396266,-13.84928605,1235.310403
13.3650,205.9452749,-13.8123239,1235.338604
13.3700,205.843674,-13.7693531,1235.369978
13.3750,205.7353016,-13.72075671,1235.40453
13.3800,205.6200304,-13.66627012,1235.442402
13.3850,205.4982827,-13.60629368,1235.483543
13.3900,205.3702606,-13.5407955,1235.527984
13.3950,206.7530431,-14.33048561,1234.705598
13.4000,206.7727434,-14.29621139,1234.674598
13.4050,206.7999127,-14.26165577,1234.640689
13.4100,206.8333583,-14.22719126,1234.604061
13.4150,206.873985,-14.192765,1234.564425
13.4200,206.9223612,-14.15927035,1234.521529
13.4250,206.9786138,-14.12661142,1234.475329
13.4300,207.0447334,-14.09520728,1234.425412
13.4350,207.1202514,-14.0659844,1234.37176
13.4400,207.2055346,-14.03876572,1234.314182
13.4450,207.3006617,-14.01357296,1234.252788
13.4500,207.4053726,-13.99070171,1234.18754
13.4550,207.5192231,-13.97134367,1234.118271
13.4600,207.6425314,-13.9553341,1234.045035
13.4650,207.7747337,-13.94277034,1233.967918
13.4700,207.9153879,-13.93378128,1233.886955
13.4750,208.0645924,-13.92778998,1233.802261
13.4800,208.2223851,-13.92543268,1233.713797
13.4850,208.3877669,-13.92602543,1233.621747
13.4900,208.5617485,-13.93042818,1233.525882
13.4950,208.7428419,-13.93753665,1233.426616
13.5000,208.9307058,-13.94704674,1233.324079
13.5050,209.1239456,-13.95918854,1233.218451
13.5100,209.3223406,-13.97350799,1233.109923
13.5150,209.5236007,-13.98948533,1232.998926
13.5200,209.726467,-14.00714757,1232.885799
13.5250,209.928444,-14.02487703,1232.771236
13.5300,210.1293081,-14.04311605,1232.6551
13.5350,210.3267468,-14.06075763,1232.538025
13.5400,210.5190309,-14.0762272,1232.42052
13.5450,210.704857,-14.08978288,1232.302814
13.5500,210.8829428,-14.10074108,1232.185292
13.5550,211.0517244,-14.10850187,1232.06829
13.5600,211.209426,-14.11155593,1231.952225
13.5650,211.3559689,-14.11022425,1231.837168
13.5700,211.4894039,-14.10316723,1231.72358
13.5750,211.6085213,-14.08930116,1231.611709
13.5800,211.7126316,-14.07011421,1231.50155
13.5850,211.8016569,-14.04312573,1231.393534
13.5900,211.8757947,-14.00893294,1231.287503
13.5950,211.9340581,-13.96662572,1231.183889
13.6000,211.9773666,-13.91644688,1231.082521
13.6050,212.0050937,-13.85760312,1230.983603
13.6100,212.0161986,-13.79094921,1230.887226
13.6150,212.0114156,-13.71694779,1230.793213
13.6200,211.9920982,-13.63468814,1230.701568
13.6250,211.9586918,-13.54531841,1230.612042
13.6300,211.9120961,-13.44899046,1230.524529
13.6350,211.8524227,-13.34598246,1230.438973
13.6400,211.7806716,-13.23607436,1230.355384
13.6450,211.6965644,-13.12016229,1230.273653
13.6500,211.6011777,-12.99864599,1230.193605
13.6550,211.4937397,-12.87157604,1230.115445
13.6600,211.3754217,-12.73891717,1230.038957
13.6650,211.2463852,-12.60118157,1229.964071
13.6700,211.1077903,-12.45987108,1229.890475
13.6750,210.960016,-12.31456558,1229.818216
13.6800,210.805775,-12.1647936,1229.747046
13.6850,210.6459948,-12.01164922,1229.676762
13.6900,210.4809787,-11.85665891,1229.607007
13.6950,210.3126524,-11.69894733,1229.537736
13.7000,210.1420607,-11.53961762,1229.468742
13.7050,209.9687821,-11.37885791,1229.39995
13.7100,209.7949574,-11.21780746,1229.330924
13.7150,209.6215985,-11.05808842,1229.261347
13.7200,209.4496348,-10.89924906,1229.191138
13.7250,209.2796919,-10.74244537,1229.120045
13.7300,209.1128156,-10.58927511,1229.047674
13.7350,208.9502004,-10.4391377,1228.97388
13.7400,208.7928463,-10.29259272,1228.898456
13.7450,208.6412943,-10.15095237,1228.821057
13.7500,208.498046,-10.01339903,1228.741421
13.7550,208.3622323,-9.880261488,1228.659657
13.7600,208.235051,-9.75196314,1228.575431
13.7650,208.1176558,-9.628357601,1228.488671
13.7700,208.0095109,-9.508203399,1228.399603
13.7750,207.911222,-9.391719547,1228.308193
13.7800,207.8223506,-9.278865054,1228.214465
13.7850,207.7430751,-9.169132493,1228.118554
13.7900,207.6723608,-9.062459643,1228.020744
13.7950,207.6104739,-8.958142903,1227.921094
13.8000,207.5558613,-8.856194776,1227.819956
13.8050,207.5086705,-8.755967816,1227.71755
13.8100,207.4677287,-8.656531112,1227.614119
13.8150,207.4331767,-8.557396552,1227.509765
13.8200,207.403091,-8.458677616,1227.404744
13.8250,207.3770723,-8.361036898,1227.299073
13.8300,207.3538448,-8.261608213,1227.193454
13.8350,207.3329,-8.161136495,1227.087761
13.8400,207.3127276,-8.05994394,1226.982278
