type,name,time_units,begin_time,frequency,count,units
signal_3d,"Noraxon MyoMotion-Trajectories-Radial styloid process RT","s",0.0000,200,5008,"mm"

time,x,y,z
0.0000,150.4085501,46.14846617,987.2215364
0.0050,150.4376019,46.14248849,987.2168491
0.0100,150.4666533,46.13650841,987.2121629
0.0150,150.4957044,46.13052594,987.2074779
0.0200,150.5264329,46.12412528,987.2025206
0.0250,150.5585574,46.11734091,987.1973297
0.0300,150.5917707,46.11020119,987.191946
0.0350,150.6257491,46.10272105,987.1864105
0.0400,150.6601677,46.09490414,987.180764
0.0450,150.6947167,46.08675386,987.175047
0.0500,150.7291125,46.07828154,987.1692995
0.0550,150.7631015,46.06950664,987.163561
0.0600,150.7964592,46.06045784,987.1578699
0.0650,150.8289885,46.05118039,987.1522645
0.0700,150.8605189,46.04174016,987.1467821
0.0750,150.8909067,46.03221764,987.1414568
0.0800,150.9200292,46.022699,987.1363186
0.0850,150.9477741,46.01327003,987.1313942
0.0900,150.9740348,46.00401022,987.1267075
0.0950,150.9987152,45.99498625,987.1222784
0.1000,151.0217319,45.98624807,987.1181228
0.1050,151.0430138,45.97783024,987.1142535
0.1100,151.062502,45.9697558,987.1106805
0.1150,151.0801528,45.96203605,987.1074102
0.1200,151.0959359,45.95466974,987.1044455
0.1250,151.1098342,45.94764749,987.101786
0.1300,151.1218448,45.94095654,987.0994283
0.1350,151.131983,45.93458254,987.0973657
0.1400,151.140286,45.92851375,987.0955888
0.1450,151.1468216,45.92274736,987.0940859
0.1500,151.1517005,45.91729139,987.092841
0.1550,151.1736253,45.91358216,987.0888024
0.1600,151.192969,45.9103024,987.0851084
0.1650,151.2109669,45.90817228,987.0818539
0.1700,151.2268284,45.90685382,987.0788538
0.1750,151.2429582,45.90762314,987.0758262
0.1800,151.2574493,45.91002682,987.0732486
0.1850,151.2713285,45.91383114,987.0708095
0.1900,151.2839366,45.91813945,987.0684724
0.1950,151.2955884,45.9235467,987.0663739
0.2000,151.3069031,45.93046816,987.0645207
0.2050,151.3187799,45.9385697,987.0627268
0.2100,151.3288709,45.94784764,987.0613011
0.2150,151.3394864,45.95749623,987.0596901
0.2200,151.3492765,45.9689488,987.0584636
0.2250,151.3596553,45.98169686,987.0572637
0.2300,151.370257,45.99574085,987.0561399
0.2350,151.3808897,46.01052252,987.0550774
0.2400,151.3897029,46.0262302,987.0542717
0.2450,151.3976152,46.04278662,987.0537116
0.2500,151.4045085,46.06117946,987.0534646
0.2550,151.4112214,46.0787896,987.052978
0.2600,151.4146012,46.09714469,987.0529935
0.2650,151.4171222,46.11622883,987.0533006
0.2700,151.4175862,46.13557827,987.0538132
0.2750,151.4165521,46.15480621,987.0545576
0.2800,151.4134571,46.1750827,987.0556367
0.2850,151.4080982,46.19520103,987.0568688
0.2900,151.4007605,46.21543922,987.0582944
0.2950,151.3901948,46.23540193,987.0603011
0.3000,151.3766672,46.25625743,987.0627455
0.3050,151.3608597,46.27678108,987.0656179
0.3100,151.3429652,46.29716597,987.0688278
0.3150,151.3222953,46.31704689,987.0722876
0.3200,151.2997273,46.3371494,987.0760665
0.3250,151.2770237,46.35722232,987.0799713
0.3300,151.2532221,46.3766111,987.083955
0.3350,151.2272495,46.39599002,987.0882741
0.3400,151.1995495,46.41496706,987.0929173
0.3450,151.1694062,46.43335898,987.0978776
0.3500,151.1393833,46.45056033,987.1027831
0.3550,151.1080308,46.4670628,987.1077253
0.3600,151.0765571,46.48233782,987.1126866
0.3650,151.0451414,46.496833,987.1175713
0.3700,151.0134086,46.51059802,987.1224641
0.3750,150.98059,46.52273096,987.1273014
0.3800,150.9473047,46.53429918,987.1323217
0.3850,150.913999,46.54500485,987.1373108
0.3900,150.8815195,46.55604258,987.1424004
0.3950,150.8501015,46.56545028,987.1473038
0.4000,150.8197207,46.57512456,987.1521243
0.4050,150.7908468,46.58390381,987.1567708
0.4100,150.7636096,46.59221331,987.1611989
0.4150,150.7380427,46.60128346,987.1655787
0.4200,150.7149513,46.61007103,987.1696642
0.4250,150.6926931,46.61856641,987.1736453
0.4300,150.6728305,46.62729314,987.1776168
0.4350,150.655627,46.63663038,987.1813585
0.4400,150.6398216,46.64624856,987.1852054
0.4450,150.6257542,46.65558562,987.1887829
0.4500,150.614195,46.66600298,987.1922501
0.4550,150.6055799,46.67558266,987.1953481
0.4600,150.5987933,46.68481805,987.1981111
0.4650,150.5919426,46.69401076,987.2009538
0.4700,150.5872881,46.7028021,987.2034679
0.4750,150.5822804,46.71058896,987.2059616
0.4800,150.5789802,46.71799942,987.2082366
0.4850,150.5754408,46.72480651,987.2103167
0.4900,150.5718298,46.73256442,987.2124024
0.4950,150.5684317,46.73870233,987.214131
0.5000,150.5643927,46.74574458,987.215876
0.5050,150.5598246,46.75188104,987.2173062
0.5100,150.5558705,46.75797713,987.2183884
0.5150,150.5507786,46.7643757,987.2195658
0.5200,150.5442778,46.77067816,987.2206947
0.5250,150.535628,46.77716619,987.2218596
0.5300,150.5256424,46.78395817,987.2230851
0.5350,150.5136539,46.79148752,987.2244163
0.5400,150.4997363,46.79946892,987.2257974
0.5450,150.4843074,46.80773419,987.2269892
0.5500,150.4657764,46.81629305,987.2283522
0.5550,150.443301,46.8259242,987.2300351
0.5600,150.4184835,46.83695025,987.2320534
0.5650,150.3900952,46.84870335,987.2342054
0.5700,150.3574075,46.86187911,987.236777
0.5750,150.3192933,46.87710139,987.2401474
0.5800,150.2757498,46.89392392,987.2441532
0.5850,150.2269362,46.91226461,987.2489072
0.5900,150.1725474,46.9314334,987.2544578
0.5950,150.1123477,46.95366915,987.2609253
0.6000,150.0465066,46.97664068,987.2680448
0.6050,149.974907,47.00075156,987.2760225
0.6100,149.8975119,47.02622346,987.2848506
0.6150,149.8147606,47.05307541,987.2946984
0.6200,149.7261651,47.08027041,987.3054578
0.6250,149.6309438,47.10875189,987.3174702
0.6300,149.5304272,47.13813323,987.3305162
0.6350,149.4246522,47.16731082,987.3443928
0.6400,149.3134677,47.19565157,987.3591361
0.6450,149.1978406,47.22349906,987.3746707
0.6500,149.0753913,47.25060446,987.3912891
0.6550,148.9478234,47.27675544,987.4089699
0.6600,148.8147815,47.30184451,987.4276785
0.6650,148.6763182,47.32490865,987.4473526
0.6700,148.533838,47.34817642,987.4681153
0.6750,148.388285,47.37091967,987.4897927
0.6800,148.2389162,47.39261944,987.5123798
0.6850,148.0869014,47.41431512,987.5359913
0.6900,147.9322714,47.43614955,987.5605561
0.6950,147.7749307,47.45834799,987.5859599
0.7000,147.6141596,47.48076532,987.612347
0.7050,147.4503779,47.50453213,987.6397976
0.7100,147.2843466,47.52895313,987.6679919
0.7150,147.1161245,47.55477068,987.6970522
0.7200,146.945857,47.58158381,987.7268557
0.7250,146.7743696,47.61041898,987.7574526
0.7300,146.6008328,47.64086148,987.7886692
0.7350,146.4247778,47.67136081,987.8204965
0.7400,146.2466559,47.70282192,987.8528395
0.7450,146.0673831,47.7342719,987.8856167
0.7500,145.8844414,47.76466406,987.9189832
0.7550,145.699194,47.79407765,987.9525591
0.7600,145.5112011,47.8222191,987.9864593
0.7650,145.3203351,47.84859815,988.0205264
0.7700,145.1256672,47.87242242,988.0547583
0.7750,144.92805,47.8928742,988.088898
0.7800,144.726439,47.91040689,988.1231725
0.7850,144.5225465,47.92276733,988.1569957
0.7900,144.3164564,47.93019768,988.1905752
0.7950,144.1089223,47.93279445,988.2235969
0.8000,143.9000458,47.92963641,988.2559255
0.8050,143.6904264,47.92173472,988.287608
0.8100,143.4798935,47.90883649,988.3188581
0.8150,143.2708085,47.89155175,988.3492246
0.8200,143.0618767,47.87025345,988.3790166
0.8250,142.8547154,47.84507983,988.4079902
0.8300,142.6479946,47.81510996,988.436031
0.8350,142.4430986,47.78198498,988.4631691
0.8400,142.239099,47.74633687,988.4897827
0.8450,142.0358444,47.70817097,988.5159382
0.8500,141.8340986,47.66588421,988.5410532
0.8550,141.6329589,47.62080148,988.5656353
0.8600,141.4318977,47.57336921,988.5896544
0.8650,141.2309232,47.52302594,988.6131852
0.8700,141.0296242,47.46884428,988.6362212
0.8750,140.828699,47.40948299,988.6582896
0.8800,140.6284487,47.34571293,988.6796573
0.8850,140.4280117,47.27814394,988.7004714
0.8900,140.2270847,47.20687264,988.7208334
0.8950,140.0268786,47.12931681,988.7402622
0.9000,139.8266497,47.04740212,988.7592924
0.9050,139.626508,46.96126095,988.7776879
0.9100,139.4282156,46.87046943,988.795301
0.9150,139.2312256,46.77685742,988.8124566
0.9200,139.0354806,46.6788648,988.8288895
0.9250,138.8415194,46.57747939,988.8447016
0.9300,138.6491496,46.47253291,988.8599721
0.9350,138.4587935,46.3664522,988.8751496
0.9400,138.2705251,46.25975516,988.8903055
0.9450,138.0843959,46.15174779,988.9053336
0.9500,137.9005255,46.04419524,988.9206564
0.9550,137.7187926,45.93794143,988.9361616
0.9600,137.5372543,45.83345375,988.9523651
0.9650,137.3553142,45.73131907,988.9694913
0.9700,137.1727085,45.63020929,988.9873228
0.9750,136.9864335,45.5318746,989.006527
0.9800,136.7975974,45.43738404,989.0271844
0.9850,136.6033399,45.34562506,989.0495835
0.9900,136.4026945,45.25696423,989.0738869
0.9950,136.1956266,45.17155058,989.1002189
1.0000,135.9823286,45.09019115,989.1288376
1.0050,135.761456,45.01338479,989.1598673
1.0100,135.5328969,44.94067528,989.1933949
1.0150,135.296586,44.87230426,989.2293947
1.0200,135.0526478,44.80801869,989.2677484
1.0250,134.8017794,44.74789509,989.3084077
1.0300,134.5433076,44.69235499,989.3514166
1.0350,134.2788798,44.64232781,989.3965686
1.0400,134.008053,44.59710029,989.4437716
1.0450,133.7310753,44.55673292,989.4929388
1.0500,133.4493034,44.52116271,989.5437704
1.0550,133.1601443,44.4901088,989.5967148
1.0600,132.8650024,44.46397075,989.651537
1.0650,132.563717,44.4427718,989.7082745
1.0700,132.2562517,44.42568155,989.7668962
1.0750,131.9410856,44.41245032,989.8275116
1.0800,131.6192569,44.40162647,989.8898628
1.0850,131.2889052,44.39457331,989.9544463
1.0900,130.9488548,44.38983641,990.0211432
1.0950,130.5990217,44.38802963,990.0901569
1.1000,130.2394988,44.38894107,990.1616289
1.1050,129.8708551,44.38998868,990.2350841
1.1100,129.4939389,44.3909513,990.3102744
1.1150,129.108481,44.39102288,990.387368
1.1200,128.7151938,44.38990407,990.4661379
1.1250,128.3145663,44.38709576,990.5465811
1.1300,127.9086216,44.38287495,990.6285525
1.1350,127.4958868,44.37615978,990.7121341
1.1400,127.0781565,44.36503231,990.7968676
1.1450,126.6553786,44.35035923,990.8831069
1.1500,126.2276911,44.33301072,990.9712993
1.1550,125.7940813,44.31161286,991.061246
1.1600,125.3562745,44.28612191,991.1530785
1.1650,124.9129792,44.25581444,991.2469191
1.1700,124.4646233,44.22106921,991.3430691
1.1750,124.0095745,44.18257742,991.4421119
1.1800,123.5478061,44.14015545,991.5444241
1.1850,123.0789333,44.0930584,991.6501566
1.1900,122.6030833,44.0425788,991.7597873
1.1950,122.1196992,43.9882568,991.8736209
1.2000,121.627542,43.930692,991.9923314
1.2050,121.1276323,43.86939037,992.1160503
1.2100,120.6164853,43.80480548,992.2458754
1.2150,120.0963966,43.73554028,992.3815231
1.2200,119.5666658,43.66318696,992.5236372
1.2250,119.0279822,43.5868105,992.672417
1.2300,118.4796335,43.50681297,992.8285206
1.2350,117.9223694,43.42328609,992.9921786
1.2400,117.357302,43.33665682,993.1635301
1.2450,116.7831206,43.24732239,993.3436325
1.2500,116.1988421,43.155971,993.5329738
1.2550,115.6046382,43.06185456,993.7318886
1.2600,115.0016767,42.96800231,993.9410146
1.2650,114.3883866,42.87418305,994.1608575
1.2700,113.762693,42.7824011,994.3926346
1.2750,113.1248406,42.69400674,994.6367627
1.2800,112.4735285,42.60839299,994.8936572
1.2850,111.8058748,42.52855773,995.1644789
1.2900,111.121691,42.45400046,995.4495964
1.2950,110.4173223,42.38721107,995.7500783
1.3000,109.6911912,42.32782775,996.0662325
1.3050,108.9417215,42.27739083,996.3987958
1.3100,108.1679792,42.23629435,996.7480132
1.3150,107.3683102,42.20606446,997.1143371
1.3200,106.5411619,42.18770738,997.4985174
1.3250,105.6848237,42.18158337,997.9010252
1.3300,104.7998494,42.18791683,998.321896
1.3350,103.8840183,42.20715576,998.7616278
1.3400,102.9371027,42.24068089,999.2207598
1.3450,101.9596819,42.28797942,999.6988485
1.3500,100.9509853,42.35013949,1000.196443
1.3550,99.91195235,42.42635349,1000.713443
1.3600,98.84389296,42.51799348,1001.249895
1.3650,97.74575982,42.62328924,1001.805788
1.3700,96.61828614,42.74384522,1002.381096
1.3750,95.46302476,42.8805683,1002.975731
1.3800,94.27994635,43.03340027,1003.589599
1.3850,93.06990667,43.20183874,1004.222431
1.3900,91.83516517,43.38746013,1004.874268
1.3950,90.57597196,43.58884693,1005.544816
1.4000,89.29154204,43.80589668,1006.23434
1.4050,87.98171787,44.04108065,1006.943125
1.4100,86.64697109,44.2931166,1007.6709
1.4150,85.28565667,44.56258272,1008.418133
1.4200,83.89993923,44.84909535,1009.184393
1.4250,82.48891379,45.15331122,1009.969586
1.4300,81.05265561,45.4744506,1010.77373
1.4350,79.59306889,45.81226994,1011.596625
1.4400,78.11044895,46.16789995,1012.43828
1.4450,76.6057706,46.53888719,1013.298021
1.4500,75.08030887,46.92479665,1014.175465
1.4550,73.53708401,47.32600414,1015.070365
1.4600,71.97664973,47.74090693,1015.981949
1.4650,70.40172726,48.17005805,1016.910384
1.4700,68.81424988,48.61345839,1017.854855
1.4750,67.21651009,49.06963711,1018.815171
1.4800,65.61037514,49.53676702,1019.790501
1.4850,63.99769873,50.01535587,1020.780444
1.4900,62.38063602,50.50370425,1021.784461
1.4950,60.76042153,51.00231399,1022.802401
1.5000,59.14055067,51.50925812,1023.833125
1.5050,57.5207716,52.02448679,1024.877003
1.5100,55.9034115,52.54861123,1025.933499
1.5150,54.28944661,53.08026895,1027.001528
1.5200,52.68077393,53.62000503,1028.081466
1.5250,51.07846657,54.16757556,1029.172532
1.5300,49.48435485,54.72236962,1030.273949
1.5350,47.89841194,55.28352634,1031.385619
1.5400,46.32135097,55.85114226,1032.507583
1.5450,44.75479918,56.42531833,1033.638886
1.5500,43.20037202,57.00423807,1034.778971
1.5550,41.65851025,57.58832667,1035.92792
1.5600,40.12883796,58.1750638,1037.085393
1.5650,38.61261735,58.76515904,1038.250834
1.5700,37.10947851,59.35608091,1039.424089
1.5750,35.62019474,59.94732502,1040.605038
1.5800,34.14455128,60.53867681,1041.793688
1.5850,32.68397872,61.1286746,1042.989243
1.5900,31.23730181,61.71680197,1044.19177
1.5950,29.80707684,62.30149518,1045.400578
1.6000,28.39325391,62.88249621,1046.615335
1.6050,26.99699359,63.45828093,1047.835718
1.6100,25.61619164,64.02919605,1049.062244
1.6150,24.25236307,64.59498704,1050.294614
1.6200,22.90657292,65.15406991,1051.531847
1.6250,21.57759229,65.7069619,1052.774546
1.6300,20.26677499,66.25278563,1054.022479
1.6350,18.97368882,66.79093848,1055.275268
1.6400,17.69854823,67.32050487,1056.531883
1.6450,16.44070864,67.84141357,1057.793039
1.6500,15.19973834,68.35242343,1059.058369
1.6550,13.97546585,68.85498428,1060.327765
1.6600,12.76654979,69.34561067,1061.600747
1.6650,11.57374675,69.82669674,1062.877898
1.6700,10.39481528,70.2962598,1064.159226
1.6750,9.230269633,70.75296343,1065.44456
1.6800,8.079136946,71.19649416,1066.733709
1.6850,6.940809704,71.62692426,1068.027114
1.6900,5.815611465,72.04365889,1069.323754
1.6950,4.701989353,72.4476233,1070.624785
1.7000,3.600791364,72.83802564,1071.929232
1.7050,2.512370065,73.21426727,1073.236944
1.7100,1.434861177,73.57683761,1074.54834
1.7150,0.3697299836,73.9264865,1075.862667
1.7200,-0.684152634,74.26291643,1077.179722
1.7250,-1.726482787,74.58618105,1078.499496
1.7300,-2.757669409,74.89673882,1079.821955
1.7350,-3.777294698,75.19480093,1081.146683
1.7400,-4.786201585,75.48005667,1082.473604
1.7450,-5.783537792,75.75456275,1083.802541
1.7500,-6.769570274,76.01945982,1085.13377
1.7550,-7.745051615,76.2730403,1086.467305
1.7600,-8.710113029,76.5164209,1087.803449
1.7650,-9.666031154,76.7496639,1089.141839
1.7700,-10.61365708,76.97122746,1090.482876
1.7750,-11.55233522,77.1804187,1091.825854
1.7800,-12.48435902,77.37825532,1093.171296
1.7850,-13.41093691,77.56425713,1094.519695
1.7900,-14.33317996,77.73577232,1095.870594
1.7950,-15.25117963,77.89397161,1097.224073
1.8000,-16.16667658,78.03936483,1098.58015
1.8050,-17.07894737,78.17145649,1099.937645
1.8100,-17.98790997,78.28931379,1101.296253
1.8150,-18.89372449,78.39419422,1102.656632
1.8200,-19.7974411,78.48541217,1104.018634
1.8250,-20.69722762,78.56380935,1105.381422
1.8300,-21.59391268,78.63075151,1106.745655
1.8350,-22.48601005,78.6863482,1108.110351
1.8400,-23.37379569,78.73170858,1109.475851
1.8450,-24.25658459,78.7675862,1110.842045
1.8500,-25.13422927,78.79509786,1112.20818
1.8550,-26.00599152,78.81456278,1113.57461
1.8600,-26.87215016,78.82786404,1114.941193
1.8650,-27.73109617,78.83577991,1116.3082
1.8700,-28.58070877,78.84013646,1117.674801
1.8750,-29.42090814,78.84094166,1119.040694
1.8800,-30.25153893,78.83913012,1120.405701
1.8850,-31.07139045,78.83476959,1121.769863
1.8900,-31.87983942,78.8287494,1123.132975
1.8950,-32.67681856,78.82204219,1124.49502
1.9000,-33.46359615,78.81435525,1125.856779
1.9050,-34.23908264,78.80639409,1127.217318
1.9100,-35.00212894,78.79825289,1128.575919
1.9150,-35.75348501,78.78923102,1129.932979
1.9200,-36.4944717,78.78044748,1131.288818
1.9250,-37.22352102,78.77035725,1132.64199
1.9300,-37.94036768,78.76073894,1133.992596
1.9350,-38.64613152,78.7507613,1135.340996
1.9400,-39.33988467,78.74001874,1136.687517
1.9450,-40.02203871,78.72964335,1138.031793
1.9500,-40.69252736,78.72051058,1139.373875
1.9550,-41.35161779,78.71177132,1140.714084
1.9600,-41.99777005,78.7049428,1142.0524
1.9650,-42.63195058,78.69974654,1143.38856
1.9700,-43.25237136,78.6965809,1144.723022
1.9750,-43.86013948,78.69515951,1146.055756
1.9800,-44.45470916,78.69692384,1147.387079
1.9850,-45.03531875,78.7009373,1148.717688
1.9900,-45.60429526,78.70647228,1150.048682
1.9950,-46.16108642,78.71361326,1151.379171
2.0000,-46.70552267,78.72171339,1152.71014
2.0050,-47.23902177,78.73116935,1154.041907
2.0100,-47.76151645,78.7418913,1155.374238
2.0150,-48.27153725,78.75326201,1156.706654
2.0200,-48.77048549,78.76535803,1158.040476
2.0250,-49.25844982,78.77694958,1159.375418
2.0300,-49.73565605,78.7887034,1160.711468
2.0350,-50.20459064,78.79914308,1162.049579
2.0400,-50.66399375,78.80956278,1163.388743
2.0450,-51.11567135,78.81859442,1164.729749
2.0500,-51.56053796,78.82536584,1166.071976
2.0550,-51.99773468,78.83172256,1167.415253
2.0600,-52.42793839,78.83674869,1168.759697
2.0650,-52.85093326,78.84124189,1170.105241
2.0700,-53.26684938,78.84543277,1171.452068
2.0750,-53.67749116,78.85007049,1172.800542
2.0800,-54.08150557,78.85589755,1174.149452
2.0850,-54.48096933,78.86103115,1175.499719
2.0900,-54.87534252,78.86771798,1176.850419
2.0950,-55.26564601,78.87600599,1178.202005
2.1000,-55.6512325,78.88510616,1179.554236
2.1050,-56.03407317,78.89452128,1180.908197
2.1100,-56.41425055,78.90451408,1182.264059
2.1150,-56.79305972,78.91329034,1183.621688
2.1200,-57.17117152,78.92243265,1184.981323
2.1250,-57.55014381,78.9308037,1186.343295
2.1300,-57.93073253,78.93833164,1187.707779
2.1350,-58.31312376,78.94465339,1189.075327
2.1400,-58.69773994,78.95007063,1190.445764
2.1450,-59.08397966,78.95513416,1191.81939
2.1500,-59.47215263,78.95894067,1193.19641
2.1550,-59.86226243,78.96278755,1194.576864
2.1600,-60.25327849,78.96532303,1195.960419
2.1650,-60.64579096,78.96648168,1197.347342
2.1700,-61.04147079,78.96659798,1198.73757
2.1750,-61.44001641,78.96595626,1200.131472
2.1800,-61.84037659,78.9635996,1201.528325
2.1850,-62.24307285,78.95869947,1202.927732
2.1900,-62.64736691,78.95177955,1204.330282
2.1950,-63.05311049,78.94307821,1205.736304
2.2000,-63.45975635,78.93264041,1207.145667
2.2050,-63.86672557,78.92019889,1208.557861
2.2100,-64.27396547,78.90705968,1209.973789
2.2150,-64.68090663,78.89325501,1211.393243
2.2200,-65.08657339,78.87839001,1212.816495
2.2250,-65.49085868,78.86368068,1214.243576
2.2300,-65.89516416,78.84729953,1215.675373
2.2350,-66.29745572,78.83114807,1217.111917
2.2400,-66.69786923,78.815049,1218.553495
2.2450,-67.09618127,78.79842603,1220.000301
2.2500,-67.49066008,78.78090036,1221.452713
2.2550,-67.8822807,78.762706,1222.911234
2.2600,-68.27145949,78.74287339,1224.376736
2.2650,-68.65732384,78.72049622,1225.848717
2.2700,-69.03915903,78.69711617,1227.327686
2.2750,-69.4164157,78.67316392,1228.814295
2.2800,-69.7886899,78.64714262,1230.308799
2.2850,-70.15584092,78.62077052,1231.811001
2.2900,-70.5173577,78.59270885,1233.320355
2.2950,-70.8722181,78.56303881,1234.837264
2.3000,-71.22140331,78.53241503,1236.361155
2.3050,-71.56578578,78.49893633,1237.891404
2.3100,-71.90442427,78.46391594,1239.427716
2.3150,-72.23943526,78.42573738,1240.971332
2.3200,-72.57088964,78.38497761,1242.521109
2.3250,-72.89930939,78.34179109,1244.076883
2.3300,-73.22429321,78.29613118,1245.638704
2.3350,-73.54525661,78.25039474,1247.205371
2.3400,-73.8640398,78.2038381,1248.778282
2.3450,-74.17964331,78.15656026,1250.356503
2.3500,-74.49249007,78.10814788,1251.93943
2.3550,-74.80252837,78.05896183,1253.526981
2.3600,-75.1111161,78.0094323,1255.119
2.3650,-75.41930692,77.95801397,1256.715289
2.3700,-75.72690527,77.90596382,1258.315399
2.3750,-76.03461344,77.85302985,1259.919129
2.3800,-76.34388594,77.79694322,1261.527665
2.3850,-76.65393716,77.73913375,1263.140427
2.3900,-76.96480071,77.67979889,1264.756988
2.3950,-77.27576181,77.61738924,1266.37706
2.4000,-77.58788717,77.55305646,1268.001173
2.4050,-77.90107829,77.48582172,1269.628768
2.4100,-78.21591521,77.41665053,1271.259509
2.4150,-78.5312075,77.34674146,1272.893607
2.4200,-78.84597409,77.2751056,1274.530444
2.4250,-79.16058826,77.20206862,1276.169778
2.4300,-79.47482829,77.12720172,1277.810981
2.4350,-79.78986048,77.05100913,1279.453533
2.4400,-80.1052082,76.97131818,1281.097342
2.4450,-80.4229796,76.88820801,1282.741865
2.4500,-80.74331769,76.80235052,1284.387416
2.4550,-81.06699657,76.71361633,1286.033311
2.4600,-81.39327493,76.62252505,1287.679067
2.4650,-81.72302424,76.52981065,1289.324761
2.4700,-82.0544491,76.43612492,1290.97006
2.4750,-82.38710401,76.3419526,1292.614972
2.4800,-82.7203182,76.24795851,1294.259849
2.4850,-83.0537805,76.15578947,1295.905084
2.4900,-83.38734982,76.06462707,1297.549849
2.4950,-83.72053412,75.97269578,1299.19322
2.5000,-84.05182605,75.88027482,1300.833624
2.5050,-84.38191868,75.78625393,1302.471727
2.5100,-84.71169647,75.68984235,1304.107174
2.5150,-85.04085705,75.58943987,1305.739248
2.5200,-85.36967019,75.48521661,1307.36709
2.5250,-85.69848689,75.37669654,1308.990924
2.5300,-86.02581337,75.26514254,1310.610099
2.5350,-86.35078802,75.1495733,1312.223946
2.5400,-86.67327863,75.03129097,1313.83189
2.5450,-86.99297288,74.9088441,1315.434144
2.5500,-87.31208108,74.78197992,1317.030235
2.5550,-87.62777111,74.65243182,1318.619346
2.5600,-87.9404081,74.52071702,1320.201963
2.5650,-88.24945018,74.38827761,1321.777862
2.5700,-88.55536294,74.2545168,1323.346678
2.5750,-88.85741282,74.11880542,1324.90726
2.5800,-89.155917,73.98181125,1326.460128
2.5850,-89.45073731,73.8434217,1328.004895
2.5900,-89.7419362,73.70380823,1329.541606
2.5950,-90.02952087,73.56433821,1331.06962
2.6000,-90.31267935,73.4254028,1332.589495
2.6050,-90.58898014,73.28770512,1334.100911
2.6100,-90.85858827,73.15076483,1335.603911
2.6150,-91.12097912,73.01508635,1337.097559
2.6200,-91.37550327,72.87993627,1338.581424
2.6250,-91.62115314,72.7454718,1340.056327
2.6300,-91.85888398,72.61107057,1341.521303
2.6350,-92.08798441,72.47573519,1342.976772
2.6400,-92.30757709,72.33905098,1344.42128
2.6450,-92.51945638,72.20061266,1345.855459
2.6500,-92.72201992,72.06031805,1347.279106
2.6550,-92.91761373,71.91738219,1348.693202
2.6600,-93.10472826,71.77198044,1350.096742
2.6650,-93.28425376,71.62551581,1351.490448
2.6700,-93.45606059,71.47572776,1352.874194
2.6750,-93.61815411,71.32353401,1354.247755
2.6800,-93.77115938,71.169822,1355.610651
2.6850,-93.91430693,71.01368237,1356.962194
2.6900,-94.04838865,70.85497826,1358.303528
2.6950,-94.17417422,70.69506035,1359.634333
2.7000,-94.29224978,70.53213013,1360.954087
2.7050,-94.40206736,70.36897787,1362.26372
2.7100,-94.50322134,70.20336231,1363.563282
2.7150,-94.59684162,70.0353702,1364.852447
2.7200,-94.68269076,69.86517264,1366.131616
2.7250,-94.76006252,69.69290001,1367.401668
2.7300,-94.82853432,69.5187973,1368.661856
2.7350,-94.88831097,69.34283319,1369.912866
2.7400,-94.93898977,69.16564737,1371.154853
2.7450,-94.97981625,68.98849605,1372.388438
2.7500,-95.01178588,68.81093095,1373.613782
2.7550,-95.03394845,68.63288882,1374.831689
2.7600,-95.04560678,68.45546387,1376.043252
2.7650,-95.04687278,68.27812863,1377.247844
2.7700,-95.03824669,68.09944349,1378.445936
2.7750,-95.01969345,67.91779978,1379.636518
2.7800,-94.99323724,67.73365414,1380.820397
2.7850,-94.95855641,67.54533941,1381.99651
2.7900,-94.91614241,67.35481217,1383.165381
2.7950,-94.86754699,67.16080294,1384.328236
2.8000,-94.81302455,66.9644543,1385.485235
2.8050,-94.75349267,66.76712081,1386.637589
2.8100,-94.68713392,66.56918417,1387.784245
2.8150,-94.61422841,66.37236475,1388.92569
2.8200,-94.53563816,66.17690968,1390.061786
2.8250,-94.45071492,65.98270404,1391.19316
2.8300,-94.36017208,65.79008155,1392.319619
2.8350,-94.26543731,65.5987578,1393.440812
2.8400,-94.1663356,65.40897578,1394.558017
2.8450,-94.06183461,65.22151491,1395.670678
2.8500,-93.95219924,65.03595578,1396.77892
2.8550,-93.83822381,64.85126335,1397.883356
2.8600,-93.72082224,64.66746523,1398.982988
2.8650,-93.59981486,64.48358935,1400.078942
2.8700,-93.47426915,64.29966399,1401.17061
2.8750,-93.34452987,64.11644683,1402.259268
2.8800,-93.21091609,63.93400711,1403.344592
2.8850,-93.07396483,63.75164377,1404.426289
2.8900,-92.93309746,63.57048278,1405.503796
2.8950,-92.78720863,63.38975808,1406.578464
2.9000,-92.63781477,63.20924197,1407.648715
2.9050,-92.4856347,63.03034891,1408.715168
2.9100,-92.33102466,62.85194253,1409.777323
2.9150,-92.17541813,62.6737164,1410.836418
2.9200,-92.0172602,62.49754959,1411.891924
2.9250,-91.85771524,62.32276389,1412.9433
2.9300,-91.69639351,62.14971129,1413.989933
2.9350,-91.53469765,61.97866351,1415.03215
2.9400,-91.37278489,61.80914354,1416.069665
2.9450,-91.20960882,61.64167938,1417.102169
2.9500,-91.04580855,61.47711409,1418.13005
2.9550,-90.88070751,61.31627972,1419.152836
2.9600,-90.71518074,61.15850519,1420.170661
2.9650,-90.54886216,61.00393651,1421.183548
2.9700,-90.38186967,60.85442139,1422.190344
2.9750,-90.21597663,60.70932559,1423.192161
2.9800,-90.04937524,60.56864231,1424.188784
2.9850,-89.8832043,60.4340432,1425.179921
2.9900,-89.71654786,60.30531797,1426.166003
2.9950,-89.54969182,60.1810778,1427.146705
3.0000,-89.38075866,60.06284156,1428.12197
3.0050,-89.21104965,59.94850788,1429.091074
3.0100,-89.04099236,59.83965596,1430.053688
3.0150,-88.87041145,59.73502203,1431.010019
3.0200,-88.70037587,59.63514428,1431.959771
3.0250,-88.53106126,59.53940331,1432.902573
3.0300,-88.36396545,59.44827796,1433.839011
3.0350,-88.19741936,59.36175321,1434.769245
3.0400,-88.03165459,59.28190954,1435.692848
3.0450,-87.86709242,59.20737598,1436.609387
3.0500,-87.70199874,59.13810912,1437.518547
3.0550,-87.53688942,59.07571274,1438.420027
3.0600,-87.37306132,59.02014893,1439.314655
3.0650,-87.20928165,58.97170294,1440.20155
3.0700,-87.0459529,58.93033677,1441.081108
3.0750,-86.88207176,58.89705624,1441.95441
3.0800,-86.7169922,58.87113941,1442.820859
3.0850,-86.54997724,58.85334069,1443.680536
3.0900,-86.38117144,58.84154848,1444.533547
3.0950,-86.20982494,58.83727878,1445.379333
3.1000,-86.03585141,58.83922366,1446.218223
3.1050,-85.85778364,58.84686616,1447.048586
3.1100,-85.67583113,58.85893639,1447.870941
3.1150,-85.49017261,58.8742374,1448.685812
3.1200,-85.29935091,58.89273178,1449.492883
3.1250,-85.10323649,58.91419435,1450.292034
3.1300,-84.9026924,58.93747286,1451.082879
3.1350,-84.69609744,58.96300462,1451.86551
3.1400,-84.48366279,58.98915377,1452.639762
3.1450,-84.26666824,59.01674463,1453.405457
3.1500,-84.04331982,59.04608177,1454.163151
3.1550,-83.81403348,59.07525022,1454.911859
3.1600,-83.57890725,59.10442735,1455.652415
3.1650,-83.33864526,59.13344068,1456.383825
3.1700,-83.09360621,59.16114011,1457.10689
3.1750,-82.84377277,59.18668856,1457.821115
3.1800,-82.58914499,59.21084399,1458.526684
3.1850,-82.32934082,59.23410929,1459.224513
3.1900,-82.0652852,59.25463329,1459.914827
3.1950,-81.79835448,59.27174192,1460.597053
3.2000,-81.52758065,59.28582612,1461.272056
3.2050,-81.25252416,59.29688111,1461.939914
3.2100,-80.97308661,59.30363655,1462.600706
3.2150,-80.68942015,59.30644494,1463.253282
3.2200,-80.40159667,59.30415969,1463.898245
3.2250,-80.11166756,59.29699716,1464.535383
3.2300,-79.81923717,59.28390078,1465.165923
3.2350,-79.52372345,59.26532213,1465.789454
3.2400,-79.22635527,59.24025251,1466.40639
3.2450,-78.92674191,59.21018371,1467.016564
3.2500,-78.62556323,59.17409037,1467.619872
3.2550,-78.32317891,59.13133728,1468.216265
3.2600,-78.01912962,59.08376645,1468.806193
3.2650,-77.71382096,59.03035929,1469.389141
3.2700,-77.4082065,58.9711672,1469.966604
3.2750,-77.10148174,58.90612679,1470.538108
3.2800,-76.79525188,58.83684348,1471.104113
3.2850,-76.49038989,58.76149826,1471.664546
3.2900,-76.18788631,58.68143765,1472.22
3.2950,-75.88824102,58.59752495,1472.771573
3.3000,-75.59275349,58.51007257,1473.31887
3.3050,-75.30108962,58.42023368,1473.862517
3.3100,-75.01279848,58.32827486,1474.403402
3.3150,-74.72854114,58.23652047,1474.941933
3.3200,-74.44758209,58.14437463,1475.477781
3.3250,-74.16929331,58.05414031,1476.011945
3.3300,-73.89335461,57.96554896,1476.544355
3.3350,-73.62115135,57.87981977,1477.074924
3.3400,-73.35383431,57.797077,1477.604465
3.3450,-73.08997437,57.71687726,1478.13299
3.3500,-72.82955497,57.64010189,1478.660488
3.3550,-72.57239514,57.56654904,1479.187393
3.3600,-72.31749295,57.49625623,1479.712247
3.3650,-72.06450229,57.42834039,1480.236375
3.3700,-71.81263505,57.36353984,1480.758662
3.3750,-71.56253701,57.30202502,1481.279065
3.3800,-71.31337437,57.24345564,1481.79734
3.3850,-71.06532596,57.18787533,1482.313178
3.3900,-70.81781346,57.13449945,1482.826353
3.3950,-70.57034873,57.08440826,1483.336553
3.4000,-70.32204089,57.0367807,1483.843115
3.4050,-70.07434372,56.99051829,1484.346161
3.4100,-69.82633431,56.9459726,1484.845194
3.4150,-69.57859311,56.90299261,1485.339359
3.4200,-69.33151098,56.8614571,1485.828103
3.4250,-69.08599738,56.81960159,1486.311116
3.4300,-68.84114532,56.77781108,1486.78857
3.4350,-68.5987567,56.73459808,1487.259783
3.4400,-68.35804791,56.69115133,1487.724273
3.4450,-68.11844094,56.64654651,1488.181787
3.4500,-67.88016167,56.60073873,1488.631182
3.4550,-67.64358039,56.5547945,1489.073105
3.4600,-67.40816178,56.507957,1489.507062
3.4650,-67.17339467,56.45990695,1489.932394
3.4700,-66.93980775,56.41197839,1490.349704
3.4750,-66.70782771,56.36377992,1490.759445
3.4800,-66.47701662,56.31522323,1491.160677
3.4850,-66.2466794,56.26598583,1491.553506
3.4900,-66.01624527,56.21838407,1491.937845
3.4950,-65.78520537,56.17164325,1492.314193
3.5000,-65.55318847,56.12483401,1492.681892
3.5050,-65.32092223,56.07741172,1493.041625
3.5100,-65.0877614,56.0306938,1493.393922
3.5150,-64.85346953,55.98435168,1493.739201
3.5200,-64.61886816,55.93869277,1494.077856
3.5250,-64.38193214,55.89331411,1494.410085
3.5300,-64.14292448,55.84904783,1494.735678
3.5350,-63.90186488,55.80552788,1495.055059
3.5400,-63.65844562,55.76376985,1495.368939
3.5450,-63.41275499,55.72247986,1495.678368
3.5500,-63.16452908,55.68270462,1495.983819
3.5550,-62.91413102,55.64448536,1496.285707
3.5600,-62.66130659,55.60755476,1496.584806
3.5650,-62.40624713,55.57217145,1496.881094
3.5700,-62.14885677,55.53780982,1497.175332
3.5750,-61.88954013,55.50488651,1497.468158
3.5800,-61.62823601,55.47220414,1497.759786
3.5850,-61.3633065,55.44082953,1498.051225
3.5900,-61.09611852,55.40976278,1498.342713
3.5950,-60.82567846,55.3795227,1498.634325
3.6000,-60.55366818,55.35003849,1498.927537
3.6050,-60.27998621,55.3209071,1499.222153
3.6100,-60.00480229,55.29228048,1499.5185
3.6150,-59.72830258,55.26312911,1499.817213
3.6200,-59.45062111,55.23425392,1500.118707
3.6250,-59.17352292,55.20524892,1500.422942
3.6300,-58.89585154,55.17678382,1500.731107
3.6350,-58.61863326,55.14863693,1501.043028
3.6400,-58.34086396,55.1193537,1501.358282
3.6450,-58.06393646,55.09068985,1501.67692
3.6500,-57.78815092,55.06338527,1501.99922
3.6550,-57.51454043,55.03515543,1502.325158
3.6600,-57.24355925,55.00675031,1502.654918
3.6650,-56.97536684,54.97814541,1502.987735
3.6700,-56.71148925,54.94821864,1503.323787
3.6750,-56.45081168,54.91850027,1503.662885
3.6800,-56.19463964,54.88911504,1504.0046
3.6850,-55.94292779,54.85983726,1504.349222
3.6900,-55.69591885,54.83145098,1504.6956
3.6950,-55.45256707,54.80383569,1505.043693
3.7000,-55.21496297,54.77680871,1505.39339
3.7050,-54.98155131,54.7510688,1505.74403
3.7100,-54.75372201,54.7272019,1506.095841
3.7150,-54.53046095,54.70519909,1506.447703
3.7200,-54.31262564,54.68359682,1506.800087
3.7250,-54.09963337,54.66577622,1507.15192
3.7300,-53.8910787,54.6495284,1507.502477
3.7350,-53.68692833,54.63700298,1507.85185
3.7400,-53.48794352,54.62734511,1508.199195
3.7450,-53.29315466,54.62084477,1508.544229
3.7500,-53.10373512,54.61697192,1508.887494
3.7550,-52.9184211,54.61659418,1509.227331
3.7600,-52.73683333,54.6199098,1509.563664
3.7650,-52.55905631,54.62782612,1509.896405
3.7700,-52.3855762,54.63893112,1510.225412
3.7750,-52.21617655,54.65583754,1510.550612
3.7800,-52.05015491,54.67658346,1510.871953
3.7850,-51.88780416,54.70060729,1511.188623
3.7900,-51.72827199,54.72748096,1511.500719
3.7950,-51.57193008,54.75862543,1511.808152
3.8000,-51.41861086,54.79255474,1512.110845
3.8050,-51.26849465,54.82994598,1512.408661
3.8100,-51.12146878,54.87062525,1512.701088
3.8150,-50.97745582,54.91416512,1512.988102
3.8200,-50.83692209,54.95967208,1513.270516
3.8250,-50.69897663,55.00712987,1513.547547
3.8300,-50.56422618,55.05635949,1513.819848
3.8350,-50.43254266,55.1070762,1514.087158
3.8400,-50.30279841,55.15907279,1514.34928
3.8450,-50.17521434,55.21215168,1514.605842
3.8500,-50.04970617,55.26592745,1514.857698
3.8550,-49.92645632,55.31914495,1515.104401
3.8600,-49.80620773,55.37102442,1515.346463
3.8650,-49.68909028,55.42243959,1515.583729
3.8700,-49.57481208,55.47330533,1515.816477
3.8750,-49.46351019,55.52334442,1516.044455
3.8800,-49.35606319,55.57273425,1516.2684
3.8850,-49.2536644,55.6216128,1516.488615
3.8900,-49.15447846,55.67042562,1516.704163
3.8950,-49.05998164,55.71871218,1516.915795
3.9000,-48.97004886,55.76518203,1517.123221
3.9050,-48.8842722,55.81038207,1517.326944
3.9100,-48.80410119,55.85414321,1517.526635
3.9150,-48.72900213,55.89724433,1517.722687
3.9200,-48.65967921,55.93980065,1517.91472
3.9250,-48.59575709,55.98145087,1518.103283
3.9300,-48.53721501,56.02241592,1518.287117
3.9350,-48.4837971,56.06342044,1518.466971
3.9400,-48.43566803,56.10537683,1518.64259
3.9450,-48.39313793,56.14683327,1518.814221
3.9500,-48.35697745,56.18800516,1518.98124
3.9550,-48.32510426,56.23110351,1519.143312
3.9600,-48.29832927,56.27506722,1519.300508
3.9650,-48.27702033,56.31997414,1519.452653
3.9700,-48.2594471,56.36786043,1519.598913
3.9750,-48.24582383,56.41667784,1519.738656
3.9800,-48.23633041,56.46697022,1519.871729
3.9850,-48.23015082,56.51931665,1519.997836
3.9900,-48.22762448,56.57358427,1520.116674
3.9950,-48.22988374,56.6292589,1520.228172
4.0000,-48.23597901,56.68774895,1520.331771
4.0050,-48.24649958,56.7486835,1520.42767
4.0100,-48.26152374,56.81214277,1520.515261
4.0150,-48.28052058,56.87729038,1520.594189
4.0200,-48.30293366,56.94539112,1520.664314
4.0250,-48.32917284,57.01467343,1520.726039
4.0300,-48.36007657,57.08637845,1520.77919
4.0350,-48.39493371,57.16037394,1520.823447
4.0400,-48.43400751,57.23532871,1520.858582
4.0450,-48.47702481,57.31155913,1520.884953
4.0500,-48.52448488,57.38894219,1520.901971
4.0550,-48.57570337,57.46723199,1520.910642
4.0600,-48.63134283,57.54617729,1520.910939
4.0650,-48.69023644,57.62447573,1520.903032
4.0700,-48.75311559,57.70247488,1520.886784
4.0750,-48.81947058,57.77900563,1520.861956
4.0800,-48.88991406,57.85477589,1520.829105
4.0850,-48.96443294,57.92957233,1520.788187
4.0900,-49.04379467,58.00290847,1520.739462
4.0950,-49.12682933,58.07385349,1520.683332
4.1000,-49.21458415,58.1441055,1520.620407
4.1050,-49.3064753,58.21193758,1520.550645
4.1100,-49.40338137,58.2773345,1520.474282
4.1150,-49.50419518,58.3412255,1520.391739
4.1200,-49.60872968,58.40345486,1520.302535
4.1250,-49.71745176,58.46386056,1520.20718
4.1300,-49.83007957,58.52269401,1520.106338
4.1350,-49.94689145,58.57866433,1519.999822
4.1400,-50.06870166,58.63252961,1519.887567
4.1450,-50.19564859,58.68420528,1519.770006
4.1500,-50.32826352,58.73407722,1519.64665
4.1550,-50.46532264,58.78415109,1519.51783
4.1600,-50.60693657,58.83351735,1519.382763
4.1650,-50.75225633,58.88208022,1519.242399
4.1700,-50.90040556,58.93004514,1519.096124
4.1750,-51.05308451,58.97865836,1518.943736
4.1800,-51.20997834,59.02715463,1518.784768
4.1850,-51.3704021,59.0759096,1518.61897
4.1900,-51.53616213,59.12411163,1518.447281
4.1950,-51.70562563,59.17236447,1518.269218
4.2000,-51.8788604,59.22118762,1518.084627
4.2050,-52.05620496,59.27070035,1517.893606
4.2100,-52.23646901,59.32146454,1517.695754
4.2150,-52.42074654,59.37219064,1517.491036
4.2200,-52.60891133,59.422765,1517.2807
4.2250,-52.80048182,59.47416356,1517.06347
4.2300,-52.99592984,59.52575844,1516.840656
4.2350,-53.19514318,59.57722376,1516.612001
4.2400,-53.3984696,59.62808012,1516.37785
4.2450,-53.60533676,59.6799417,1516.138099
4.2500,-53.81477338,59.73346805,1515.893631
4.2550,-54.02837885,59.78705349,1515.644127
4.2600,-54.24526247,59.84195056,1515.38988
4.2650,-54.46466929,59.8982667,1515.130933
4.2700,-54.68784907,59.95538542,1514.868267
4.2750,-54.91510504,60.01289335,1514.601722
4.2800,-55.14529466,60.07160628,1514.331769
4.2850,-55.38033689,60.12997249,1514.058082
4.2900,-55.61857789,60.1891936,1513.78132
4.2950,-55.85995428,60.24893445,1513.501011
4.3000,-56.10407633,60.30942616,1513.217503
4.3050,-56.35144909,60.37068802,1512.930949
4.3100,-56.60087557,60.43213333,1512.641311
4.3150,-56.85350941,60.49464959,1512.348913
4.3200,-57.10940002,60.55861534,1512.054383
4.3250,-57.36827854,60.62326775,1511.757095
4.3300,-57.63130284,60.68948314,1511.457588
4.3350,-57.89775974,60.75518708,1511.155973
4.3400,-58.16896146,60.82203296,1510.852992
4.3450,-58.4445277,60.89017218,1510.548654
4.3500,-58.72382548,60.95840384,1510.242528
4.3550,-59.00778604,61.02680603,1509.934845
4.3600,-59.29482949,61.0949901,1509.625454
4.3650,-59.58607937,61.16363844,1509.315103
4.3700,-59.87990809,61.23316445,1509.003223
4.3750,-60.17746952,61.30309255,1508.690008
4.3800,-60.47790976,61.37461415,1508.375427
4.3850,-60.78132689,61.44737284,1508.059588
4.3900,-61.08742905,61.52161656,1507.742425
4.3950,-61.39687177,61.59720267,1507.423258
4.4000,-61.70902344,61.67438505,1507.102242
4.4050,-62.02416357,61.75257556,1506.778685
4.4100,-62.34242559,61.83228425,1506.452665
4.4150,-62.66163562,61.9128361,1506.123239
4.4200,-62.98293296,61.99427605,1505.789904
4.4250,-63.30594216,62.07811072,1505.45326
4.4300,-63.6304654,62.16231917,1505.111932
4.4350,-63.95617937,62.24848479,1504.765822
4.4400,-64.28307554,62.33674855,1504.415035
4.4450,-64.61071802,62.42729856,1504.059262
4.4500,-64.9389921,62.52013395,1503.69826
4.4550,-65.2680531,62.61443873,1503.331799
4.4600,-65.598298,62.70980145,1502.95999
4.4650,-65.92866138,62.80797971,1502.581369
4.4700,-66.26069335,62.9072975,1502.196232
4.4750,-66.59367526,63.00802045,1501.804747
4.4800,-66.92639157,63.10938466,1501.405592
4.4850,-67.25941507,63.21260923,1500.999108
4.4900,-67.59209764,63.31592874,1500.584625
4.4950,-67.92538618,63.41855328,1500.162776
4.5000,-68.25839997,63.52171728,1499.733673
4.5050,-68.59178148,63.6247571,1499.296632
4.5100,-68.92613329,63.72650035,1498.852043
4.5150,-69.26024364,63.82806492,1498.400152
4.5200,-69.59449959,63.92994715,1497.940264
4.5250,-69.92921893,64.03080918,1497.473364
4.5300,-70.2642377,64.13007898,1496.998678
4.5350,-70.59972418,64.22854511,1496.51677
4.5400,-70.93505049,64.32542109,1496.027672
4.5450,-71.2708812,64.41991096,1495.532095
4.5500,-71.6064693,64.51188684,1495.029287
4.5550,-71.94257283,64.60018505,1494.52027
4.5600,-72.27925995,64.68627803,1494.005625
4.5650,-72.61665075,64.76961097,1493.48481
4.5700,-72.9531725,64.84927149,1492.958208
4.5750,-73.28956429,64.92736659,1492.426399
4.5800,-73.62570185,65.00252164,1491.889666
4.5850,-73.96033322,65.0758959,1491.348559
4.5900,-74.29457402,65.14648891,1490.802713
4.5950,-74.62960265,65.21456025,1490.252528
4.6000,-74.96444139,65.2798206,1489.698645
4.6050,-75.29807257,65.34352691,1489.141263
4.6100,-75.63278626,65.40545609,1488.580653
4.6150,-75.96764694,65.46619954,1488.016971
4.6200,-76.30234174,65.52604983,1487.449896
4.6250,-76.63700746,65.58538682,1486.87973
4.6300,-76.97032282,65.64388663,1486.306643
4.6350,-77.3031152,65.70302256,1485.730856
4.6400,-77.63442468,65.76288117,1485.152531
4.6450,-77.96484788,65.82273258,1484.571688
4.6500,-78.29439484,65.88533926,1483.988594
4.6550,-78.6236128,65.94975778,1483.402929
4.6600,-78.95235948,66.01734615,1482.815114
4.6650,-79.28006811,66.08806842,1482.224636
4.6700,-79.60683302,66.16269198,1481.631534
4.6750,-79.93182337,66.24079553,1481.034973
4.6800,-80.25631568,66.32200533,1480.43564
4.6850,-80.58056843,66.40717125,1479.832842
4.6900,-80.90425357,66.49641523,1479.227292
4.6950,-81.22803621,66.58953364,1478.618201
4.7000,-81.55029209,66.68608309,1478.004903
4.7050,-81.87249613,66.78697116,1477.388123
4.7100,-82.19382967,66.89154028,1476.766982
4.7150,-82.5171498,67.00014335,1476.142229
4.7200,-82.8413052,67.11247947,1475.513459
4.7250,-83.1665052,67.22798416,1474.880118
4.7300,-83.49235298,67.34763585,1474.241845
4.7350,-83.8192135,67.47138249,1473.598816
4.7400,-84.14597046,67.59917224,1472.950159
4.7450,-84.4722071,67.73078436,1472.294986
4.7500,-84.79689721,67.86617844,1471.633849
4.7550,-85.12082082,68.00504828,1470.965162
4.7600,-85.44348932,68.1492868,1470.289668
4.7650,-85.76525547,68.29624987,1469.60719
4.7700,-86.0863432,68.4483765,1468.917214
4.7750,-86.40531247,68.60453054,1468.219743
4.7800,-86.72259517,68.76523613,1467.515045
4.7850,-87.03761362,68.9286188,1466.802297
4.7900,-87.34924061,69.0973779,1466.081656
4.7950,-87.65789109,69.27075358,1465.351796
4.8000,-87.96378323,69.44765296,1464.61291
4.8050,-88.26575816,69.6278351,1463.86452
4.8100,-88.56400333,69.80998775,1463.106621
4.8150,-88.85857457,69.99370014,1462.338145
4.8200,-89.1499244,70.17741237,1461.55877
4.8250,-89.43848566,70.36171139,1460.768987
4.8300,-89.72460874,70.54647914,1459.968932
4.8350,-90.00822428,70.72963704,1459.158731
4.8400,-90.28895383,70.91129708,1458.337421
4.8450,-90.56650022,71.09116656,1457.50484
4.8500,-90.84279442,71.26747036,1456.661663
4.8550,-91.11602392,71.44302014,1455.807842
4.8600,-91.38716178,71.61481422,1454.942577
4.8650,-91.65639746,71.78367418,1454.067306
4.8700,-91.92324249,71.95159097,1453.181589
4.8750,-92.18780082,72.1167449,1452.285463
4.8800,-92.44964275,72.27981949,1451.378747
4.8850,-92.709993,72.44046183,1450.461388
4.8900,-92.96778374,72.59884189,1449.533491
4.8950,-93.22236385,72.755007,1448.595357
4.9000,-93.47645927,72.90927978,1447.647133
4.9050,-93.729417,73.06201128,1446.688302
4.9100,-93.98014401,73.21271674,1445.719587
4.9150,-94.22992187,73.36155549,1444.741641
4.9200,-94.4790223,73.50908557,1443.75466
4.9250,-94.72838549,73.65545247,1442.758755
4.9300,-94.97833785,73.80060463,1441.754354
4.9350,-95.22956686,73.94427868,1440.741537
4.9400,-95.48139963,74.08639956,1439.721543
4.9450,-95.73452318,74.227894,1438.693938
4.9500,-95.98856901,74.36702114,1437.65991
4.9550,-96.24322132,74.50475823,1436.620124
4.9600,-96.49988807,74.64086155,1435.574036
4.9650,-96.759974,74.77418096,1434.523188
4.9700,-97.02340723,74.90435378,1433.467673
4.9750,-97.29036142,75.03118097,1432.409091
4.9800,-97.56053587,75.15503533,1431.347197
4.9850,-97.83321626,75.27576227,1430.283474
4.9900,-98.10921164,75.39265362,1429.216683
4.9950,-98.38828533,75.50628838,1428.147707
5.0000,-98.6713376,75.61642314,1427.077495
5.0050,-98.9572669,75.72398754,1426.005544
5.0100,-99.24503591,75.82945252,1424.932716
5.0150,-99.53360497,75.93253106,1423.858426
5.0200,-99.82249107,76.03502288,1422.78242
5.0250,-100.1118621,76.13561325,1421.704706
5.0300,-100.4007608,76.23478618,1420.624996
5.0350,-100.6888297,76.33194929,1419.542907
5.0400,-100.9764869,76.4267417,1418.458593
5.0450,-101.2637087,76.51981527,1417.37229
5.0500,-101.5516013,76.61009354,1416.283186
5.0550,-101.8388402,76.69879057,1415.191989
5.0600,-102.1241287,76.78486183,1414.096856
5.0650,-102.4078305,76.86944671,1412.998076
5.0700,-102.6879877,76.95339153,1411.895355
5.0750,-102.9653942,77.03615463,1410.78831
5.0800,-103.2393211,77.11883544,1409.676626
5.0850,-103.5099342,77.20197435,1408.560662
5.0900,-103.7783271,77.28367766,1407.439375
5.0950,-104.0432126,77.36491805,1406.313614
5.1000,-104.3035581,77.44539705,1405.181848
5.1050,-104.5601297,77.5254968,1404.044469
5.1100,-104.8125852,77.60652689,1402.901615
5.1150,-105.0611534,77.68841457,1401.753882
5.1200,-105.3058455,77.77070682,1400.601554
5.1250,-105.545284,77.85310001,1399.442983
5.1300,-105.7797541,77.93671286,1398.278583
5.1350,-106.0085306,78.02224803,1397.107627
5.1400,-106.2321812,78.10987037,1395.930287
5.1450,-106.4512264,78.20027742,1394.747453
5.1500,-106.6629221,78.29438175,1393.557816
5.1550,-106.8686213,78.39070155,1392.360884
5.1600,-107.0689189,78.49014566,1391.156692
5.1650,-107.2635852,78.59202331,1389.944672
5.1700,-107.4530465,78.69583334,1388.725093
5.1750,-107.6372511,78.80102211,1387.497949
5.1800,-107.8171736,78.90729929,1386.263054
5.1850,-107.9912238,79.01533812,1385.020618
5.1900,-108.1604901,79.12479626,1383.771393
5.1950,-108.3241953,79.23637561,1382.514589
5.2000,-108.4817587,79.35096783,1381.250713
5.2050,-108.6332593,79.46720219,1379.979665
5.2100,-108.7790636,79.58669406,1378.701419
5.2150,-108.9179504,79.70843873,1377.415704
5.2200,-109.0501228,79.83101109,1376.122789
5.2250,-109.1755626,79.9558004,1374.823719
5.2300,-109.2940411,80.08232146,1373.51855
5.2350,-109.4057841,80.21063472,1372.20716
5.2400,-109.5105204,80.33940259,1370.889521
5.2450,-109.6096755,80.46634407,1369.565969
5.2500,-109.7020497,80.59417024,1368.23645
5.2550,-109.7885023,80.7210261,1366.900903
5.2600,-109.868767,80.84641241,1365.560555
5.2650,-109.9423909,80.97092815,1364.214232
5.2700,-110.0098186,81.09293918,1362.862049
5.2750,-110.070697,81.213607,1361.503446
5.2800,-110.1239125,81.33179386,1360.139498
5.2850,-110.1705841,81.44843726,1358.769597
5.2900,-110.2107037,81.56308971,1357.394824
5.2950,-110.2436198,81.67568623,1356.015144
5.3000,-110.2694269,81.78689998,1354.63073
5.3050,-110.2871402,81.89617345,1353.241024
5.3100,-110.2978636,82.00281841,1351.845065
5.3150,-110.302402,82.10778706,1350.443165
5.3200,-110.3000203,82.20916637,1349.035739
5.3250,-110.2903808,82.30814189,1347.622441
5.3300,-110.2751236,82.40453996,1346.2028
5.3350,-110.2528321,82.49851462,1344.776688
5.3400,-110.2235593,82.59052357,1343.343859
5.3450,-110.1871059,82.68108682,1341.903877
5.3500,-110.1428867,82.77038314,1340.456854
5.3550,-110.0910884,82.85908539,1339.002229
5.3600,-110.0332766,82.94713488,1337.541136
5.3650,-109.9696497,83.0341338,1336.072839
5.3700,-109.8995484,83.11858771,1334.596904
5.3750,-109.8231596,83.20070362,1333.114296
5.3800,-109.7414739,83.28109741,1331.624771
5.3850,-109.6526868,83.35837149,1330.127586
5.3900,-109.557013,83.43372325,1328.623662
5.3950,-109.4539566,83.50679023,1327.111333
5.4000,-109.3439227,83.5780855,1325.591638
5.4050,-109.2259271,83.64701012,1324.064529
5.4100,-109.0992347,83.71378037,1322.529156
5.4150,-108.9632109,83.77881842,1320.984407
5.4200,-108.8165527,83.84256437,1319.430723
5.4250,-108.6596914,83.90502987,1317.86904
5.4300,-108.4916117,83.96426405,1316.298317
5.4350,-108.3125887,84.02096719,1314.71828
5.4400,-108.1220588,84.07547462,1313.129522
5.4450,-107.9192114,84.12715484,1311.531318
5.4500,-107.7042593,84.17660999,1309.923546
5.4550,-107.4778192,84.22433174,1308.306693
5.4600,-107.2377572,84.26984815,1306.681044
5.4650,-106.9839679,84.31405253,1305.0464
5.4700,-106.7164387,84.35614909,1303.40187
5.4750,-106.4352406,84.39692265,1301.748145
5.4800,-106.1396248,84.43468864,1300.084796
5.4850,-105.8305492,84.4699846,1298.412538
5.4900,-105.5081422,84.50308814,1296.731313
5.4950,-105.1726664,84.53360082,1295.042457
5.5000,-104.8231,84.55993546,1293.346359
5.5050,-104.4615461,84.58188096,1291.643381
5.5100,-104.0874398,84.5996973,1289.934614
5.5150,-103.7014849,84.61326556,1288.219838
5.5200,-103.3053415,84.62226982,1286.500127
5.5250,-102.8989645,84.62604046,1284.774747
5.5300,-102.4825567,84.62494914,1283.043987
5.5350,-102.0565939,84.61849893,1281.309138
5.5400,-101.6215232,84.60733794,1279.569228
5.5450,-101.1768857,84.59301127,1277.825489
5.5500,-100.7250011,84.57321178,1276.078565
5.5550,-100.2650765,84.54963914,1274.328323
5.5600,-99.79810888,84.52251646,1272.576034
5.5650,-99.32450638,84.49148902,1270.821938
5.5700,-98.84452743,84.45720992,1269.066166
5.5750,-98.35969442,84.42055225,1267.310309
5.5800,-97.87204094,84.38091665,1265.55397
5.5850,-97.38081599,84.33817573,1263.797337
5.5900,-96.88615068,84.29365696,1262.041193
5.5950,-96.38866689,84.2483208,1260.285735
5.6000,-95.88794424,84.20225175,1258.530394
5.6050,-95.38570788,84.15516115,1256.777141
5.6100,-94.88115191,84.10925836,1255.026861
5.6150,-94.3729963,84.06329482,1253.279233
5.6200,-93.86250401,84.01741328,1251.534706
5.6250,-93.35053636,83.97141017,1249.794286
5.6300,-92.83626292,83.92447324,1248.058856
5.6350,-92.31974383,83.8782285,1246.329519
5.6400,-91.80064567,83.83058049,1244.606106
5.6450,-91.28025307,83.78104518,1242.890028
5.6500,-90.75820175,83.73008149,1241.180894
5.6550,-90.23496147,83.67616119,1239.479098
5.6600,-89.71006745,83.61864164,1237.784591
5.6650,-89.18293901,83.55718137,1236.097527
5.6700,-88.65541,83.49208487,1234.418397
5.6750,-88.12560854,83.42309904,1232.745824
5.6800,-87.59246103,83.34930047,1231.080864
5.6850,-87.05781217,83.27065905,1229.423417
5.6900,-86.51974485,83.18698861,1227.773123
5.6950,-85.97899464,83.09753595,1226.130476
5.7000,-85.43680682,83.00168074,1224.495002
5.7050,-84.89252207,82.9002973,1222.866951
5.7100,-84.34652675,82.79349258,1221.247
5.7150,-83.79855853,82.68064451,1219.634955
5.7200,-83.24823638,82.56341356,1218.029965
5.7250,-82.69638652,82.44279845,1216.432518
5.7300,-82.1434401,82.3183445,1214.842522
5.7350,-81.58815841,82.19003572,1213.259959
5.7400,-81.03034328,82.05887471,1211.685895
5.7450,-80.4690399,81.92470014,1210.119532
5.7500,-79.90522025,81.78823802,1208.561735
5.7550,-79.33832435,81.64969919,1207.011942
5.7600,-78.76829634,81.51025696,1205.469872
5.7650,-78.19486584,81.37061894,1203.935361
5.7700,-77.61808288,81.23014869,1202.408556
5.7750,-77.03676363,81.08890193,1200.88839
5.7800,-76.45246448,80.94725585,1199.375221
5.7850,-75.86463888,80.80643056,1197.868175
5.7900,-75.27329905,80.66514412,1196.367574
5.7950,-74.67969952,80.52483739,1194.873307
5.8000,-74.08273875,80.38601852,1193.383925
5.8050,-73.48307727,80.24927125,1191.900571
5.8100,-72.8795116,80.11369426,1190.421921
5.8150,-72.27320449,79.97943907,1188.949521
5.8200,-71.66174113,79.84819376,1187.481975
5.8250,-71.04653988,79.71907242,1186.020389
5.8300,-70.42648677,79.59377939,1184.564189
5.8350,-69.80237921,79.47141314,1183.11291
5.8400,-69.17346772,79.35269927,1181.666529
5.8450,-68.54086454,79.2372836,1180.224587
5.8500,-67.90262506,79.12638046,1178.786205
5.8550,-67.26020671,79.01884591,1177.351506
5.8600,-66.61308155,78.91505853,1175.91864
5.8650,-65.96248706,78.81369004,1174.488752
5.8700,-65.30825391,78.71551509,1173.06231
5.8750,-64.65031374,78.61747511,1171.639459
5.8800,-63.98790873,78.52054051,1170.220348
5.8850,-63.32245888,78.42276219,1168.805451
5.8900,-62.65313628,78.32501019,1167.394494
5.8950,-61.98078918,78.22584282,1165.988283
5.9000,-61.30615484,78.12461811,1164.587251
5.9050,-60.62796736,78.02186547,1163.190498
5.9100,-59.9471829,77.91584275,1161.798057
5.9150,-59.26470866,77.80653344,1160.409744
5.9200,-58.58021264,77.69443483,1159.025478
5.9250,-57.89303292,77.57916358,1157.644483
5.9300,-57.204011,77.46109901,1156.267199
5.9350,-56.5131857,77.33802017,1154.892666
5.9400,-55.82201843,77.21149419,1153.522498
5.9450,-55.12936049,77.0799772,1152.155652
5.9500,-54.43638616,76.94313412,1150.792719
5.9550,-53.74332014,76.80018593,1149.433837
5.9600,-53.04854313,76.65228714,1148.078176
5.9650,-52.35349972,76.50086455,1146.726997
5.9700,-51.65763936,76.3451536,1145.379696
5.9750,-50.96162733,76.18576209,1144.036428
5.9800,-50.26670195,76.02301383,1142.696971
5.9850,-49.57193173,75.85871021,1141.36112
5.9900,-48.87773279,75.69286051,1140.028358
5.9950,-48.18435571,75.52625245,1138.699392
6.0000,-47.49098824,75.36084613,1137.374095
6.0050,-46.79839532,75.19577804,1136.05253
6.0100,-46.10544138,75.03167242,1134.73396
6.0150,-45.41221704,74.86842853,1133.418618
6.0200,-44.71879428,74.70644505,1132.107845
6.0250,-44.02444647,74.5432619,1130.800769
6.0300,-43.32889405,74.38136107,1129.497352
6.0350,-42.63261772,74.22097304,1128.198133
6.0400,-41.93421442,74.0615926,1126.902036
6.0450,-41.2345203,73.90468523,1125.609754
6.0500,-40.53233057,73.74941487,1124.321261
6.0550,-39.82619832,73.59694851,1123.036503
6.0600,-39.11711041,73.44792864,1121.756181
6.0650,-38.40485413,73.3016028,1120.48031
6.0700,-37.68982758,73.15806769,1119.20897
6.0750,-36.97263742,73.01854822,1117.942817
6.0800,-36.25173339,72.88376428,1116.681776
6.0850,-35.52835477,72.7525024,1115.425135
6.0900,-34.80236973,72.62613444,1114.172719
6.0950,-34.07217302,72.50359665,1112.923673
6.1000,-33.34016607,72.38519538,1111.679336
6.1050,-32.60449044,72.27090819,1110.437894
6.1100,-31.86713887,72.15883804,1109.199452
6.1150,-31.12719586,72.05056926,1107.96393
6.1200,-30.38554003,71.94410969,1106.73136
6.1250,-29.64120996,71.8411062,1105.501776
6.1300,-28.89613974,71.7384545,1104.274812
6.1350,-28.14863092,71.63747604,1103.05051
6.1400,-27.40044176,71.53629788,1101.829418
6.1450,-26.65016837,71.43548817,1100.612236
6.1500,-25.89921977,71.33406275,1099.398909
6.1550,-25.14619048,71.23098952,1098.189073
6.1600,-24.39091559,71.12599258,1096.983405
6.1650,-23.63130798,71.0208009,1095.782021
6.1700,-22.86808434,70.91425735,1094.584465
6.1750,-22.10026719,70.80796638,1093.390971
6.1800,-21.3264315,70.70169072,1092.201302
6.1850,-20.54626881,70.59607267,1091.015909
6.1900,-19.76047802,70.48948196,1089.834646
6.1950,-18.96815047,70.38172815,1088.65733
6.2000,-18.16941283,70.27310787,1087.483835
6.2050,-17.3634707,70.16256105,1086.313833
6.2100,-16.55152324,70.05061789,1085.148024
6.2150,-15.73220462,69.93790187,1083.987069
6.2200,-14.90464838,69.82340763,1082.830363
6.2250,-14.07009384,69.70795718,1081.67855
6.2300,-13.22802688,69.59175099,1080.531567
6.2350,-12.37946624,69.47406036,1079.389248
6.2400,-11.52383178,69.35502915,1078.251356
6.2450,-10.66188457,69.23557848,1077.118387
6.2500,-9.792351606,69.11495218,1075.989359
6.2550,-8.916882514,68.99353772,1074.865639
6.2600,-8.035140568,68.87041626,1073.746803
6.2650,-7.146464356,68.74355216,1072.632571
6.2700,-6.251676565,68.613684,1071.523322
6.2750,-5.350925094,68.48034182,1070.419221
6.2800,-4.442827655,68.34304787,1069.320095
6.2850,-3.528318896,68.20052233,1068.226497
6.2900,-2.606595249,68.05317302,1067.138419
6.2950,-1.677856602,67.90106161,1066.055941
6.3000,-0.7419840039,67.74294182,1064.979825
6.3050,0.2015183766,67.57928198,1063.909712
6.3100,1.152373917,67.41039321,1062.846469
6.3150,2.110403566,67.23794901,1061.790632
6.3200,3.076548552,67.0613184,1060.741193
6.3250,4.050910861,66.88094462,1059.698592
6.3300,5.03371737,66.69784026,1058.663428
6.3350,6.025108491,66.51082206,1057.635721
6.3400,7.022357686,66.3208665,1056.616008
6.3450,8.026990894,66.12592544,1055.603737
6.3500,9.037775481,65.92787415,1054.599378
6.3550,10.05305467,65.72398763,1053.603174
6.3600,11.074559,65.51478692,1052.614426
6.3650,12.10072353,65.30071477,1051.633989
6.3700,13.13207831,65.08211615,1050.661628
6.3750,14.16686446,64.85737431,1049.697591
6.3800,15.20360669,64.62578219,1048.74218
6.3850,16.24049153,64.38814306,1047.796914
6.3900,17.27747498,64.14422764,1046.861342
6.3950,18.31209607,63.89277248,1045.936271
6.4000,19.34515481,63.63270761,1045.020326
6.4050,20.37546167,63.36539497,1044.114702
6.4100,21.40315538,63.09268169,1043.219453
6.4150,22.42671108,62.81316975,1042.334358
6.4200,23.44506102,62.52832425,1041.459964
6.4250,24.45850378,62.23627613,1040.595593
6.4300,25.46732308,61.93972269,1039.741796
6.4350,26.46905414,61.63872822,1038.898875
6.4400,27.46317513,61.33343591,1038.066709
6.4450,28.4500916,61.02385881,1037.24471
6.4500,29.42892716,60.70911343,1036.433327
6.4550,30.39895887,60.39036486,1035.632584
6.4600,31.3599821,60.06757105,1034.84259
6.4650,32.31121135,59.74083541,1034.063197
6.4700,33.25184877,59.40990693,1033.294535
6.4750,34.18281229,59.07584508,1032.535839
6.4800,35.10311982,58.73872554,1031.787165
6.4850,36.01407664,58.40016213,1031.048376
6.4900,36.91606852,58.06039199,1030.319205
6.4950,37.8096235,57.72086909,1029.599582
6.5000,38.69617575,57.38201356,1028.888711
6.5050,39.57395433,57.04518151,1028.187608
6.5100,40.44367731,56.70968684,1027.495942
6.5150,41.30654219,56.37524206,1026.812409
6.5200,42.16057337,56.04244116,1026.138285
6.5250,43.00764673,55.71096397,1025.472873
6.5300,43.84724719,55.38058233,1024.81623
6.5350,44.6803328,55.05156863,1024.168522
6.5400,45.50659061,54.72378451,1023.529672
6.5450,46.32687429,54.39614473,1022.899496
6.5500,47.14148729,54.06976415,1022.278357
6.5550,47.95158669,53.74344853,1021.665535
6.5600,48.75585629,53.41828461,1021.062077
6.5650,49.55599548,53.09359095,1020.467302
6.5700,50.3512947,52.76939149,1019.88143
6.5750,51.1424955,52.44517787,1019.304283
6.5800,51.92847574,52.12053227,1018.736302
6.5850,52.71135506,51.79583252,1018.17707
6.5900,53.48968542,51.46937053,1017.626852
6.5950,54.26611089,51.14050052,1017.084883
6.6000,55.0409517,50.81035981,1016.55152
6.6050,55.8160675,50.47916141,1016.02661
6.6100,56.59036197,50.14647166,1015.510124
6.6150,57.3651372,49.81099427,1015.00224
6.6200,58.13984789,49.47191174,1014.503029
6.6250,58.91579973,49.13111492,1014.012839
6.6300,59.69436976,48.7879866,1013.53114
6.6350,60.47494022,48.4425917,1013.058117
6.6400,61.26061352,48.09415597,1012.593122
6.6450,62.04976023,47.74293859,1012.136467
6.6500,62.84218435,47.38713091,1011.687929
6.6550,63.64000867,47.0285156,1011.246927
6.6600,64.4420226,46.66588973,1010.81369
6.6650,65.24857287,46.2993919,1010.387732
6.6700,66.05685362,45.92793973,1009.969608
6.6750,66.86761882,45.55245699,1009.559035
6.6800,67.67957376,45.17362186,1009.156143
6.6850,68.49310667,44.78964106,1008.759964
6.6900,69.3051224,44.39986525,1008.370969
6.6950,70.11529868,44.00617018,1007.988983
6.7000,70.91981146,43.60880567,1007.61486
6.7050,71.71765255,43.20709467,1007.248171
6.7100,72.50659203,42.80089193,1006.888927
6.7150,73.28571076,42.39237968,1006.537325
6.7200,74.05422852,41.98030878,1006.192621
6.7250,74.8108173,41.56760241,1005.855277
6.7300,75.55416546,41.15353422,1005.524886
6.7350,76.28470527,40.73922695,1005.20101
6.7400,77.00302752,40.3258396,1004.883305
6.7450,77.70788028,39.91256465,1004.571337
6.7500,78.39760951,39.50186043,1004.265414
6.7550,79.07241579,39.09422701,1003.965112
6.7600,79.7335307,38.69033243,1003.669824
6.7650,80.38006579,38.28990027,1003.37968
6.7700,81.01346452,37.89440502,1003.094341
6.7750,81.63324058,37.50276306,1002.813549
6.7800,82.23902859,37.115833,1002.537383
6.7850,82.83022544,36.73283987,1002.26547
6.7900,83.4075057,36.35507806,1001.998012
6.7950,83.97194532,35.98248838,1001.734673
6.8000,84.522128,35.61431935,1001.475736
6.8050,85.05870202,35.24980313,1001.220546
6.8100,85.5819999,34.88949514,1000.969343
6.8150,86.0913636,34.5331345,1000.722289
6.8200,86.58683317,34.18114541,1000.479092
6.8250,87.06901042,33.83312117,1000.239805
6.8300,87.53758129,33.48859367,1000.004434
6.8350,87.99288506,33.14767516,999.7728623
6.8400,88.43587748,32.8104692,999.5449143
6.8450,88.86587182,32.47636505,999.3207703
6.8500,89.28303392,32.14529746,999.1004912
6.8550,89.68819706,31.81816784,998.8840064
6.8600,90.08204406,31.4931053,998.6709925
6.8650,90.4651473,31.17252244,998.4616745
6.8700,90.83979145,30.85460757,998.2556348
6.8750,91.20652438,30.53987367,998.0528519
6.8800,91.56707247,30.22882094,997.8529458
6.8850,91.92214065,29.92048166,997.6557143
6.8900,92.27339774,29.61530494,997.4610545
6.8950,92.62122921,29.31326023,997.2689186
6.9000,92.96671625,29.01330745,997.079035
6.9050,93.31027247,28.71490092,996.8913773
6.9100,93.65326172,28.4178382,996.7058495
6.9150,93.99553353,28.1223076,996.5221913
6.9200,94.33796451,27.82880088,996.3406589
6.9250,94.67989453,27.53615614,996.1611867
6.9300,95.02052342,27.24565409,995.9842327
6.9350,95.36157353,26.95700954,995.8094346
6.9400,95.70137461,26.67030842,995.6371166
6.9450,96.04237948,26.38730481,995.4671
6.9500,96.38317687,26.10776014,995.2996163
6.9550,96.72419242,25.83164202,995.1347896
6.9600,97.0645752,25.56018881,994.9728882
6.9650,97.40321693,25.29149624,994.8139378
6.9700,97.74196015,25.02734643,994.6576443
6.9750,98.07944505,24.76801699,994.5044886
6.9800,98.41550478,24.5130167,994.3541242
6.9850,98.75087796,24.26363016,994.2067759
6.9900,99.08433144,24.01985643,994.0626345
6.9950,99.41606039,23.78201176,993.9217063
7.0000,99.7463405,23.55085748,993.7840048
7.0050,100.0745699,23.32598245,993.6494338
7.0100,100.4003418,23.10914249,993.5183114
7.0150,100.7224705,22.89940903,993.3906078
7.0200,101.040544,22.69774999,993.2664992
7.0250,101.3534142,22.50380519,993.1459895
7.0300,101.6599103,22.31812362,993.0294683
7.0350,101.9595227,22.13944283,992.9168623
7.0400,102.2504961,21.96899003,992.8084669
7.0450,102.5319549,21.80747114,992.7044669
7.0500,102.8051074,21.65445604,992.6045975
7.0550,103.0668701,21.51090167,992.5097126
7.0600,103.314975,21.37614645,992.4200938
7.0650,103.5509137,21.25078151,992.3354228
7.0700,103.7716624,21.13542435,992.2563094
7.0750,103.9775555,21.03130175,992.1829449
7.0800,104.168079,20.93780461,992.1152333
7.0850,104.3435923,20.85639597,992.0533375
7.0900,104.5029228,20.78556665,991.9973242
7.0950,104.6453549,20.72553492,991.9471281
7.1000,104.7723602,20.67678054,991.9025341
7.1050,104.8834902,20.63964925,991.8637847
7.1100,104.9795445,20.61318615,991.8305294
7.1150,105.0594254,20.59938203,991.8032293
7.1200,105.1237911,20.59623955,991.7816138
7.1250,105.1717172,20.60398534,991.7658858
7.1300,105.2040695,20.62254553,991.7559387
7.1350,105.2205008,20.65154619,991.7518559
7.1400,105.2206717,20.69027591,991.7536414
7.1450,105.2053767,20.73897964,991.7612938
7.1500,105.175455,20.79684465,991.774528
7.1550,105.1303101,20.86264368,991.7935277
7.1600,105.0708952,20.93693729,991.8180714
7.1650,104.9955115,21.01750662,991.8484542
7.1700,104.9042676,21.10567472,991.8848403
7.1750,104.7984861,21.1999864,991.9269288
7.1800,104.6789997,21.29974847,991.9745328
7.1850,104.5443432,21.40433069,992.028078
7.1900,104.3966635,21.51498423,992.0873154
7.1950,104.2340213,21.62932627,992.152456
7.2000,104.057401,21.74745187,992.2235001
7.2050,103.8661375,21.86892264,992.3003794
7.2100,103.6607496,21.99401565,992.3833025
7.2150,103.4429559,22.12236011,992.4721718
7.2200,103.2119521,22.25383825,992.5669063
7.2250,102.9692201,22.38974024,992.6675928
7.2300,102.7139063,22.52752101,992.7743395
7.2350,102.4465911,22.66764748,992.8870379
7.2400,102.1662572,22.81175612,993.0063872
7.2450,101.872861,22.95806489,993.1322432
7.2500,101.5672468,23.10656312,993.2646152
7.2550,101.2471551,23.25785314,993.4041058
7.2600,100.9127341,23.409792,993.5507694
7.2650,100.5637775,23.56500509,993.7050161
7.2700,100.19925,23.72326502,993.8672644
7.2750,99.8190449,23.88345915,994.0374001
7.2800,99.42307108,24.04677747,994.2161526
7.2850,99.01043981,24.2119754,994.4036733
7.2900,98.58073233,24.38028932,994.6004172
7.2950,98.13329075,24.55109801,994.8066366
7.3000,97.66792453,24.7249002,995.022548
7.3050,97.18351458,24.90212539,995.2487259
7.3100,96.68020369,25.08225856,995.4852858
7.3150,96.15872404,25.2671306,995.7324085
7.3200,95.61839559,25.45692176,995.9906688
7.3250,95.05783178,25.6516121,996.2603627
7.3300,94.4763797,25.85078451,996.5416204
7.3350,93.87384711,26.05621242,996.8348397
7.3400,93.25005062,26.26823863,997.1403844
7.3450,92.60485974,26.48750112,997.4586364
7.3500,91.93706434,26.71384283,997.7895394
7.3550,91.24759212,26.94765925,998.1330817
7.3600,90.53548038,27.1896779,998.4896428
7.3650,89.79894416,27.44089821,998.859604
7.3700,89.03942689,27.7010524,999.2428333
7.3750,88.25617406,27.97071024,999.6394047
7.3800,87.44912051,28.25115272,1000.049766
7.3850,86.61803822,28.54155639,1000.474053
7.3900,85.76296994,28.84253302,1000.912015
7.3950,84.88376481,29.15406171,1001.364089
7.4000,83.98036715,29.47726865,1001.830744
7.4050,83.05378231,29.81191458,1002.311515
7.4100,82.10440206,30.15839309,1002.806405
7.4150,81.13339297,30.51525522,1003.315257
7.4200,80.14186651,30.88396759,1003.837894
7.4250,79.13025786,31.26380036,1004.374423
7.4300,78.09886553,31.65494457,1004.924852
7.4350,77.0485136,32.05704516,1005.489183
7.4400,75.98049563,32.46853218,1006.066941
7.4450,74.89436082,32.8896897,1006.658248
7.4500,73.79043405,33.3195371,1007.263363
7.4550,72.66967626,33.75839513,1007.882201
7.4600,71.53246687,34.2055637,1008.514632
7.4650,70.38026021,34.66124205,1009.160289
7.4700,69.21342215,35.1242772,1009.819184
7.4750,68.03241816,35.59508738,1010.491332
7.4800,66.83680977,36.07376714,1011.176995
7.4850,65.6277868,36.55939326,1011.875695
7.4900,64.40452521,37.05074906,1012.587845
7.4950,63.16841581,37.54856818,1013.313342
7.5000,61.91905984,38.05230418,1014.05221
7.5050,60.65692968,38.56073488,1014.8045
7.5100,59.38193142,39.0734671,1015.570348
7.5150,58.09342122,39.59187702,1016.350206
7.5200,56.79337185,40.11392662,1017.14353
7.5250,55.4816829,40.63856929,1017.950042
7.5300,54.16128425,41.16678061,1018.769045
7.5350,52.83141179,41.6977973,1019.600893
7.5400,51.49478349,42.23053058,1020.444795
7.5450,50.15064615,42.76414162,1021.300907
7.5500,48.80040235,43.29888289,1022.168808
7.5550,47.44551906,43.83270119,1023.048019
7.5600,46.08625674,44.36817071,1023.938767
7.5650,44.72429897,44.90252104,1024.840288
7.5700,43.36083582,45.43644801,1025.752221
7.5750,41.99701275,45.96988942,1026.674141
7.5800,40.63446193,46.50119894,1027.605141
7.5850,39.27353773,47.03131607,1028.545796
7.5900,37.91594125,47.56019584,1029.495417
7.5950,36.56194689,48.08726639,1030.454002
7.6000,35.21351767,48.61172811,1031.421445
7.6050,33.87020126,49.13316611,1032.39812
7.6100,32.53270159,49.65194447,1033.383627
7.6150,31.20132686,50.16584688,1034.378148
7.6200,29.87551991,50.67626327,1035.381859
7.6250,28.55848719,51.18231409,1036.394196
7.6300,27.25001802,51.68476198,1037.41543
7.6350,25.95063524,52.18198726,1038.445868
7.6400,24.66126912,52.6748039,1039.485152
7.6450,23.38245682,53.16266593,1040.532893
7.6500,22.11567706,53.64606017,1041.589369
7.6550,20.86127485,54.12495509,1042.654518
7.6600,19.62034526,54.6007546,1043.727888
7.6650,18.39364031,55.07263705,1044.809322
7.6700,17.18135599,55.54237462,1045.898589
7.6750,15.9829116,56.0078357,1046.995585
7.6800,14.80009897,56.46954764,1048.0994
7.6850,13.63255909,56.92855949,1049.20986
7.6900,12.48102873,57.38514971,1050.326776
7.6950,11.34583731,57.83907124,1051.449484
7.7000,10.22600289,58.29037097,1052.578027
7.7050,9.120720025,58.73873077,1053.71254
7.7100,8.030787676,59.18445841,1054.852482
7.7150,6.955077696,59.62764792,1055.997692
7.7200,5.893505441,60.06941715,1057.148863
7.7250,4.845764699,60.50909462,1058.305254
7.7300,3.812075656,60.94657218,1059.4662
7.7350,2.791318589,61.3811235,1060.632181
7.7400,1.782893108,61.81460222,1061.803836
7.7450,0.7870660269,62.24625492,1062.980789
7.7500,-0.1971444329,62.67630814,1064.163068
7.7550,-1.169678229,63.10450433,1065.351074
7.7600,-2.131130509,63.53021055,1066.545011
7.7650,-3.082294344,63.95411839,1067.74571
7.7700,-4.024368946,64.37603989,1068.952894
7.7750,-4.958698628,64.79580073,1070.167017
7.7800,-5.885556064,65.21401596,1071.387945
7.7850,-6.805549356,65.62973848,1072.616562
7.7900,-7.720025096,66.04295396,1073.852334
7.7950,-8.629295111,66.45572332,1075.095999
7.8000,-9.534689578,66.86626414,1076.347028
7.8050,-10.436321,67.27673755,1077.605345
7.8100,-11.33594482,67.68563105,1078.871977
7.8150,-12.23344404,68.09143643,1080.146154
7.8200,-13.13134638,68.49533348,1081.428756
7.8250,-14.03038049,68.89660764,1082.71989
7.8300,-14.93136644,69.29497068,1084.020052
7.8350,-15.83550446,69.69020085,1085.32939
7.8400,-16.74309088,70.08069645,1086.647881
7.8450,-17.65535256,70.46720459,1087.975907
7.8500,-18.57125473,70.84914222,1089.313265
7.8550,-19.4927088,71.22621585,1090.660405
7.8600,-20.41837634,71.59733173,1092.0164
7.8650,-21.34802538,71.96244264,1093.381643
7.8700,-22.28129551,72.32038054,1094.75634
7.8750,-23.21818884,72.67002108,1096.140597
7.8800,-24.15967632,73.01216958,1097.535323
7.8850,-25.10425309,73.3457832,1098.939037
7.8900,-26.05176379,73.67052065,1100.352549
7.8950,-27.00138696,73.98678422,1101.77557
7.9000,-27.95299598,74.29572482,1103.207378
7.9050,-28.90445245,74.59747929,1104.647272
7.9100,-29.85610621,74.89228755,1106.095845
7.9150,-30.80685945,75.18043011,1107.55226
7.9200,-31.75620923,75.46157863,1109.015885
7.9250,-32.7047435,75.7358122,1110.486745
7.9300,-33.65073998,76.00370088,1111.964444
7.9350,-34.59557235,76.26742012,1113.448932
7.9400,-35.53832021,76.52448093,1114.939254
7.9450,-36.479083,76.77733098,1116.436002
7.9500,-37.41850553,77.02597939,1117.939132
7.9550,-38.35652971,77.27108823,1119.447921
7.9600,-39.2924541,77.51291358,1120.96264
7.9650,-40.22565993,77.75192533,1122.482653
7.9700,-41.15613498,77.98782786,1124.00847
7.9750,-42.08357114,78.22198438,1125.540207
7.9800,-43.00832868,78.45362385,1127.078081
7.9850,-43.92973421,78.68384416,1128.621792
7.9900,-44.84774855,78.91206473,1130.171059
7.9950,-45.76264389,79.14008707,1131.726451
8.0000,-46.67359752,79.36668693,1133.287296
8.0050,-47.57889836,79.59307305,1134.853799
8.0100,-48.47966153,79.82016028,1136.426245
8.0150,-49.37515109,80.0482926,1138.004748
8.0200,-50.2651127,80.27641172,1139.588533
8.0250,-51.14910313,80.50628995,1141.177885
8.0300,-52.02649074,80.73804567,1142.77363
8.0350,-52.89728505,80.97250471,1144.375007
8.0400,-53.76171245,81.20841262,1145.982418
8.0450,-54.61890863,81.44626152,1147.595241
8.0500,-55.46905661,81.68575537,1149.213411
8.0550,-56.31414737,81.92628608,1150.836209
8.0600,-57.15285695,82.16901402,1152.464991
8.0650,-57.98643962,82.41321097,1154.098537
8.0700,-58.81379736,82.65805201,1155.736925
8.0750,-59.63589207,82.90238126,1157.380044
8.0800,-60.45145041,83.14645782,1159.027767
8.0850,-61.26041738,83.39179124,1160.679348
8.0900,-62.06404326,83.63689496,1162.335453
8.0950,-62.86071112,83.88193749,1163.995681
8.1000,-63.65090322,84.12657769,1165.659821
8.1050,-64.43426702,84.37095765,1167.328615
8.1100,-65.20988944,84.6147954,1168.999923
8.1150,-65.97855104,84.85836986,1170.674039
8.1200,-66.73945762,85.10096954,1172.350926
8.1250,-67.49211422,85.34242965,1174.030365
8.1300,-68.23670134,85.5828259,1175.712612
8.1350,-68.97152171,85.82341256,1177.397205
8.1400,-69.6964252,86.06294797,1179.08308
8.1450,-70.41025543,86.3038135,1180.77104
8.1500,-71.1134139,86.54689287,1182.461142
8.1550,-71.80448461,86.79150835,1184.15283
8.1600,-72.48330044,87.03686368,1185.846003
8.1650,-73.14994541,87.28388343,1187.541292
8.1700,-73.80450434,87.53193152,1189.237531
8.1750,-74.4463513,87.78259971,1190.935232
8.1800,-75.07560387,88.03389639,1192.633665
8.1850,-75.6923445,88.28686658,1194.333463
8.1900,-76.29635081,88.54133559,1196.033911
8.1950,-76.88798287,88.79680564,1197.734836
8.2000,-77.46824539,89.05144211,1199.436644
8.2050,-78.03794647,89.30416688,1201.139614
8.2100,-78.59652235,89.55528724,1202.84288
8.2150,-79.14515728,89.80491258,1204.546368
8.2200,-79.68320643,90.05167384,1206.250188
8.2250,-80.21085106,90.29647635,1207.954131
8.2300,-80.72830391,90.53840809,1209.658241
8.2350,-81.23604764,90.77624843,1211.360992
8.2400,-81.73557601,91.01077091,1213.06273
8.2450,-82.22771297,91.23991001,1214.763232
8.2500,-82.71224487,91.46516776,1216.462546
8.2550,-83.18906554,91.68571249,1218.160667
8.2600,-83.65917177,91.90177319,1219.857086
8.2650,-84.12258729,92.11172261,1221.551266
8.2700,-84.57895051,92.31609115,1223.242948
8.2750,-85.02872192,92.51512798,1224.931835
8.2800,-85.47138043,92.70978481,1226.618018
8.2850,-85.90752943,92.89804813,1228.301601
8.2900,-86.33735622,93.08007663,1229.982931
8.2950,-86.76126261,93.25608985,1231.661773
8.3000,-87.17919521,93.42683066,1233.338503
8.3050,-87.59188021,93.5920095,1235.013115
8.3100,-87.99849687,93.75060056,1236.685295
8.3150,-88.39828685,93.90336199,1238.355212
8.3200,-88.79197356,94.05070956,1240.023334
8.3250,-89.1785725,94.19211458,1241.689027
8.3300,-89.55913725,94.32621074,1243.351916
8.3350,-89.93282508,94.45323944,1245.012693
8.3400,-90.30089379,94.57345886,1246.67115
8.3450,-90.66348567,94.68530563,1248.327033
8.3500,-91.0209574,94.78997054,1249.98097
8.3550,-91.37192521,94.88766105,1251.632947
8.3600,-91.71825921,94.9779395,1253.281887
8.3650,-92.05840168,95.0603477,1254.928594
8.3700,-92.39265686,95.13667831,1256.572657
8.3750,-92.72119489,95.20767715,1258.214749
8.3800,-93.04478437,95.2716802,1259.854564
8.3850,-93.36252121,95.32962182,1261.491898
8.3900,-93.67436136,95.38173945,1263.127197
8.3950,-93.98218453,95.42701112,1264.759771
8.4000,-94.28461561,95.46689849,1266.390374
8.4050,-94.58230608,95.500241,1268.019521
8.4100,-94.87512638,95.52947156,1269.647278
8.4150,-95.16296674,95.55422852,1271.27421
8.4200,-95.44515474,95.5756871,1272.900486
8.4250,-95.72213736,95.59455866,1274.526491
8.4300,-95.99384337,95.6089635,1276.151284
8.4350,-96.26022491,95.62010742,1277.775501
8.4400,-96.52136476,95.62940667,1279.400552
8.4450,-96.77766888,95.63499857,1281.024859
8.4500,-97.02972197,95.63580183,1282.648652
8.4550,-97.27678188,95.63345627,1284.271474
8.4600,-97.51990195,95.62702567,1285.893658
8.4650,-97.7592715,95.61744711,1287.514844
8.4700,-97.99455869,95.60619508,1289.136406
8.4750,-98.22719027,95.59093489,1290.757269
8.4800,-98.45624116,95.57462196,1292.377903
8.4850,-98.68318029,95.55517471,1293.998771
8.4900,-98.90792251,95.53320455,1295.618744
8.4950,-99.13076593,95.50924296,1297.238292
8.5000,-99.35144829,95.48455271,1298.85741
8.5050,-99.56964537,95.46144701,1300.475522
8.5100,-99.7853164,95.43845138,1302.092749
8.5150,-99.99913374,95.41479361,1303.708718
8.5200,-100.2121962,95.39112936,1305.323513
8.5250,-100.4248013,95.36858016,1306.937206
8.5300,-100.6369416,95.34723189,1308.548644
8.5350,-100.8486247,95.32716404,1310.159435
8.5400,-101.0605684,95.30820269,1311.769591
8.5450,-101.2716982,95.29167641,1313.378655
8.5500,-101.4834629,95.27612794,1314.98479
8.5550,-101.6946552,95.26248233,1316.587965
8.5600,-101.9047082,95.25048941,1318.188886
8.5650,-102.1141481,95.24187565,1319.787673
8.5700,-102.3233745,95.23554355,1321.383364
8.5750,-102.530639,95.2322055,1322.976066
8.5800,-102.7375971,95.23165328,1324.564472
8.5850,-102.9438584,95.23422484,1326.147737
8.5900,-103.1496122,95.24083574,1327.726505
8.5950,-103.3547762,95.24873328,1329.300404
8.6000,-103.5589204,95.25964474,1330.868877
8.6050,-103.7624132,95.27265041,1332.431993
8.6100,-103.9655166,95.28904705,1333.989825
8.6150,-104.1692557,95.3073153,1335.543057
8.6200,-104.3720275,95.32966699,1337.09053
8.6250,-104.5730302,95.35457057,1338.63298
8.6300,-104.771926,95.38276327,1340.171228
8.6350,-104.9691531,95.41462062,1341.704271
8.6400,-105.1619918,95.45094958,1343.23127
8.6450,-105.3505083,95.49267863,1344.752883
8.6500,-105.5338715,95.5397954,1346.269118
8.6550,-105.7117379,95.59216395,1347.779556
8.6600,-105.8833904,95.64953294,1349.284945
8.6650,-106.0484111,95.71239772,1350.78408
8.6700,-106.2072576,95.77874431,1352.277512
8.6750,-106.3587384,95.84999908,1353.765196
8.6800,-106.5021613,95.92522879,1355.247229
8.6850,-106.6376313,96.00420472,1356.72394
8.6900,-106.7648586,96.08716188,1358.195022
8.6950,-106.8827475,96.17399587,1359.660732
8.7000,-106.9901269,96.26539857,1361.121123
8.7050,-107.0867799,96.36063677,1362.574961
8.7100,-107.1727067,96.45790319,1364.023084
8.7150,-107.2470822,96.55815344,1365.466738
8.7200,-107.3104568,96.66063102,1366.904644
8.7250,-107.362247,96.76333602,1368.33601
8.7300,-107.4034356,96.86684198,1369.76227
8.7350,-107.4351378,96.96938128,1371.182592
8.7400,-107.4585827,97.07089726,1372.596803
8.7450,-107.4731283,97.17009623,1374.005639
8.7500,-107.479021,97.26655726,1375.409103
8.7550,-107.4761133,97.3595939,1376.807403
8.7600,-107.4648615,97.45080011,1378.200341
8.7650,-107.4448769,97.53735136,1379.588428
8.7700,-107.4166936,97.61759246,1380.969755
8.7750,-107.3806331,97.69203124,1382.345674
8.7800,-107.3375659,97.75909516,1383.715463
8.7850,-107.2888935,97.81895074,1385.07944
8.7900,-107.234025,97.87131522,1386.437155
8.7950,-107.1730684,97.91608551,1387.789505
8.8000,-107.1056966,97.95371594,1389.136765
8.8050,-107.0331705,97.98288027,1390.479194
8.8100,-106.9551034,98.00416491,1391.817029
8.8150,-106.8699154,98.01890706,1393.150727
8.8200,-106.7765849,98.02643656,1394.479233
8.8250,-106.6751173,98.02505163,1395.803353
8.8300,-106.5650932,98.01487821,1397.124466
8.8350,-106.4454184,97.99656398,1398.441555
8.8400,-106.314649,97.971219,1399.754595
8.8450,-106.1734245,97.93672716,1401.063929
8.8500,-106.0202637,97.8934196,1402.370073
8.8550,-105.8565814,97.84063029,1403.673159
8.8600,-105.6828343,97.77682683,1404.972002
8.8650,-105.4990664,97.70120144,1406.266834
8.8700,-105.306348,97.61227923,1407.557514
8.8750,-105.1062087,97.50958921,1408.844208
8.8800,-104.8981807,97.39202734,1410.127405
8.8850,-104.6826532,97.25904565,1411.407033
8.8900,-104.4616002,97.1100093,1412.682571
8.8950,-104.2340977,96.94793613,1413.953655
8.9000,-104.0008688,96.77081878,1415.221192
8.9050,-103.7627626,96.58152547,1416.485704
8.9100,-103.5196264,96.37860234,1417.746595
8.9150,-103.2713668,96.16480384,1419.001589
8.9200,-103.0199699,95.93842131,1420.251264
8.9250,-102.7679088,95.70188688,1421.497457
8.9300,-102.5128679,95.4570625,1422.740171
8.9350,-102.2545264,95.20647604,1423.979802
8.9400,-101.9917675,94.9507489,1425.216735
8.9450,-101.725043,94.69132368,1426.451613
8.9500,-101.4540714,94.42853062,1427.684026
8.9550,-101.1780936,94.16448987,1428.913974
8.9600,-100.8969028,93.89946995,1430.141918
8.9650,-100.6112443,93.63288748,1431.367899
8.9700,-100.3197649,93.36569368,1432.591672
8.9750,-100.0207317,93.09771309,1433.813582
8.9800,-99.7146458,92.83076082,1435.034321
8.9850,-99.40254467,92.5628174,1436.253831
8.9900,-99.08275473,92.29503702,1437.471629
8.9950,-98.75445048,92.02640662,1438.688136
9.0000,-98.41895662,91.7568631,1439.903787
9.0050,-98.0757394,91.48705142,1441.118697
9.0100,-97.72441166,91.21702014,1442.333097
9.0150,-97.36468996,90.94478647,1443.545436
9.0200,-96.99769531,90.66931397,1444.75616
9.0250,-96.62307261,90.39283064,1445.966753
9.0300,-96.24066204,90.11424712,1447.175701
9.0350,-95.84857845,89.8331303,1448.383277
9.0400,-95.44762938,89.54868386,1449.588787
9.0450,-95.03724791,89.26036146,1450.791522
9.0500,-94.61720303,88.96803429,1451.992029
9.0550,-94.18860552,88.67162236,1453.189891
9.0600,-93.75101444,88.36912368,1454.384107
9.0650,-93.30489461,88.0617066,1455.574191
9.0700,-92.85099233,87.74928305,1456.760743
9.0750,-92.38882702,87.43132368,1457.942657
9.0800,-91.91917558,87.10832649,1459.119758
9.0850,-91.44108221,86.77974041,1460.290639
9.0900,-90.95622131,86.44370794,1461.455679
9.0950,-90.46603023,86.09940067,1462.613766
9.1000,-89.97202777,85.74617117,1463.764535
9.1050,-89.47382133,85.38345971,1464.907739
9.1100,-88.97341317,85.01090886,1466.042653
9.1150,-88.47360489,84.62820261,1467.168969
9.1200,-87.9744841,84.23633785,1468.288196
9.1250,-87.47699418,83.83624015,1469.39905
9.1300,-86.98234467,83.42836616,1470.500405
9.1350,-86.49087905,83.01424576,1471.592634
9.1400,-86.0036228,82.59406862,1472.675458
9.1450,-85.52073928,82.17022616,1473.748827
9.1500,-85.04188268,81.7437328,1474.812567
9.1550,-84.56790099,81.31636086,1475.866568
9.1600,-84.09866218,80.89015566,1476.910518
9.1650,-83.63391387,80.46672453,1477.944666
9.1700,-83.17323069,80.04752709,1478.969507
9.1750,-82.71550897,79.63488583,1479.984583
9.1800,-82.26108482,79.2294171,1480.990274
9.1850,-81.80967702,78.83308971,1481.986707
9.1900,-81.35944901,78.44756496,1482.972793
9.1950,-80.90985687,78.07368648,1483.949473
9.2000,-80.46038896,77.71346508,1484.916477
9.2050,-80.01105643,77.36593137,1485.873349
9.2100,-79.5602147,77.03341278,1486.820249
9.2150,-79.10870699,76.71475113,1487.758525
9.2200,-78.65409711,76.4116865,1488.688821
9.2250,-78.19778566,76.12428364,1489.610463
9.2300,-77.74143251,75.85242025,1490.523216
9.2350,-77.28345469,75.59614373,1491.427246
9.2400,-76.82456572,75.35474557,1492.323867
9.2450,-76.364359,75.12750399,1493.212302
9.2500,-75.90272484,74.9131905,1494.092822
9.2550,-75.44003644,74.7113348,1494.966007
9.2600,-74.97674446,74.52135988,1495.831553
9.2650,-74.51268032,74.34251241,1496.690671
9.2700,-74.04879895,74.17314403,1497.543401
9.2750,-73.58652232,74.01243918,1498.389907
9.2800,-73.12632011,73.85874556,1499.229738
9.2850,-72.66798518,73.71227184,1500.063597
9.2900,-72.21227016,73.5722902,1500.891809
9.2950,-71.76012983,73.43781756,1501.71532
9.3000,-71.31092013,73.30741643,1502.532135
9.3050,-70.86647741,73.18054743,1503.343535
9.3100,-70.4268913,73.05628477,1504.148992
9.3150,-69.99286631,72.9345493,1504.949187
9.3200,-69.56301855,72.81527854,1505.743826
9.3250,-69.13854481,72.69694349,1506.532692
9.3300,-68.71764213,72.58089698,1507.317068
9.3350,-68.30293292,72.46546342,1508.096676
9.3400,-67.89302636,72.35067438,1508.871556
9.3450,-67.48845726,72.2373412,1509.642299
9.3500,-67.09063323,72.12537258,1510.407448
9.3550,-66.69884511,72.01371061,1511.166704
9.3600,-66.31316246,71.90413097,1511.921352
9.3650,-65.93278115,71.79621678,1512.670129
9.3700,-65.55885802,71.68787517,1513.412869
9.3750,-65.19146017,71.58005376,1514.149204
9.3800,-64.83035141,71.47271074,1514.87815
9.3850,-64.47669368,71.36569418,1515.600195
9.3900,-64.12996139,71.25923476,1516.314623
9.3950,-63.78912277,71.15344429,1517.020878
9.4000,-63.45378862,71.04785905,1517.71806
9.4050,-63.12420403,70.94406911,1518.406047
9.4100,-62.79963558,70.84243346,1519.084896
9.4150,-62.47832521,70.74206375,1519.754007
9.4200,-62.16094195,70.64362447,1520.41231
9.4250,-61.84680947,70.54695819,1521.059867
9.4300,-61.53622718,70.45233685,1521.697031
9.4350,-61.22919054,70.35869346,1522.322728
9.4400,-60.92435233,70.26716233,1522.937475
9.4450,-60.62085346,70.17845496,1523.540706
9.4500,-60.31804304,70.09423373,1524.132
9.4550,-60.013902,70.01160805,1524.710171
9.4600,-59.7092902,69.93139516,1525.276234
9.4650,-59.40285957,69.85296072,1525.829263
9.4700,-59.09399574,69.77811375,1526.369327
9.4750,-58.78316885,69.70541424,1526.896777
9.4800,-58.46883482,69.63679605,1527.411295
9.4850,-58.15061272,69.57181406,1527.913296
9.4900,-57.82849204,69.50984106,1528.40324
9.4950,-57.50241372,69.44987011,1528.880958
9.5000,-57.17322298,69.39153002,1529.346111
9.5050,-56.84064273,69.3356577,1529.798888
9.5100,-56.50546054,69.28119678,1530.240096
9.5150,-56.16786548,69.22884878,1530.670445
9.5200,-55.82920588,69.17731634,1531.089846
9.5250,-55.48821963,69.12602357,1531.498006
9.5300,-55.14481805,69.07520603,1531.895353
9.5350,-54.7996325,69.02385447,1532.282302
9.5400,-54.45382476,68.97219246,1532.658611
9.5450,-54.10747873,68.92000094,1533.025374
9.5500,-53.76176845,68.86812399,1533.383469
9.5550,-53.41712834,68.81370669,1533.732675
9.5600,-53.07358535,68.75794928,1534.074282
9.5650,-52.73084645,68.70033663,1534.407664
9.5700,-52.38932596,68.64191365,1534.733248
9.5750,-52.04920824,68.58189117,1535.051407
9.5800,-51.71134892,68.52013888,1535.362818
9.5850,-51.37516911,68.45702552,1535.66787
9.5900,-51.04105007,68.39235097,1535.967038
9.5950,-50.70908563,68.32669697,1536.260391
9.6000,-50.38029316,68.25921732,1536.54987
9.6050,-50.05349236,68.18975152,1536.834826
9.6100,-49.72876644,68.11848177,1537.116082
9.6150,-49.40618812,68.04675045,1537.394529
9.6200,-49.08693991,67.97310151,1537.67051
9.6250,-48.76981006,67.89857796,1537.944372
9.6300,-48.45729937,67.82246913,1538.216014
9.6350,-48.14772125,67.74633037,1538.485353
9.6400,-47.84129065,67.66986249,1538.753514
9.6450,-47.53915884,67.59132789,1539.020059
9.6500,-47.23938763,67.51215388,1539.285726
9.6550,-46.94235681,67.43296562,1539.550921
9.6600,-46.64845058,67.35252506,1539.81508
9.6650,-46.35836474,67.27094293,1540.078729
9.6700,-46.07117907,67.18893619,1540.34207
9.6750,-45.78674885,67.10669668,1540.604863
9.6800,-45.50534369,67.02296994,1540.867716
9.6850,-45.226273,66.93794478,1541.130032
9.6900,-44.95092461,66.85184147,1541.392122
9.6950,-44.68041653,66.764816,1541.653783
9.7000,-44.41529785,66.67671704,1541.91539
9.7050,-44.1568979,66.58783054,1542.176589
9.7100,-43.90630293,66.4978434,1542.437396
9.7150,-43.66400987,66.40920657,1542.697602
9.7200,-43.43188407,66.32210974,1542.957614
9.7250,-43.210381,66.23699485,1543.217116
9.7300,-42.99923449,66.1542483,1543.475471
9.7350,-42.79837463,66.07589797,1543.73275
9.7400,-42.60865086,66.00146097,1543.988245
9.7450,-42.43110823,65.93105873,1544.241451
9.7500,-42.26605784,65.86471058,1544.492385
9.7550,-42.1136399,65.80465649,1544.741251
9.7600,-41.97346573,65.75030842,1544.986514
9.7650,-41.84478636,65.70271625,1545.2282
9.7700,-41.72875886,65.66127055,1545.46512
9.7750,-41.62450551,65.62773735,1545.696786
9.7800,-41.53250785,65.60041309,1545.922484
9.7850,-41.4522392,65.57928421,1546.140862
9.7900,-41.38342752,65.56528004,1546.351812
9.7950,-41.32709937,65.5568837,1546.55432
9.8000,-41.28238282,65.55551278,1546.748174
9.8050,-41.24826315,65.5605905,1546.931931
9.8100,-41.22526648,65.57234404,1547.105359
9.8150,-41.21198407,65.59048094,1547.267039
9.8200,-41.20757305,65.61520777,1547.416885
9.8250,-41.21192336,65.64584718,1547.55373
9.8300,-41.2251313,65.68237863,1547.677381
9.8350,-41.24739889,65.72574581,1547.788022
9.8400,-41.27890155,65.77497756,1547.885792
9.8450,-41.32031433,65.82963318,1547.970416
9.8500,-41.37008693,65.88933351,1548.04076
9.8550,-41.42782829,65.95590466,1548.097235
9.8600,-41.49475146,66.02875137,1548.139536
9.8650,-41.57016285,66.10799378,1548.1677
9.8700,-41.65348157,66.19236602,1548.181872
9.8750,-41.74535763,66.28101629,1548.181669
9.8800,-41.84403527,66.37350438,1548.167243
9.8850,-41.94976677,66.46989712,1548.137844
9.8900,-42.06286834,66.5685064,1548.093664
9.8950,-42.18217656,66.66908842,1548.034044
9.9000,-42.30744991,66.77217323,1547.95867
9.9050,-42.43897623,66.87623197,1547.868178
9.9100,-42.57586579,66.98177396,1547.762484
9.9150,-42.71938452,67.08704244,1547.641064
9.9200,-42.86782805,67.19415345,1547.504905
9.9250,-43.02300993,67.30032817,1547.353469
9.9300,-43.18289361,67.4070405,1547.186921
9.9350,-43.34892752,67.51286606,1547.006227
9.9400,-43.5208164,67.61699578,1546.810559
9.9450,-43.6980559,67.72215042,1546.6003
9.9500,-43.88290606,67.82534251,1546.375637
9.9550,-44.0746346,67.9274222,1546.136993
9.9600,-44.27293847,68.02910782,1545.884572
9.9650,-44.4792415,68.12942315,1545.619537
9.9700,-44.69246344,68.23015993,1545.342006
9.9750,-44.91390828,68.32926669,1545.052414
9.9800,-45.1427626,68.4281615,1544.750943
9.9850,-45.38005053,68.52718333,1544.438719
9.9900,-45.62435899,68.62633083,1544.115982
9.9950,-45.87639658,68.72672606,1543.783322
10.0000,-46.13576956,68.82752106,1543.440554
10.0050,-46.40316722,68.92738221,1543.088152
10.0100,-46.67713189,69.02827918,1542.726045
10.0150,-46.95915188,69.12829933,1542.354719
10.0200,-47.2472009,69.2274101,1541.973731
10.0250,-47.54178018,69.32656326,1541.583768
10.0300,-47.8426725,69.42721185,1541.185484
10.0350,-48.15080745,69.52868471,1540.779498
10.0400,-48.46498927,69.63225456,1540.365731
10.0450,-48.78445738,69.7394808,1539.944875
10.0500,-49.1094153,69.84934847,1539.516625
10.0550,-49.4405147,69.96306905,1539.082002
10.0600,-49.77666755,70.08060658,1538.640671
10.0650,-50.11933135,70.20215054,1538.192928
10.0700,-50.4672003,70.32811146,1537.739151
10.0750,-50.82117432,70.45660064,1537.279101
10.0800,-51.18039136,70.58918947,1536.812959
10.0850,-51.54555267,70.72637084,1536.341617
10.0900,-51.91686698,70.86659948,1535.865023
10.0950,-52.29499049,71.01249261,1535.38414
10.1000,-52.67948766,71.16333456,1534.899077
10.1050,-53.07005111,71.31853396,1534.410184
10.1100,-53.46726943,71.47765811,1533.917707
10.1150,-53.86948254,71.64164135,1533.421897
10.1200,-54.27782787,71.8099901,1532.922238
10.1250,-54.69182464,71.98384712,1532.420222
10.1300,-55.11058224,72.16271582,1531.915301
10.1350,-55.53562389,72.34460601,1531.407821
10.1400,-55.96660913,72.52948368,1530.897282
10.1450,-56.40377007,72.71937711,1530.383958
10.1500,-56.84744843,72.91369618,1529.868228
10.1550,-57.29840698,73.11219869,1529.350845
10.1600,-57.75652463,73.31393972,1528.831479
10.1650,-58.22105803,73.51908278,1528.310121
10.1700,-58.69188247,73.72839411,1527.786608
10.1750,-59.16920774,73.94220226,1527.261867
10.1800,-59.6524316,74.16055264,1526.734657
10.1850,-60.14152492,74.38420548,1526.205437
10.1900,-60.63455722,74.61321647,1525.673697
10.1950,-61.13257668,74.84785071,1525.139376
10.2000,-61.63500177,75.08760723,1524.601902
10.2050,-62.14076251,75.3333793,1524.060331
10.2100,-62.65139405,75.58406142,1523.51444
10.2150,-63.16509807,75.84027832,1522.963942
10.2200,-63.68249263,76.09916743,1522.407764
10.2250,-64.2041547,76.36228279,1521.845645
10.2300,-64.73019887,76.62720472,1521.277597
10.2350,-65.25960955,76.895975,1520.702782
10.2400,-65.79282965,77.16947711,1520.121226
10.2450,-66.32956005,77.44630035,1519.5321
10.2500,-66.86805291,77.72775469,1518.934775
10.2550,-67.40900204,78.01299553,1518.328716
10.2600,-67.95200039,78.30091813,1517.713042
10.2650,-68.49554662,78.59373463,1517.086683
10.2700,-69.04014896,78.88836775,1516.449543
10.2750,-69.58471896,79.18754712,1515.801536
10.2800,-70.13101736,79.48888288,1515.141714
10.2850,-70.67810845,79.79332656,1514.469972
10.2900,-71.22705289,80.10116459,1513.785738
10.2950,-71.77719816,80.41108109,1513.088035
10.3000,-72.32824341,80.72424843,1512.377767
10.3050,-72.87819328,81.04127723,1511.653547
10.3100,-73.42804331,81.36235431,1510.915156
10.3150,-73.97654072,81.68730259,1510.162677
10.3200,-74.52339344,82.01736252,1509.395449
10.3250,-75.0690581,82.3516976,1508.612929
10.3300,-75.61322,82.69030462,1507.813965
10.3350,-76.1543811,83.03306963,1506.997066
10.3400,-76.69321595,83.37858231,1506.162972
10.3450,-77.22944959,83.72634912,1505.310666
10.3500,-77.76363405,84.07633308,1504.440711
10.3550,-78.2952732,84.42812524,1503.551844
10.3600,-78.82485346,84.78245602,1502.644942
10.3650,-79.35272761,85.13846669,1501.719383
10.3700,-79.8779236,85.49664766,1500.775887
10.3750,-80.40034664,85.85783373,1499.814
10.3800,-80.91971347,86.22192294,1498.834213
10.3850,-81.43630623,86.58833285,1497.836425
10.3900,-81.94938132,86.95782593,1496.820133
10.3950,-82.45831155,87.330395,1495.78552
10.4000,-82.96368656,87.70446663,1494.733047
10.4050,-83.46626384,88.08068022,1493.662875
10.4100,-83.96512123,88.45874581,1492.575144
10.4150,-84.46242663,88.83668797,1491.470494
10.4200,-84.95619258,89.21610173,1490.349659
10.4250,-85.44613549,89.59550472,1489.212344
10.4300,-85.93336757,89.97555573,1488.058975
10.4350,-86.41660655,90.3555369,1486.889274
10.4400,-86.89577445,90.73663632,1485.70442
10.4450,-87.36902823,91.11675192,1484.504585
10.4500,-87.83644172,91.49619833,1483.290659
10.4550,-88.29838264,91.87429773,1482.06173
10.4600,-88.75398067,92.25158975,1480.819037
10.4650,-89.20449743,92.62705285,1479.562918
10.4700,-89.64917936,93.00109047,1478.293999
10.4750,-90.08650634,93.37306243,1477.011884
10.4800,-90.51721154,93.74230584,1475.717696
10.4850,-90.94086343,94.1067629,1474.41192
10.4900,-91.35810798,94.466764,1473.094577
10.4950,-91.76840975,94.82080159,1471.766382
10.5000,-92.17247497,95.1682797,1470.428806
10.5050,-92.57051204,95.50726161,1469.082613
10.5100,-92.96140984,95.83890452,1467.728216
10.5150,-93.34577346,96.16168352,1466.366405
10.5200,-93.72265842,96.4770954,1464.997747
10.5250,-94.09176165,96.78374953,1463.623255
10.5300,-94.45387556,97.08254262,1462.243618
10.5350,-94.80925293,97.36918111,1460.858335
10.5400,-95.15842513,97.64434034,1459.468616
10.5450,-95.5016616,97.90750564,1458.075643
10.5500,-95.84019458,98.15841053,1456.679806
10.5550,-96.17420115,98.39670641,1455.281825
10.5600,-96.50458055,98.62276454,1453.882683
10.5650,-96.831901,98.83433557,1452.483056
10.5700,-97.15702895,99.03310605,1451.082905
10.5750,-97.48022192,99.21865429,1449.682817
10.5800,-97.8010044,99.39158851,1448.283009
10.5850,-98.11949503,99.55148591,1446.883527
10.5900,-98.43625927,99.69880854,1445.485008
10.5950,-98.75178339,99.83462234,1444.088601
10.6000,-99.06583405,99.9589977,1442.693471
10.6050,-99.37912104,100.0727724,1441.299565
10.6100,-99.69130041,100.1751611,1439.907915
10.6150,-100.0023304,100.2695751,1438.517527
10.6200,-100.3116152,100.355031,1437.128503
10.6250,-100.6190565,100.4329138,1435.741382
10.6300,-100.924239,100.503065,1434.355091
10.6350,-101.2276856,100.5671201,1432.970654
10.6400,-101.5296494,100.6257259,1431.585915
10.6450,-101.8312948,100.6798168,1430.201615
10.6500,-102.1313272,100.7298571,1428.816144
10.6550,-102.4304134,100.7766439,1427.430628
10.6600,-102.7269018,100.8208134,1426.043954
10.6650,-103.0212871,100.8649739,1424.656407
10.6700,-103.3145947,100.9076017,1423.266514
10.6750,-103.6057431,100.9497292,1421.874909
10.6800,-103.8954201,100.9928907,1420.481016
10.6850,-104.1823772,101.0373815,1419.083929
10.6900,-104.4680215,101.0853641,1417.683826
10.6950,-104.7517195,101.135704,1416.280066
10.7000,-105.0328797,101.1905906,1414.871108
10.7050,-105.311311,101.2500625,1413.456733
10.7100,-105.5862286,101.3151565,1412.036391
10.7150,-105.855453,101.3872836,1410.609179
10.7200,-106.1212726,101.4654337,1409.174511
10.7250,-106.3828451,101.5497396,1407.73127
10.7300,-106.6398952,101.638997,1406.278534
10.7350,-106.8919335,101.7343156,1404.817042
10.7400,-107.1381851,101.8358761,1403.345558
10.7450,-107.3800053,101.9429373,1401.863451
10.7500,-107.6163472,102.055161,1400.369855
10.7550,-107.8470654,102.1726877,1398.865318
10.7600,-108.0716206,102.2946803,1397.3477
10.7650,-108.2896526,102.4210351,1395.817278
10.7700,-108.501923,102.5516494,1394.273856
10.7750,-108.7082178,102.686592,1392.716959
10.7800,-108.9093014,102.8244565,1391.145935
10.7850,-109.1049533,102.965754,1389.560574
10.7900,-109.2960555,103.1086245,1387.960129
10.7950,-109.4820757,103.2535886,1386.345495
10.8000,-109.6622771,103.3992663,1384.715052
10.8050,-109.8375358,103.5461654,1383.069874
10.8100,-110.007087,103.6932077,1381.410171
10.8150,-110.171134,103.8391942,1379.735354
10.8200,-110.3299274,103.9850103,1378.04562
10.8250,-110.4807729,104.1321791,1376.341596
10.8300,-110.6245345,104.2789928,1374.623582
10.8350,-110.7603381,104.4279904,1372.89249
10.8400,-110.8876558,104.5775019,1371.147683
10.8450,-111.0062757,104.7266639,1369.390096
10.8500,-111.1156274,104.8753263,1367.620026
10.8550,-111.2145986,105.0233108,1365.838034
10.8600,-111.3026447,105.1705587,1364.043956
10.8650,-111.3786453,105.3170984,1362.23814
10.8700,-111.4421092,105.4615127,1360.421617
10.8750,-111.4942255,105.6019867,1358.593777
10.8800,-111.5341588,105.7398721,1356.75655
10.8850,-111.5633489,105.8727955,1354.910007
10.8900,-111.5818486,105.9999002,1353.054911
10.8950,-111.5898115,106.1210636,1351.191134
10.9000,-111.5890117,106.2361036,1349.31893
10.9050,-111.5797499,106.3439331,1347.440251
10.9100,-111.5623328,106.4447595,1345.554068
10.9150,-111.5371906,106.5373401,1343.662187
10.9200,-111.505186,106.6242054,1341.763659
10.9250,-111.4658732,106.7041915,1339.857956
10.9300,-111.4200895,106.7783211,1337.946303
10.9350,-111.3678704,106.8474031,1336.02804
10.9400,-111.3083081,106.9120967,1334.104028
10.9450,-111.240586,106.9721849,1332.173725
10.9500,-111.1650979,107.0289981,1330.239014
10.9550,-111.0811377,107.0839334,1328.298344
10.9600,-110.9913127,107.136831,1326.352158
10.9650,-110.8946758,107.1871291,1324.400983
10.9700,-110.7914858,107.236906,1322.444502
10.9750,-110.681852,107.2876443,1320.482365
10.9800,-110.5658322,107.3387153,1318.513381
10.9850,-110.4430493,107.3914625,1316.538755
10.9900,-110.313076,107.4449962,1314.557673
10.9950,-110.1753513,107.5003376,1312.569941
11.0000,-110.0305587,107.5572409,1310.576004
11.0050,-109.8788053,107.615885,1308.575179
11.0100,-109.7207642,107.6748093,1306.566723
11.0150,-109.5572264,107.7341572,1304.55078
11.0200,-109.3857475,107.7946478,1302.525737
11.0250,-109.206414,107.8559185,1300.490833
11.0300,-109.0181156,107.9199455,1298.447509
11.0350,-108.8199152,107.986748,1296.394919
11.0400,-108.6119193,108.0561468,1294.332904
11.0450,-108.3940713,108.1273008,1292.261348
11.0500,-108.1669309,108.2010014,1290.180076
11.0550,-107.9296977,108.2762038,1288.088898
11.0600,-107.6824715,108.3542586,1285.988006
11.0650,-107.4261228,108.4340472,1283.877047
11.0700,-107.1589231,108.5155169,1281.754571
11.0750,-106.8823585,108.5971241,1279.620987
11.0800,-106.5944847,108.6794361,1277.476152
11.0850,-106.2953145,108.7621635,1275.319607
11.0900,-105.9850067,108.8443092,1273.152135
11.0950,-105.6634814,108.9264106,1270.97247
11.1000,-105.3307247,109.008771,1268.781509
11.1050,-104.9850232,109.0920236,1266.578843
11.1100,-104.6258302,109.174551,1264.365077
11.1150,-104.251954,109.2585068,1262.141772
11.1200,-103.8633142,109.3406388,1259.909386
11.1250,-103.4594885,109.4199372,1257.667982
11.1300,-103.039568,109.4970062,1255.417525
11.1350,-102.6030958,109.5720409,1253.159942
11.1400,-102.1477667,109.6442537,1250.895105
11.1450,-101.6724811,109.714702,1248.622589
11.1500,-101.1768544,109.7822498,1246.344332
11.1550,-100.6582596,109.847253,1244.060214
11.1600,-100.1170304,109.9085837,1241.771689
11.1650,-99.55244449,109.9654108,1239.479612
11.1700,-98.96356752,110.0175343,1237.183993
11.1750,-98.34959823,110.063135,1234.887185
11.1800,-97.71214652,110.1011019,1232.589334
11.1850,-97.04986243,110.1320367,1230.290332
11.1900,-96.36341537,110.1555915,1227.991755
11.1950,-95.65295565,110.1709227,1225.693528
11.2000,-94.91841854,110.177076,1223.396945
11.2050,-94.16095075,110.1737346,1221.101643
11.2100,-93.3805715,110.1598989,1218.808655
11.2150,-92.5776057,110.1339279,1216.51752
11.2200,-91.75446328,110.0948648,1214.230324
11.2250,-90.91135006,110.0426613,1211.948052
11.2300,-90.04948368,109.9759465,1209.670699
11.2350,-89.16999229,109.8937144,1207.399597
11.2400,-88.27427678,109.795719,1205.135312
11.2450,-87.36338987,109.6831987,1202.879452
11.2500,-86.43929136,109.5548302,1200.632146
11.2550,-85.50338682,109.4094618,1198.394592
11.2600,-84.55585664,109.2490808,1196.167792
11.2650,-83.59778123,109.0734036,1193.951672
11.2700,-82.63072435,108.8834044,1191.747492
11.2750,-81.65503472,108.6785308,1189.555785
11.2800,-80.67225655,108.4588691,1187.377462
11.2850,-79.68266259,108.2244046,1185.212146
11.2900,-78.6854254,107.9765132,1183.060233
11.2950,-77.68145581,107.7144833,1180.922307
11.3000,-76.67067607,107.4389311,1178.798241
11.3050,-75.65309386,107.1507828,1176.689325
11.3100,-74.62891493,106.850805,1174.595987
11.3150,-73.59897016,106.5379739,1172.518202
11.3200,-72.56539479,106.2118771,1170.457886
11.3250,-71.52885829,105.8743296,1168.416117
11.3300,-70.49151163,105.52409,1166.39223
11.3350,-69.45366675,105.1608425,1164.385651
11.3400,-68.41636741,104.784568,1162.397111
11.3450,-67.37937051,104.3975022,1160.426866
11.3500,-66.34274057,104.0001003,1158.474262
11.3550,-65.30678516,103.5942439,1156.539657
11.3600,-64.27111951,103.1802882,1154.624068
11.3650,-63.23446774,102.7603322,1152.727237
11.3700,-62.19882818,102.3339358,1150.850173
11.3750,-61.16398291,101.90247,1148.991976
11.3800,-60.1302275,101.4666009,1147.152384
11.3850,-59.0988495,101.0265372,1145.332709
11.3900,-58.06895766,100.5839423,1143.532983
11.3950,-57.04191967,100.1378784,1141.753864
11.4000,-56.01770527,99.69028828,1139.996346
11.4050,-54.99758667,99.24069249,1138.259944
11.4100,-53.98152347,98.7907085,1136.544355
11.4150,-52.96957279,98.34013811,1134.849237
11.4200,-51.96129408,97.89065246,1133.174281
11.4250,-50.95742323,97.44425781,1131.519673
11.4300,-49.9556714,97.00092044,1129.884499
11.4350,-48.95569236,96.56176853,1128.267866
11.4400,-47.95853343,96.12784874,1126.670613
11.4450,-46.96307463,95.69998185,1125.092882
11.4500,-45.96800039,95.27928058,1123.533629
11.4550,-44.9753333,94.86647244,1121.993419
11.4600,-43.98416346,94.46090695,1120.471681
11.4650,-42.99509096,94.06339955,1118.967927
11.4700,-42.00962543,93.67395344,1117.482535
11.4750,-41.02796492,93.29331349,1116.014294
11.4800,-40.0507483,92.92122153,1114.563694
11.4850,-39.07810749,92.55770057,1113.130952
11.4900,-38.10991726,92.20263311,1111.714987
11.4950,-37.14878565,91.85725785,1110.317148
11.5000,-36.1932399,91.52089147,1108.935753
11.5050,-35.24415771,91.19414851,1107.570679
11.5100,-34.30215777,90.87693658,1106.220527
11.5150,-33.36740918,90.56975661,1104.884245
11.5200,-32.43913625,90.27160252,1103.560913
11.5250,-31.51673394,89.98335293,1102.249442
11.5300,-30.6011466,89.70611141,1100.950989
11.5350,-29.69237197,89.4397073,1099.66462
11.5400,-28.79131878,89.18399383,1098.390102
11.5450,-27.89930067,88.93879806,1097.127129
11.5500,-27.01637964,88.70523747,1095.87574
11.5550,-26.14412954,88.4831562,1094.635407
11.5600,-25.28219506,88.27233314,1093.405333
11.5650,-24.43161927,88.07406157,1092.186004
11.5700,-23.59183381,87.88830546,1090.977622
11.5750,-22.76241621,87.71586988,1089.779198
11.5800,-21.94316334,87.55730389,1088.590741
11.5850,-21.13502863,87.41230145,1087.411843
11.5900,-20.33811797,87.28049969,1086.242179
11.5950,-19.55178674,87.1615303,1085.080761
11.6000,-18.77556118,87.0562304,1083.928002
11.6050,-18.01010995,86.96228456,1082.782711
11.6100,-17.25451127,86.88065328,1081.645083
11.6150,-16.50885239,86.80998994,1080.514992
11.6200,-15.77252995,86.74978634,1079.39228
11.6250,-15.0443679,86.699935,1078.276706
11.6300,-14.32383547,86.65933856,1077.168589
11.6350,-13.61006347,86.62825609,1076.068183
11.6400,-12.90064973,86.60629556,1074.975221
11.6450,-12.19536491,86.59225456,1073.890013
11.6500,-11.49279672,86.58442252,1072.812896
11.6550,-10.79099148,86.58135098,1071.744199
11.6600,-10.09017061,86.58158369,1070.684315
11.6650,-9.389035978,86.58387454,1069.633305
11.6700,-8.68737966,86.58579642,1068.591956
11.6750,-7.983180102,86.58601098,1067.560583
11.6800,-7.276688984,86.58346712,1066.540249
11.6850,-6.567711034,86.57647057,1065.531156
11.6900,-5.855745165,86.56391317,1064.533618
11.6950,-5.140289357,86.54525163,1063.547907
11.7000,-4.421193388,86.51911776,1062.573925
11.7050,-3.697140343,86.48617144,1061.612024
11.7100,-2.968569675,86.44448685,1060.66184
11.7150,-2.235049853,86.39354388,1059.723082
11.7200,-1.495995451,86.33214172,1058.795121
11.7250,-0.7517059609,86.25820796,1057.877611
11.7300,-0.002775544228,86.17131861,1056.970639
11.7350,0.7498892458,86.06977943,1056.073867
11.7400,1.50745667,85.95436599,1055.186483
11.7450,2.268982481,85.82283611,1054.308022
11.7500,3.032943812,85.67537182,1053.438673
11.7550,3.797832512,85.51180048,1052.578424
11.7600,4.56244589,85.33346932,1051.727538
11.7650,5.325615167,85.14048152,1050.886088
11.7700,6.088532067,84.93351332,1050.053256
11.7750,6.85012758,84.71401283,1049.229385
11.7800,7.610964486,84.48289288,1048.413855
11.7850,8.36926643,84.24100875,1047.606368
11.7900,9.126445735,83.98865831,1046.806017
11.7950,9.883638229,83.72521959,1046.011919
11.8000,10.63934365,83.45158065,1045.224406
11.8050,11.39426297,83.16776391,1044.443134
11.8100,12.14868959,82.87373049,1043.668124
11.8150,12.90265037,82.56981433,1042.899665
11.8200,13.65603195,82.25756313,1042.137944
11.8250,14.40766628,81.93737417,1041.383354
11.8300,15.15836202,81.60952063,1040.635329
11.8350,15.90827936,81.27534291,1039.894147
11.8400,16.65918306,80.93714469,1039.159749
11.8450,17.4121031,80.59323927,1038.431719
11.8500,18.16756184,80.24515731,1037.710008
11.8550,18.92681846,79.89472797,1036.994882
11.8600,19.68993981,79.54178042,1036.286637
11.8650,20.45802613,79.18643296,1035.585069
11.8700,21.23130512,78.82900325,1034.889664
11.8750,22.00986931,78.46861868,1034.20037
11.8800,22.79253441,78.10607221,1033.518069
11.8850,23.58017943,77.74168403,1032.842531
11.8900,24.37153792,77.37464297,1032.174345
11.8950,25.16590699,77.00581867,1031.514074
11.9000,25.96168149,76.6346048,1030.862209
11.9050,26.75814436,76.26196011,1030.219484
11.9100,27.55368119,75.88640214,1029.58609
11.9150,28.35023568,75.50832736,1028.961596
11.9200,29.14656313,75.12656971,1028.34604
11.9250,29.94118269,74.74113368,1027.739842
11.9300,30.73500426,74.3528176,1027.142878
11.9350,31.52714998,73.96042549,1026.554996
11.9400,32.31591759,73.56240458,1025.97632
11.9450,33.10269755,73.15936908,1025.406493
11.9500,33.88685946,72.75219397,1024.845682
11.9550,34.66958048,72.34063232,1024.293387
11.9600,35.45029779,71.92511905,1023.749505
11.9650,36.22837142,71.50505022,1023.213891
11.9700,37.00405505,71.08056849,1022.686126
11.9750,37.77575226,70.65131494,1022.166351
11.9800,38.54302575,70.21730371,1021.654439
11.9850,39.30588757,69.77907322,1021.150062
11.9900,40.06420063,69.33644056,1020.653112
11.9950,40.8178307,68.88860548,1020.163381
12.0000,41.56641236,68.43547247,1019.680452
12.0050,42.30981734,67.97667512,1019.204145
12.0100,43.04807663,67.51276337,1018.734532
12.0150,43.78167764,67.04223377,1018.270796
12.0200,44.50832858,66.56655417,1017.813826
12.0250,45.23018619,66.0865318,1017.362978
12.0300,45.94593553,65.60116102,1016.918037
12.0350,46.65790099,65.11219528,1016.478538
12.0400,47.3651469,64.61883899,1016.044518
12.0450,48.0667929,64.12298399,1015.616257
12.0500,48.76546403,63.62357074,1015.192559
12.0550,49.46173661,63.12130884,1014.773199
12.0600,50.15633245,62.61698589,1014.358156
12.0650,50.8504719,62.11042037,1013.946612
12.0700,51.542347,61.60224996,1013.539253
12.0750,52.23371155,61.09212515,1013.135308
12.0800,52.92367096,60.57967371,1012.734875
12.0850,53.61434356,60.06603996,1012.337629
12.0900,54.30307455,59.55150498,1011.944316
12.0950,54.99059251,59.0368177,1011.554706
12.1000,55.67721733,58.52207647,1011.168692
12.1050,56.36244998,58.00770616,1010.78647
12.1100,57.0450872,57.49553093,1010.408679
12.1150,57.72515608,56.98576207,1010.035141
12.1200,58.40342268,56.47835512,1009.665674
12.1250,59.08080182,55.97388565,1009.300202
12.1300,59.7564928,55.47268847,1008.938985
12.1350,60.43125572,54.97528998,1008.581948
12.1400,61.10465613,54.48029517,1008.228895
12.1450,61.77682938,53.99021118,1007.88008
12.1500,62.4491503,53.50484749,1007.53507
12.1550,63.12248699,53.02391004,1007.193676
12.1600,63.79662985,52.5469336,1006.855784
12.1650,64.4730368,52.07490402,1006.520901
12.1700,65.1516237,51.60768063,1006.189125
12.1750,65.83204107,51.14466058,1005.860285
12.1800,66.51658128,50.68667526,1005.533974
12.1850,67.20559225,50.23286799,1005.209746
12.1900,67.89839425,49.78448612,1004.887807
12.1950,68.5954512,49.34087936,1004.567897
12.2000,69.29728165,48.90136217,1004.249718
12.2050,70.00597526,48.46559987,1003.932543
12.2100,70.72129436,48.03498932,1003.616601
12.2150,71.44235137,47.60901892,1003.302
12.2200,72.16986905,47.18806663,1002.988603
12.2250,72.90388523,46.77164156,1002.676319
12.2300,73.64330713,46.35839866,1002.365315
12.2350,74.38913157,45.94789743,1002.055288
12.2400,75.14176982,45.54188822,1001.746507
12.2450,75.90019758,45.13930823,1001.439148
12.2500,76.66442343,44.73974031,1001.133315
12.2550,77.4324325,44.34273239,1000.82949
12.2600,78.20513668,43.9482174,1000.527508
12.2650,78.98085624,43.5549898,1000.227785
12.2700,79.7597385,43.16374834,999.9304895
12.2750,80.54384884,42.77515552,999.6352974
12.2800,81.33197302,42.38910228,999.3425116
12.2850,82.12427567,42.00519527,999.0520997
12.2900,82.92002813,41.62421586,998.7642258
12.2950,83.7192536,41.24535171,998.4786745
12.3000,84.52030473,40.86857294,998.1959319
12.3050,85.32225989,40.49342087,997.9159811
12.3100,86.12446521,40.11979511,997.6389382
12.3150,86.92428843,39.74810123,997.3653705
12.3200,87.72248996,39.37826725,997.0950181
12.3250,88.51588592,39.00956497,996.828365
12.3300,89.30588916,38.64428769,996.5653545
12.3350,90.08999126,38.27945707,996.3060721
12.3400,90.86708574,37.91610219,996.050785
12.3450,91.63725638,37.55393642,995.7993954
12.3500,92.39699748,37.19248212,995.5524878
12.3550,93.14640699,36.83253629,995.3100908
12.3600,93.88414725,36.47160113,995.0719983
12.3650,94.60834531,36.11058157,994.8388305
12.3700,95.3194063,35.74845153,994.6101812
12.3750,96.01549227,35.3848846,994.3862965
12.3800,96.69672515,35.02014798,994.1671387
12.3850,97.36135825,34.65212349,993.9528877
12.3900,98.01126549,34.28221082,993.7431994
12.3950,98.64576261,33.9085291,993.5379522
12.4000,99.26367282,33.53139405,993.3373391
12.4050,99.86604899,33.14980739,993.1409537
12.4100,100.4534737,32.76298408,992.9486136
12.4150,101.0247698,32.37076616,992.7605759
12.4200,101.5805123,31.97268483,992.5766
12.4250,102.1196955,31.56756104,992.3966037
12.4300,102.6418777,31.1556871,992.2206068
12.4350,103.1469734,30.73652844,992.0486022
12.4400,103.6345715,30.31039366,991.880558
12.4450,104.1051946,29.87674548,991.7163061
12.4500,104.5585971,29.43599629,991.555778
12.4550,104.9937773,28.98760033,991.3990113
12.4600,105.4125494,28.53352805,991.2457558
12.4650,105.814081,28.07344545,991.0960502
12.4700,106.1995083,27.60902756,990.9498178
12.4750,106.5697248,27.14109087,990.8068764
12.4800,106.9244125,26.66951557,990.6671661
12.4850,107.2637152,26.19544221,990.5308943
12.4900,107.5893862,25.71815093,990.3975999
12.4950,107.9018242,25.23904788,990.2672618
12.5000,108.2018408,24.75805454,990.1396817
12.5050,108.4888335,24.27710055,990.0151859
12.5100,108.7653336,23.79567221,989.8932053
12.5150,109.031295,23.31535404,989.773977
12.5200,109.2891008,22.83794557,989.6570005
12.5250,109.5400845,22.36498703,989.5424281
12.5300,109.7848538,21.89700499,989.4300169
12.5350,110.0242515,21.43551475,989.3198011
12.5400,110.2598641,20.98222906,989.2116569
12.5450,110.4917331,20.53767686,989.1055861
12.5500,110.7214948,20.1035972,989.0013348
12.5550,110.9502504,19.68130164,988.8988561
12.5600,111.1786595,19.27112015,988.7980427
12.5650,111.4088528,18.87644217,988.6987744
12.5700,111.6411546,18.49700293,988.600962
12.5750,111.8735484,18.1350137,988.505349
12.5800,112.1066854,17.78952986,988.4116441
12.5850,112.3409331,17.46128519,988.3196352
12.5900,112.575901,17.15203868,988.229757
12.5950,112.8126208,16.86366093,988.1419433
12.6000,113.051112,16.59649674,988.0562316
12.6050,113.2921203,16.35276471,987.9728595
12.6100,113.5349606,16.13331965,987.8919099
12.6150,113.7807368,15.93853858,987.8132879
12.6200,114.02851,15.77031755,987.7373862
12.6250,114.2792461,15.62850211,987.6640245
12.6300,114.5312318,15.51237381,987.5935699
12.6350,114.7832083,15.42442673,987.526529
12.6400,115.0358289,15.36332708,987.4626835
12.6450,115.2877412,15.32944886,987.4022328
12.6500,115.5391908,15.32496509,987.3455538
12.6550,115.7887923,15.34584215,987.2923793
12.6600,116.0363397,15.39484489,987.2432056
12.6650,116.2817365,15.46876639,987.1975531
12.6700,116.5245412,15.56728559,987.1555341
12.6750,116.764065,15.68943745,987.1171732
12.6800,117.0000548,15.83294614,987.0823494
12.6850,117.2319907,15.99746612,987.0509397
12.6900,117.4579715,16.17891336,987.0230542
12.6950,117.6765688,16.37571783,986.9986097
12.7000,117.8894847,16.58548534,986.9771566
12.7050,118.0954802,16.80664371,986.9587667
12.7100,118.2936822,17.03657841,986.9432289
12.7150,118.4864512,17.27253462,986.9299458
12.7200,118.6714812,17.51244634,986.9189835
12.7250,118.850054,17.75341915,986.9098657
12.7300,119.0220539,17.99463958,986.9024115
12.7350,119.1865794,18.23410187,986.8965793
12.7400,119.3433439,18.47015923,986.8922471
12.7450,119.4911413,18.70162659,986.8894885
12.7500,119.6298211,18.92633854,986.8880933
12.7550,119.7587607,19.14435746,986.8882169
12.7600,119.8765751,19.3523821,986.889758
12.7650,119.9822675,19.5502396,986.892814
12.7700,120.0753596,19.73661955,986.8974141
12.7750,120.1539949,19.91068057,986.9037591
12.7800,120.2178168,20.0720637,986.9118086
12.7850,120.2651787,20.22008042,986.9217745
12.7900,120.296024,20.35533803,986.9336053
12.7950,120.3094859,20.47558923,986.9471943
12.8000,120.3061775,20.58211391,986.962592
12.8050,120.2855942,20.67288645,986.9794555
12.8100,120.2472005,20.74818394,986.9981244
12.8150,120.1901041,20.80691171,987.0185532
12.8200,120.1125662,20.84879023,987.0411871
12.8250,120.014309,20.87190973,987.0657069
12.8300,119.8977641,20.87854701,987.0921107
12.8350,119.7622684,20.8677695,987.1203745
12.8400,119.6072823,20.83852395,987.1505481
12.8450,119.435069,20.79122126,987.1822241
12.8500,119.2461894,20.72559645,987.2154433
12.8550,119.041285,20.64318116,987.250217
12.8600,118.8219384,20.5451586,987.2864474
12.8650,118.5883776,20.43159111,987.3241041
12.8700,118.3419377,20.3037897,987.3631572
12.8750,118.0854525,20.16231936,987.4030061
12.8800,117.8192827,20.01081771,987.4439649
12.8850,117.5460502,19.85176935,987.4859633
12.8900,117.2673153,19.68510522,987.5287133
12.8950,116.9838206,19.51391898,987.5723601
12.9000,116.698398,19.34096258,987.6166538
12.9050,116.4108796,19.16624141,987.661506
12.9100,116.1227786,18.99324418,987.7071031
12.9150,115.8349393,18.82378153,987.7533766
12.9200,115.5489927,18.65844119,987.8001028
12.9250,115.2655342,18.50080922,987.8474814
12.9300,114.9840614,18.3527441,987.8958324
12.9350,114.7062338,18.21454667,987.9446752
12.9400,114.4307182,18.08815224,987.9944746
12.9450,114.1584001,17.97430403,988.0453514
12.9500,113.8889698,17.87287838,988.0970518
12.9550,113.6219084,17.7865297,988.1501617
12.9600,113.357163,17.71408451,988.2044987
12.9650,113.0921309,17.65660391,988.2608237
12.9700,112.8261748,17.61531649,988.3192613
12.9750,112.5581881,17.58911061,988.3801257
12.9800,112.2862404,17.57842465,988.4437772
12.9850,112.0102782,17.58310548,988.5102868
12.9900,111.7264116,17.60285303,988.580395
12.9950,111.4372227,17.63883697,988.6538952
13.0000,111.1387709,17.69047638,988.7315318
13.0050,110.8307249,17.75712693,988.813396
13.0100,110.5102725,17.83785856,988.9000717
13.0150,110.1761328,17.93235871,988.9917389
13.0200,109.8265427,18.04086099,989.0890548
13.0250,109.460408,18.16348672,989.1921777
13.0300,109.0773367,18.29816535,989.301244
13.0350,108.6762039,18.44425331,989.4165763
13.0400,108.2568554,18.60336867,989.5385676
13.0450,107.8186682,18.77362196,989.6670933
13.0500,107.3612795,18.95526758,989.8025008
13.0550,106.8846913,19.14693869,989.9446502
13.0600,106.3875382,19.34863409,990.0939493
13.0650,105.8710446,19.55890797,990.2503677
13.0700,105.333549,19.77753851,990.4142525
13.0750,104.7765695,20.00437535,990.5853891
13.0800,104.1996645,20.23778954,990.7639716
13.0850,103.6029392,20.47831482,990.9501143
13.0900,102.9855377,20.72391694,991.1439638
13.0950,102.3478057,20.97544801,991.3458149
13.1000,101.6893698,21.23061125,991.55558
13.1050,101.010283,21.49113274,991.7738343
13.1100,100.3091342,21.75534148,992.0006501
13.1150,99.58702646,22.02373658,992.2362239
13.1200,98.84439606,22.29521558,992.4804556
13.1250,98.08197562,22.57088551,992.7335486
13.1300,97.29698282,22.84898136,992.996092
13.1350,96.4904286,23.13026163,993.2679658
13.1400,95.66325213,23.4150788,993.5491889
13.1450,94.81540413,23.70504677,993.8403675
13.1500,93.94675487,23.99989943,994.1415911
13.1550,93.05760827,24.29970596,994.4528997
13.1600,92.14728886,24.60356107,994.7745364
13.1650,91.21660864,24.91236725,995.1066485
13.1700,90.26492501,25.22684453,995.449531
13.1750,89.29209432,25.54709689,995.8034177
13.1800,88.30050273,25.87379776,996.1680744
13.1850,87.28842147,26.20631693,996.5440518
13.1900,86.25584161,26.54548584,996.9314065
13.1950,85.20403304,26.89150248,997.3302546
13.2000,84.13230728,27.24441229,997.7408716
13.2050,83.04252734,27.60447182,998.1630794
13.2100,81.93480752,27.97076531,998.5968186
13.2150,80.81046652,28.34527465,999.0423861
13.2200,79.66893467,28.72830695,999.4999032
13.2250,78.51130818,29.11790911,999.9691829
13.2300,77.33758257,29.51383237,1000.450248
13.2350,76.14802017,29.91663025,1000.943618
13.2400,74.94317597,30.32641732,1001.449237
13.2450,73.72283422,30.74349484,1001.967124
13.2500,72.48824281,31.16901813,1002.497549
13.2550,71.24056505,31.60202748,1003.040355
13.2600,69.97880909,32.04260197,1003.595893
13.2650,68.7062092,32.49177121,1004.163758
13.2700,67.42186442,32.94743497,1004.744332
13.2750,66.12687428,33.40951435,1005.337405
13.2800,64.82175958,33.87814011,1005.94318
13.2850,63.50594598,34.35079706,1006.56172
13.2900,62.18164404,34.82747296,1007.192863
13.2950,60.84667777,35.30627387,1007.83732
13.3000,59.50432509,35.78770581,1008.49449
13.3050,58.15334155,36.2702676,1009.164713
13.3100,56.79528911,36.75486805,1009.847899
13.3150,55.43210839,37.24173968,1010.544339
13.3200,54.0654548,37.72807252,1011.253014
13.3250,52.6936795,38.21514863,1011.975116
13.3300,51.31763148,38.70272446,1012.710535
13.3350,49.93822082,39.19031106,1013.458916
13.3400,48.55639752,39.6776551,1014.220176
13.3450,47.17355845,40.16382112,1014.994125
13.3500,45.78847829,40.65032343,1015.781835
13.3550,44.40202293,41.13609399,1016.582769
13.3600,43.01457263,41.62232312,1017.397303
13.3650,41.62574975,42.10870676,1018.225361
13.3700,40.23652379,42.59431451,1019.066267
13.3750,38.84586211,43.08056959,1019.920832
13.3800,37.45444164,43.5667196,1020.788676
13.3850,36.06281598,44.053573,1021.669716
13.3900,34.67299606,44.5421004,1022.563479
13.3950,33.28471584,45.03251347,1023.470187
13.4000,31.89695467,45.52608132,1024.390045
13.4050,30.50984912,46.02094445,1025.322951
13.4100,29.12518048,46.51943586,1026.268469
13.4150,27.74264466,47.02205665,1027.226768
13.4200,26.36334246,47.52934818,1028.197626
13.4250,24.98759025,48.04084236,1029.180898
13.4300,23.61586124,48.5568626,1030.176517
13.4350,22.24804766,49.07765906,1031.184907
13.4400,20.88404819,49.6032006,1032.206068
13.4450,19.52381338,50.1336854,1033.239942
13.4500,18.16692261,50.67033284,1034.286986
13.4550,16.81333967,51.2122515,1035.347374
13.4600,15.46349915,51.7600452,1036.420907
13.4650,14.11698457,52.31389843,1037.508191
13.4700,12.77452713,52.87492308,1038.609044
13.4750,11.43449124,53.44259869,1039.723969
13.4800,10.09579537,54.01624589,1040.852954
13.4850,8.759607014,54.59575468,1041.995752
13.4900,7.425809959,55.18121471,1043.152109
13.4950,6.092166727,55.77159587,1044.322692
13.5000,4.759967399,56.36673944,1045.506747
13.5050,3.42757681,56.96653623,1046.704673
13.5100,2.09551711,57.5707941,1047.916365
13.5150,0.7624856395,58.17875406,1049.141867
13.5200,-0.569550813,58.78977529,1050.380447
13.5250,-1.903062388,59.40246153,1051.632638
13.5300,-3.235906165,60.01869141,1052.898287
13.5350,-4.56906317,60.63706304,1054.177232
13.5400,-5.901125068,61.25640609,1055.468541
13.5450,-7.231851092,61.87689741,1056.772799
13.5500,-8.561549046,62.49697399,1058.089711
13.5550,-9.889903578,63.11679642,1059.419195
13.5600,-11.21583236,63.73633741,1060.761037
13.5650,-12.54170736,64.35525872,1062.115861
13.5700,-13.8650065,64.97289618,1063.482286
13.5750,-15.18639705,65.58987915,1064.860966
13.5800,-16.50536636,66.20466546,1066.250948
13.5850,-17.82169354,66.81855854,1067.652649
13.5900,-19.13401534,67.43178915,1069.065221
13.5950,-20.44187785,68.04551715,1070.488516
13.6000,-21.7466387,68.65745738,1071.922607
13.6050,-23.04618256,69.26946447,1073.367107
13.6100,-24.3412144,69.87967789,1074.821994
13.6150,-25.63165822,70.48813952,1076.286314
13.6200,-26.91779869,71.09669534,1077.761355
13.6250,-28.19823928,71.70451403,1079.24567
13.6300,-29.47231756,72.31196562,1080.738837
13.6350,-30.73945725,72.92028044,1082.241389
13.6400,-31.99921108,73.52663142,1083.752406
13.6450,-33.25195492,74.13289564,1085.272323
13.6500,-34.49714513,74.7370026,1086.800387
13.6550,-35.7328997,75.33946839,1088.336303
13.6600,-36.96024562,75.93941385,1089.879919
13.6650,-38.17813243,76.5360886,1091.431036
13.6700,-39.3853416,77.13025988,1092.989805
13.6750,-40.5810811,77.72110304,1094.555763
13.6800,-41.76440857,78.30879901,1096.128322
13.6850,-42.93562538,78.89305295,1097.707047
13.6900,-44.09559958,79.47445686,1099.292818
13.6950,-45.24441163,80.05118453,1100.884929
13.7000,-46.38019315,80.62502906,1102.483697
13.7050,-47.50373845,81.19446134,1104.088072
13.7100,-48.61483136,81.75833626,1105.699174
13.7150,-49.71417871,82.31500886,1107.31543
13.7200,-50.80236848,82.86483826,1108.93756
13.7250,-51.87923007,83.40725709,1110.56502
13.7300,-52.94434966,83.9430196,1112.197666
13.7350,-53.99934374,84.47047007,1113.835848
13.7400,-55.04349894,84.99064427,1115.479534
13.7450,-56.0766994,85.50184154,1117.127744
