type,name,time_units,begin_time,frequency,count,units
signal_3d,"Noraxon MyoMotion-Trajectories-Medial humeral epicondyle RT","s",0.0000,200,5008,"mm"

time,x,y,z
0.0000,145.1239802,-37.9767525,1238.611142
0.0050,145.1376496,-37.9780782,1238.607653
0.0100,145.151319,-37.9794051,1238.604164
0.0150,145.1649884,-37.98073322,1238.600675
0.0200,145.1794981,-37.98223012,1238.596974
0.0250,145.1947218,-37.98388578,1238.593095
0.0300,145.2105153,-37.98569276,1238.589076
0.0350,145.2267232,-37.98765369,1238.584955
0.0400,145.2431884,-37.98978288,1238.580771
0.0450,145.2597599,-37.99210133,1238.57656
0.0500,145.2762962,-37.99463009,1238.572355
0.0550,145.2926629,-37.99738749,1238.568185
0.0600,145.3087302,-38.00038597,1238.564078
0.0650,145.3243736,-38.00362395,1238.560059
0.0700,145.3394783,-38.00707888,1238.556153
0.0750,145.3539459,-38.01070857,1238.552382
0.0800,145.3676951,-38.01445782,1238.548769
0.0850,145.3806583,-38.01826584,1238.545332
0.0900,145.3927796,-38.02207421,1238.542091
0.0950,145.4040165,-38.02583387,1238.53906
0.1000,145.4143385,-38.0295095,1238.536253
0.1050,145.4237236,-38.03308006,1238.533679
0.1100,145.4321577,-38.03653626,1238.531343
0.1150,145.4396364,-38.03987855,1238.52925
0.1200,145.4461617,-38.04311533,1238.527401
0.1250,145.451736,-38.04625768,1238.525795
0.1300,145.4563607,-38.04931353,1238.524431
0.1350,145.4600375,-38.05228613,1238.523305
0.1400,145.4627691,-38.05517343,1238.522414
0.1450,145.4645675,-38.05796574,1238.521748
0.1500,145.4654665,-38.06064421,1238.521295
0.1550,145.4777335,-38.05835169,1238.51903
0.1600,145.4892659,-38.0559935,1238.51703
0.1650,145.5002026,-38.05347993,1238.515149
0.1700,145.5106926,-38.05032612,1238.513519
0.1750,145.5217692,-38.04481161,1238.511993
0.1800,145.5322664,-38.03851189,1238.510666
0.1850,145.5423302,-38.03079597,1238.509513
0.1900,145.5523217,-38.02268731,1238.508467
0.1950,145.5622463,-38.01400929,1238.507512
0.2000,145.5727314,-38.00466886,1238.506543
0.2050,145.5838127,-37.99463088,1238.505488
0.2100,145.5944198,-37.98400589,1238.50464
0.2150,145.6056164,-37.97268934,1238.503734
0.2200,145.6163573,-37.96026094,1238.502997
0.2250,145.6285325,-37.94709992,1238.502121
0.2300,145.6410559,-37.93282065,1238.501275
0.2350,145.6538759,-37.91803511,1238.500426
0.2400,145.6663179,-37.90246094,1238.499827
0.2450,145.6788864,-37.88665855,1238.499288
0.2500,145.6918845,-37.86958635,1238.498908
0.2550,145.7055706,-37.85273551,1238.498495
0.2600,145.7181145,-37.83557189,1238.498495
0.2650,145.7306633,-37.81836444,1238.498564
0.2700,145.7437563,-37.8011641,1238.498793
0.2750,145.7567153,-37.7844943,1238.499131
0.2800,145.7694723,-37.76703049,1238.499759
0.2850,145.7826379,-37.74978084,1238.50057
0.2900,145.7955378,-37.73241894,1238.501613
0.2950,145.80671,-37.71614261,1238.502986
0.3000,145.8175536,-37.69930334,1238.504736
0.3050,145.8275596,-37.68364516,1238.506649
0.3100,145.8371737,-37.66879961,1238.508708
0.3150,145.8457768,-37.65439987,1238.511082
0.3200,145.8544219,-37.64045624,1238.513581
0.3250,145.8639637,-37.62738489,1238.515934
0.3300,145.873961,-37.61544615,1238.518244
0.3350,145.8828198,-37.60386751,1238.5208
0.3400,145.8912609,-37.59348212,1238.523428
0.3450,145.8983065,-37.58393927,1238.526311
0.3500,145.9055045,-37.57587591,1238.529031
0.3550,145.9123782,-37.56842327,1238.53184
0.3600,145.9184958,-37.56248172,1238.534561
0.3650,145.9245756,-37.5572758,1238.537215
0.3700,145.9299226,-37.55273423,1238.539892
0.3750,145.9339574,-37.54943769,1238.54265
0.3800,145.936789,-37.54714569,1238.545426
0.3850,145.9389121,-37.54569426,1238.548161
0.3900,145.9405958,-37.54446822,1238.55079
0.3950,145.9414112,-37.54472367,1238.553236
0.4000,145.9415965,-37.54449958,1238.555657
0.4050,145.9412267,-37.54513239,1238.557876
0.4100,145.9407109,-37.54609449,1238.559899
0.4150,145.9397336,-37.54636398,1238.561827
0.4200,145.9389007,-37.54673964,1238.563484
0.4250,145.9366995,-37.54695285,1238.565166
0.4300,145.9345633,-37.54770931,1238.566524
0.4350,145.9322781,-37.54762823,1238.567696
0.4400,145.928957,-37.54780986,1238.568748
0.4450,145.9251258,-37.54770687,1238.569693
0.4500,145.9216943,-37.54679952,1238.570405
0.4550,145.9183062,-37.54656401,1238.570754
0.4600,145.9149281,-37.54608075,1238.570947
0.4650,145.9102469,-37.54554673,1238.571236
0.4700,145.9063179,-37.5452152,1238.571233
0.4750,145.9017639,-37.54583068,1238.571218
0.4800,145.8976108,-37.54675619,1238.570978
0.4850,145.8935846,-37.54756281,1238.570793
0.4900,145.8901774,-37.54722771,1238.570694
0.4950,145.8873794,-37.5477414,1238.570502
0.5000,145.8856146,-37.54718934,1238.570414
0.5050,145.8858325,-37.54699041,1238.570242
0.5100,145.8888258,-37.54645949,1238.569886
0.5150,145.8938517,-37.54613098,1238.569496
0.5200,145.9012281,-37.5459893,1238.569087
0.5250,145.9103219,-37.54545467,1238.568846
0.5300,145.9225552,-37.54523615,1238.568511
0.5350,145.938184,-37.54486749,1238.568164
0.5400,145.9576381,-37.54454175,1238.567775
0.5450,145.9811424,-37.54370508,1238.567364
0.5500,146.007642,-37.54285498,1238.56711
0.5550,146.0375682,-37.54144407,1238.567113
0.5600,146.0714535,-37.5396429,1238.567178
0.5650,146.1092094,-37.53704604,1238.567501
0.5700,146.1509068,-37.53359463,1238.568146
0.5750,146.1950295,-37.5291819,1238.569316
0.5800,146.2419517,-37.52376608,1238.571006
0.5850,146.2916018,-37.51791162,1238.573138
0.5900,146.3432503,-37.51247648,1238.575694
0.5950,146.3975986,-37.50499527,1238.578884
0.6000,146.4539044,-37.49745064,1238.58254
0.6050,146.5119228,-37.48996576,1238.586667
0.6100,146.5717426,-37.48218925,1238.591293
0.6150,146.6331616,-37.47498484,1238.596261
0.6200,146.6947727,-37.46858115,1238.601726
0.6250,146.7562902,-37.46278283,1238.607769
0.6300,146.8177784,-37.45763945,1238.614257
0.6350,146.8793035,-37.45384786,1238.621115
0.6400,146.9401031,-37.45206358,1238.628354
0.6450,147.000205,-37.45190812,1238.635893
0.6500,147.0581874,-37.45356513,1238.644045
0.6550,147.1140621,-37.45780393,1238.65256
0.6600,147.1666799,-37.46415171,1238.661604
0.6650,147.2155338,-37.47361692,1238.671086
0.6700,147.2610555,-37.48433556,1238.681007
0.6750,147.3032496,-37.49690595,1238.691221
0.6800,147.340126,-37.51110963,1238.701987
0.6850,147.3717548,-37.52656791,1238.713197
0.6900,147.3981903,-37.54280748,1238.724897
0.6950,147.4191166,-37.55887897,1238.737242
0.7000,147.4335348,-37.57502885,1238.750339
0.7050,147.4417166,-37.59030254,1238.764218
0.7100,147.4441626,-37.60467531,1238.778803
0.7150,147.4400699,-37.61746745,1238.794211
0.7200,147.4300497,-37.62900892,1238.81034
0.7250,147.4146791,-37.63872244,1238.827096
0.7300,147.3927542,-37.64590421,1238.844731
0.7350,147.3648437,-37.65258225,1238.863045
0.7400,147.3311687,-37.65749199,1238.882093
0.7450,147.2925398,-37.66228648,1238.901554
0.7500,147.248638,-37.66782108,1238.921624
0.7550,147.2008197,-37.67344104,1238.942142
0.7600,147.1494342,-37.67982813,1238.963066
0.7650,147.0958241,-37.68726767,1238.984294
0.7700,147.0393697,-37.69625214,1239.005926
0.7750,146.9815611,-37.70750537,1239.027717
0.7800,146.922643,-37.72097348,1239.049741
0.7850,146.8638836,-37.73827949,1239.071614
0.7900,146.8046676,-37.7598963,1239.093304
0.7950,146.7459919,-37.78497746,1239.114761
0.8000,146.6877668,-37.814166,1239.135942
0.8050,146.6301044,-37.84665752,1239.156836
0.8100,146.5727698,-37.88357341,1239.177345
0.8150,146.5174527,-37.9236232,1239.197275
0.8200,146.4634789,-37.96671614,1239.21682
0.8250,146.4120079,-38.01270554,1239.235754
0.8300,146.3623693,-38.06146126,1239.254318
0.8350,146.3153375,-38.1114841,1239.272494
0.8400,146.2701009,-38.16295036,1239.290379
0.8450,146.2274148,-38.21605669,1239.307931
0.8500,146.188554,-38.27110399,1239.325008
0.8550,146.1528124,-38.32786673,1239.341724
0.8600,146.1205922,-38.38549903,1239.358174
0.8650,146.09238,-38.44509141,1239.37421
0.8700,146.0673418,-38.50754319,1239.38984
0.8750,146.0473856,-38.57334425,1239.404843
0.8800,146.0328096,-38.64278011,1239.419102
0.8850,146.0233477,-38.71511814,1239.432791
0.8900,146.0195239,-38.7905194,1239.445883
0.8950,146.0217206,-38.8711254,1239.458048
0.9000,146.0297387,-38.95608081,1239.469418
0.9050,146.0441832,-39.04429973,1239.480073
0.9100,146.0657927,-39.13676857,1239.48968
0.9150,146.093955,-39.23186229,1239.498487
0.9200,146.1287971,-39.33056226,1239.506409
0.9250,146.1699667,-39.43206471,1239.513502
0.9300,146.2171407,-39.53681664,1239.519747
0.9350,146.2699341,-39.64348937,1239.525229
0.9400,146.3265878,-39.75155971,1239.530091
0.9450,146.3875888,-39.86151314,1239.534276
0.9500,146.4517204,-39.97263697,1239.537885
0.9550,146.5178984,-40.08322013,1239.541175
0.9600,146.5850968,-40.19346825,1239.544381
0.9650,146.6523467,-40.30299423,1239.547675
0.9700,146.7192908,-40.41246569,1239.551069
0.9750,146.7836943,-40.52031338,1239.55515
0.9800,146.8460717,-40.62615648,1239.559781
0.9850,146.9052091,-40.73086814,1239.565253
0.9900,146.9593166,-40.83395154,1239.571821
0.9950,147.00829,-40.9357357,1239.579432
1.0000,147.0529363,-41.03645123,1239.587941
1.0050,147.0916585,-41.13508498,1239.59767
1.0100,147.1240404,-41.23264047,1239.608521
1.0150,147.1511133,-41.32879145,1239.620439
1.0200,147.1717315,-41.42340757,1239.633506
1.0250,147.1861322,-41.51662436,1239.647619
1.0300,147.194114,-41.60766414,1239.662925
1.0350,147.1970219,-41.69556831,1239.679249
1.0400,147.1942959,-41.78057313,1239.696671
1.0450,147.1860504,-41.86234101,1239.715199
1.0500,147.1726162,-41.9406933,1239.734685
1.0550,147.1525673,-42.01599058,1239.75547
1.0600,147.1262706,-42.0878425,1239.777389
1.0650,147.0931731,-42.15617212,1239.800518
1.0700,147.0544951,-42.22190341,1239.8247
1.0750,147.0091061,-42.28483007,1239.850183
1.0800,146.958233,-42.3463246,1239.876699
1.0850,146.9009469,-42.40552926,1239.904517
1.0900,146.8384349,-42.46288913,1239.93369
1.0950,146.7708525,-42.51838513,1239.964182
1.1000,146.698405,-42.5725324,1239.995976
1.1050,146.6229025,-42.62716727,1240.028746
1.1100,146.5459298,-42.68202279,1240.062336
1.1150,146.4681994,-42.73844957,1240.09661
1.1200,146.3912614,-42.79638951,1240.131382
1.1250,146.3165112,-42.85649684,1240.166475
1.1300,146.2460913,-42.91907618,1240.201482
1.1350,146.1802858,-42.9847814,1240.236467
1.1400,146.1217427,-43.055015,1240.27101
1.1450,146.0708879,-43.1297626,1240.305061
1.1500,146.0286414,-43.20940564,1240.338486
1.1550,145.9953715,-43.29389119,1240.371417
1.1600,145.9735857,-43.38455867,1240.403358
1.1650,145.9626661,-43.48151304,1240.434514
1.1700,145.9641019,-43.58521778,1240.464687
1.1750,145.9772059,-43.69552797,1240.494086
1.1800,146.0030381,-43.81346359,1240.522551
1.1850,146.0426424,-43.93963879,1240.550018
1.1900,146.0973985,-44.07362644,1240.576385
1.1950,146.1680448,-44.21594451,1240.601643
1.2000,146.2557225,-44.36658246,1240.625838
1.2050,146.3612408,-44.52646244,1240.648758
1.2100,146.483306,-44.69574099,1240.670838
1.2150,146.6251133,-44.87547903,1240.691579
1.2200,146.7864647,-45.06460305,1240.711145
1.2250,146.9685601,-45.26430979,1240.729307
1.2300,147.1718544,-45.47469681,1240.746117
1.2350,147.3969128,-45.69573219,1240.761501
1.2400,147.6451783,-45.92667418,1240.775366
1.2450,147.9161737,-46.16852005,1240.787799
1.2500,148.2091483,-46.42002282,1240.799128
1.2550,148.5245696,-46.6817462,1240.809333
1.2600,148.8624057,-46.95163002,1240.818481
1.2650,149.2206631,-47.22939984,1240.826945
1.2700,149.5971241,-47.51407071,1240.835181
1.2750,149.9903658,-47.80443948,1240.843396
1.2800,150.399098,-48.10043956,1240.851849
1.2850,150.8196452,-48.39949781,1240.861261
1.2900,151.2503952,-48.70223917,1240.871752
1.2950,151.6869138,-49.00619496,1240.884114
1.3000,152.1260218,-49.31114649,1240.89874
1.3050,152.5654512,-49.61590151,1240.915957
1.3100,153.0025714,-49.91967753,1240.936061
1.3150,153.4339245,-50.22093655,1240.959468
1.3200,153.8581927,-50.51903189,1240.986359
1.3250,154.2728929,-50.81345179,1241.017016
1.3300,154.6767133,-51.10414251,1241.051392
1.3350,155.0669608,-51.39037116,1241.089822
1.3400,155.4432154,-51.67118109,1241.132334
1.3450,155.8046393,-51.94583825,1241.178922
1.3500,156.1500299,-52.21377402,1241.229666
1.3550,156.4800004,-52.47520513,1241.284396
1.3600,156.7946558,-52.72904319,1241.342974
1.3650,157.0929144,-52.97593273,1241.40549
1.3700,157.3737344,-53.21461913,1241.471882
1.3750,157.6370791,-53.4446665,1241.541952
1.3800,157.8828175,-53.66522839,1241.615698
1.3850,158.1098984,-53.87671899,1241.693081
1.3900,158.3193061,-54.0786655,1241.773758
1.3950,158.5107062,-54.2715792,1241.857695
1.4000,158.6837907,-54.45531405,1241.944871
1.4050,158.837093,-54.62789873,1242.035483
1.4100,158.9705932,-54.78986419,1242.129467
1.4150,159.0819071,-54.94116333,1242.227039
1.4200,159.1725267,-55.08169281,1242.327941
1.4250,159.2404303,-55.2105331,1242.432347
1.4300,159.2858804,-55.32784006,1242.540257
1.4350,159.3097753,-55.43422899,1242.651422
1.4400,159.3117749,-55.52869114,1242.765822
1.4450,159.292942,-55.61196257,1242.883318
1.4500,159.2534851,-55.68443059,1243.003744
1.4550,159.1951608,-55.74674999,1243.126668
1.4600,159.1182639,-55.79870345,1243.252102
1.4650,159.0253359,-55.84078461,1243.379635
1.4700,158.9172439,-55.87220617,1243.509105
1.4750,158.796412,-55.89423912,1243.640209
1.4800,158.6644672,-55.90736629,1243.772733
1.4850,158.5224642,-55.91111463,1243.906484
1.4900,158.372794,-55.9062479,1244.04117
1.4950,158.2164879,-55.89221289,1244.176658
1.5000,158.0556029,-55.87072361,1244.312448
1.5050,157.8912328,-55.84124485,1244.448523
1.5100,157.7251391,-55.80298963,1244.584614
1.5150,157.5575343,-55.7559403,1244.720627
1.5200,157.39037,-55.70079821,1244.85621
1.5250,157.224078,-55.63698386,1244.991268
1.5300,157.0602279,-55.56415974,1245.125608
1.5350,156.8989812,-55.48280651,1245.259212
1.5400,156.7413116,-55.3928733,1245.391928
1.5450,156.5877688,-55.29373385,1245.523632
1.5500,156.4399181,-55.18672686,1245.654033
1.5550,156.2979829,-55.07191163,1245.78307
1.5600,156.1618051,-54.95094715,1245.910742
1.5650,156.0320656,-54.82277908,1246.037025
1.5700,155.9084194,-54.68974773,1246.161867
1.5750,155.7920169,-54.55194697,1246.285179
1.5800,155.6824066,-54.40972887,1246.407047
1.5850,155.5807849,-54.26385305,1246.527238
1.5900,155.4862468,-54.11433669,1246.645985
1.5950,155.4009785,-53.96279395,1246.762814
1.6000,155.3257271,-53.80803172,1246.877804
1.6050,155.2608811,-53.65230571,1246.990711
1.6100,155.2052256,-53.49464331,1247.101914
1.6150,155.1599016,-53.3357263,1247.211132
1.6200,155.1256699,-53.17614994,1247.318234
1.6250,155.1021802,-53.01524209,1247.423388
1.6300,155.0908248,-52.85390401,1247.526347
1.6350,155.0909158,-52.69229668,1247.627232
1.6400,155.1019572,-52.53066399,1247.726008
1.6450,155.12391,-52.36960248,1247.822687
1.6500,155.1564614,-52.20966581,1247.917308
1.6550,155.1986755,-52.05024286,1248.009861
1.6600,155.2497498,-51.89328236,1248.100529
1.6650,155.310251,-51.73788871,1248.189123
1.6700,155.3782496,-51.5853361,1248.27594
1.6750,155.454764,-51.43638603,1248.360845
1.6800,155.5381807,-51.29163943,1248.444024
1.6850,155.6288625,-51.15061516,1248.525475
1.6900,155.7261399,-51.01364256,1248.605234
1.6950,155.8289544,-50.88066405,1248.683508
1.7000,155.9377789,-50.75170151,1248.760238
1.7050,156.053019,-50.62735206,1248.8353
1.7100,156.173179,-50.50683908,1248.909071
1.7150,156.2994968,-50.38894354,1248.981427
1.7200,156.4305666,-50.27385475,1249.052579
1.7250,156.5668918,-50.16136738,1249.122542
1.7300,156.7079298,-50.05117573,1249.191384
1.7350,156.8539752,-49.9428318,1249.259078
1.7400,157.0049222,-49.83543294,1249.325864
1.7450,157.1605144,-49.72827547,1249.391715
1.7500,157.3207327,-49.62031549,1249.456711
1.7550,157.4854149,-49.51250209,1249.520949
1.7600,157.6541267,-49.40454033,1249.584495
1.7650,157.8254182,-49.29598415,1249.647571
1.7700,157.9989883,-49.18816606,1249.710251
1.7750,158.1748273,-49.08217925,1249.772287
1.7800,158.3505359,-48.97744538,1249.834072
1.7850,158.5247745,-48.87526891,1249.895643
1.7900,158.696431,-48.77777905,1249.957046
1.7950,158.8646189,-48.68509832,1250.018271
1.8000,159.0276529,-48.59644075,1250.079634
1.8050,159.1852406,-48.51259795,1250.140994
1.8100,159.3376078,-48.4342334,1250.202262
1.8150,159.4846584,-48.36084362,1250.263523
1.8200,159.6256992,-48.29242694,1250.324937
1.8250,159.7619107,-48.22850021,1250.386309
1.8300,159.8928743,-48.16790935,1250.447767
1.8350,160.0195987,-48.11049012,1250.509142
1.8400,160.142106,-48.05510392,1250.570599
1.8450,160.2611208,-48.00111998,1250.632032
1.8500,160.3766843,-47.94677647,1250.693612
1.8550,160.489703,-47.8922354,1250.755194
1.8600,160.6003288,-47.83476965,1250.817043
1.8650,160.7097053,-47.77512818,1250.878771
1.8700,160.8200026,-47.71091018,1250.940215
1.8750,160.9308599,-47.64269236,1251.001308
1.8800,161.0427497,-47.56903942,1251.062103
1.8850,161.1564292,-47.49106982,1251.12231
1.8900,161.2724885,-47.40799696,1251.181869
1.8950,161.3904168,-47.31989695,1251.240784
1.9000,161.5088775,-47.22801777,1251.299145
1.9050,161.6287757,-47.13131389,1251.356877
1.9100,161.7505743,-47.03053865,1251.41368
1.9150,161.8738408,-46.92645575,1251.469604
1.9200,161.9970421,-46.81853826,1251.524939
1.9250,162.1212373,-46.70830673,1251.579331
1.9300,162.2465869,-46.59453685,1251.632761
1.9350,162.3725838,-46.47763607,1251.68526
1.9400,162.5002897,-46.35844118,1251.736697
1.9450,162.6288717,-46.23634171,1251.787108
1.9500,162.7585654,-46.11039958,1251.836596
1.9550,162.8895979,-45.98115948,1251.885176
1.9600,163.0233691,-45.847771,1251.932556
1.9650,163.1591113,-45.70994022,1251.979022
1.9700,163.2989659,-45.56751086,1252.024307
1.9750,163.4420512,-45.42035191,1252.068665
1.9800,163.5887437,-45.26781802,1252.112016
1.9850,163.7402513,-45.11101482,1252.154145
1.9900,163.8947685,-44.95053684,1252.195409
1.9950,164.0526462,-44.7860404,1252.235812
2.0000,164.2146451,-44.61813079,1252.275288
2.0050,164.3792435,-44.44669112,1252.314139
2.0100,164.5464104,-44.27191522,1252.352322
2.0150,164.7177417,-44.09412971,1252.389562
2.0200,164.8919836,-43.91391259,1252.426109
2.0250,165.0697453,-43.73114384,1252.461944
2.0300,165.2504707,-43.54573668,1252.497127
2.0350,165.4325107,-43.35817011,1252.532049
2.0400,165.6162299,-43.1681671,1252.566514
2.0450,165.8006557,-42.97611931,1252.600688
2.0500,165.98498,-42.78214359,1252.634809
2.0550,166.1697543,-42.58497823,1252.668719
2.0600,166.3544718,-42.38531726,1252.702468
2.0650,166.5393439,-42.18238108,1252.736043
2.0700,166.7246101,-41.97538484,1252.769525
2.0750,166.9083081,-41.7639142,1252.803264
2.0800,167.0912028,-41.54766698,1252.837072
2.0850,167.272185,-41.32723869,1252.87124
2.0900,167.4507995,-41.10163786,1252.905828
2.0950,167.6259945,-40.8711473,1252.940976
2.1000,167.7985931,-40.63623632,1252.976551
2.1050,167.9666007,-40.39802747,1253.012758
2.1100,168.1296759,-40.15688406,1253.049582
2.1150,168.2863188,-39.91490524,1253.087063
2.1200,168.4355143,-39.67127389,1253.125351
2.1250,168.5757789,-39.42711499,1253.164638
2.1300,168.7061449,-39.18298758,1253.205056
2.1350,168.8266092,-38.93923723,1253.246638
2.1400,168.9365178,-38.69594078,1253.289381
2.1450,169.0364491,-38.45281882,1253.333221
2.1500,169.1262365,-38.21064425,1253.378117
2.1550,169.2056111,-37.96861881,1253.42419
2.1600,169.2755124,-37.72830592,1253.471014
2.1650,169.335663,-37.48923475,1253.518792
2.1700,169.3844843,-37.25073257,1253.567819
2.1750,169.4225508,-37.01218212,1253.618051
2.1800,169.45041,-36.77533492,1253.669176
2.1850,169.4682081,-36.53947318,1253.721415
2.1900,169.4769309,-36.30390529,1253.774659
2.1950,169.4770265,-36.06791214,1253.828949
2.2000,169.4691049,-35.83127796,1253.884217
2.2050,169.4538456,-35.59388398,1253.940349
2.2100,169.4313576,-35.35458412,1253.997531
2.2150,169.4022394,-35.11319902,1254.0557
2.2200,169.3675732,-34.87002609,1254.114649
2.2250,169.3272867,-34.62415022,1254.174426
2.2300,169.2806951,-34.37609337,1254.235212
2.2350,169.2293381,-34.12495099,1254.296845
2.2400,169.173175,-33.87069768,1254.359276
2.2450,169.1125843,-33.61354085,1254.422503
2.2500,169.0493058,-33.35391982,1254.4862
2.2550,168.9824989,-33.09124164,1254.550604
2.2600,168.9119702,-32.82605645,1254.615797
2.2650,168.8389001,-32.55831313,1254.681648
2.2700,168.7636416,-32.28717337,1254.748112
2.2750,168.6866876,-32.01226206,1254.815155
2.2800,168.6090851,-31.73352612,1254.882742
2.2850,168.5305567,-31.44978782,1254.951066
2.2900,168.4522263,-31.16071984,1255.020036
2.2950,168.3747084,-30.86695044,1255.089481
2.3000,168.2969115,-30.56763341,1255.159717
2.3050,168.218275,-30.26362224,1255.230842
2.3100,168.139339,-29.95421503,1255.302814
2.3150,168.0581282,-29.64060802,1255.375921
2.3200,167.9748168,-29.32125184,1255.450301
2.3250,167.8884891,-28.99659047,1255.526073
2.3300,167.7998006,-28.6658839,1255.603297
2.3350,167.7085961,-28.32804816,1255.681975
2.3400,167.613452,-27.98276839,1255.762476
2.3450,167.5148892,-27.63073948,1255.844629
2.3500,167.4127144,-27.27161639,1255.928498
2.3550,167.3064986,-26.90594515,1256.014112
2.3600,167.1946478,-26.53366221,1256.101781
2.3650,167.0758956,-26.15663676,1256.191541
2.3700,166.9498326,-25.77487625,1256.283344
2.3750,166.8157897,-25.38845723,1256.377304
2.3800,166.6722941,-24.99951723,1256.473512
2.3850,166.5195096,-24.60796136,1256.571886
2.3900,166.3569976,-24.21444758,1256.672357
2.3950,166.1855698,-23.82020535,1256.774673
2.4000,166.003331,-23.42591062,1256.879028
2.4050,165.8106917,-23.03178689,1256.985415
2.4100,165.6067182,-22.63771895,1257.09399
2.4150,165.3924813,-22.24271842,1257.204688
2.4200,165.1687377,-21.84830397,1257.31717
2.4250,164.9352214,-21.45394805,1257.431636
2.4300,164.691982,-21.06058595,1257.547971
2.4350,164.4378584,-20.66788354,1257.666474
2.4400,164.1736003,-20.27738952,1257.786985
2.4450,163.8971453,-19.88918876,1257.909955
2.4500,163.6081336,-19.50316505,1258.035481
2.4550,163.3060171,-19.11918533,1258.16371
2.4600,162.9913974,-18.73729699,1258.294543
2.4650,162.6637523,-18.3560849,1258.428306
2.4700,162.3246838,-17.97552709,1258.564679
2.4750,161.9746897,-17.59510031,1258.703606
2.4800,161.6148358,-17.2131737,1258.845218
2.4850,161.2448876,-16.82944469,1258.989531
2.4900,160.8651726,-16.4446206,1259.136437
2.4950,160.4764711,-16.06013433,1259.285666
2.5000,160.0800532,-15.67701226,1259.436819
2.5050,159.6752828,-15.29617055,1259.589978
2.5100,159.2612758,-14.91869552,1259.745074
2.5150,158.8384131,-14.5463736,1259.901778
2.5200,158.4066504,-14.17913512,1260.060121
2.5250,157.9658702,-13.81709522,1260.220272
2.5300,157.5172071,-13.46040322,1260.381895
2.5350,157.061967,-13.10938613,1260.544743
2.5400,156.6002204,-12.76359534,1260.708883
2.5450,156.1326593,-12.42364516,1260.874233
2.5500,155.657324,-12.08991299,1261.041166
2.5550,155.1770528,-11.76124559,1261.209188
2.5600,154.6917507,-11.43656297,1261.378509
2.5650,154.201662,-11.11566246,1261.549001
2.5700,153.7067955,-10.7985825,1261.720824
2.5750,153.2084665,-10.48530573,1261.893664
2.5800,152.7059899,-10.17625059,1262.067549
2.5850,152.1999684,-9.870923337,1262.242459
2.5900,151.6901696,-9.569943723,1262.418306
2.5950,151.1771183,-9.271522351,1262.595272
2.6000,150.661519,-8.97538467,1262.773138
2.6050,150.1459031,-8.680825933,1262.9514
2.6100,149.6303229,-8.388057881,1263.130052
2.6150,149.1157634,-8.096406071,1263.309002
2.6200,148.60283,-7.807218672,1263.48784
2.6250,148.092455,-7.520096511,1263.666395
2.6300,147.5840775,-7.235811527,1263.84467
2.6350,147.078392,-6.955176265,1264.022368
2.6400,146.5766756,-6.678787351,1264.199
2.6450,146.0772928,-6.406790113,1264.37496
2.6500,145.5817467,-6.139678669,1264.549714
2.6550,145.0879818,-5.877419141,1264.723886
2.6600,144.5977166,-5.620061966,1264.896899
2.6650,144.1099479,-5.366567658,1265.069128
2.6700,143.6249305,-5.11887006,1265.240159
2.6750,143.1446636,-4.876221201,1265.409553
2.6800,142.6688429,-4.637887515,1265.577496
2.6850,142.1985305,-4.404615453,1265.743559
2.6900,141.7328305,-4.176228738,1265.908005
2.6950,141.270877,-3.952598007,1266.070976
2.7000,140.8127901,-3.734269941,1266.232374
2.7050,140.3584881,-3.519912151,1266.392374
2.7100,139.9086147,-3.310878601,1266.550595
2.7150,139.4622842,-3.1073951,1266.707251
2.7200,139.0199444,-2.908648072,1266.862438
2.7250,138.5817631,-2.714998984,1267.015886
2.7300,138.1487305,-2.525581442,1267.167476
2.7350,137.7204489,-2.34048069,1267.317254
2.7400,137.2971447,-2.159524501,1267.465094
2.7450,136.8796512,-1.980831289,1267.611125
2.7500,136.4671066,-1.804748805,1267.755557
2.7550,136.0605182,-1.630184144,1267.898334
2.7600,135.660174,-1.456152448,1268.03957
2.7650,135.2658574,-1.284130427,1268.178956
2.7700,134.8774353,-1.114081304,1268.316633
2.7750,134.4954625,-0.9472057888,1268.452298
2.7800,134.117792,-0.7834122076,1268.586618
2.7850,133.7454034,-0.6235372106,1268.71922
2.7900,133.3776616,-0.466196434,1268.850554
2.7950,133.0127771,-0.3122095195,1268.980986
2.8000,132.6508121,-0.159895383,1269.110866
2.8050,132.2906673,-0.00763845633,1269.240807
2.8100,131.9343499,0.1446057287,1269.370214
2.8150,131.5814427,0.2981259491,1269.499451
2.8200,131.2312642,0.4528807493,1269.6288
2.8250,130.8840954,0.6087512515,1269.758102
2.8300,130.5392124,0.7654116051,1269.887443
2.8350,130.1954683,0.9222913329,1270.017078
2.8400,129.8521918,1.079013914,1270.146978
2.8450,129.510608,1.236454182,1270.276824
2.8500,129.170325,1.393897083,1270.406588
2.8550,128.8302211,1.550104322,1270.536353
2.8600,128.4896208,1.70383734,1270.666101
2.8650,128.1483586,1.854898901,1270.795881
2.8700,127.8075087,2.003295314,1270.925292
2.8750,127.4657802,2.148474492,1271.054584
2.8800,127.1233159,2.291116167,1271.18388
2.8850,126.7795374,2.429876585,1271.313082
2.8900,126.4354624,2.566068179,1271.442188
2.8950,126.0913603,2.699254567,1271.570965
2.9000,125.7469196,2.829407032,1271.699662
2.9050,125.4011475,2.9572212,1271.82872
2.9100,125.0541109,3.0820423,1271.958022
2.9150,124.7041545,3.204005955,1272.088191
2.9200,124.3529462,3.324726639,1272.218927
2.9250,123.9998561,3.443735361,1272.350381
2.9300,123.645542,3.561101542,1272.482379
2.9350,123.2890402,3.677716216,1272.615554
2.9400,122.9301824,3.792553114,1272.749743
2.9450,122.5701295,3.906246055,1272.884651
2.9500,122.2081495,4.019213813,1273.020616
2.9550,121.8450106,4.131782498,1273.157397
2.9600,121.480052,4.243674469,1273.295198
2.9650,121.1136779,4.355093862,1273.433964
2.9700,120.7463103,4.466842899,1273.573626
2.9750,120.3760075,4.578517248,1273.714863
2.9800,120.0042574,4.689777233,1273.857014
2.9850,119.6304804,4.802016616,1274.000579
2.9900,119.2552211,4.915118666,1274.14532
2.9950,118.8789186,5.029215172,1274.291226
3.0000,118.5028019,5.144459232,1274.437746
3.0050,118.1266572,5.260171383,1274.584998
3.0100,117.7502381,5.376899332,1274.733156
3.0150,117.3736124,5.493655706,1274.882045
3.0200,116.9963352,5.611104313,1275.032028
3.0250,116.6184792,5.728497093,1275.182958
3.0300,116.2387023,5.846335466,1275.335479
3.0350,115.8583793,5.964945057,1275.489111
3.0400,115.4778436,6.08608931,1275.644135
3.0450,115.0971359,6.20899169,1275.800372
3.0500,114.7178335,6.333632025,1275.957148
3.0550,114.3397419,6.460875788,1276.114689
3.0600,113.9614684,6.590796069,1276.273543
3.0650,113.5849678,6.724466555,1276.433297
3.0700,113.2098288,6.862079315,1276.59414
3.0750,112.8361829,7.0043334,1276.756062
3.0800,112.4649114,7.15069808,1276.918581
3.0850,112.0964974,7.301543078,1277.081485
3.0900,111.7310186,7.45616138,1277.244598
3.0950,111.3693884,7.615323905,1277.407687
3.1000,111.0112476,7.777645115,1277.570487
3.1050,110.65849,7.941917348,1277.73197
3.1100,110.3107482,8.107542718,1277.892162
3.1150,109.9676291,8.273865006,1278.051092
3.1200,109.6302494,8.440423586,1278.208089
3.1250,109.2987072,8.606865423,1278.362959
3.1300,108.9730357,8.773169701,1278.515887
3.1350,108.6542205,8.939278121,1278.666298
3.1400,108.3425856,9.104923373,1278.814132
3.1450,108.0371801,9.27000986,1278.959767
3.1500,107.7392421,9.435500098,1279.102861
3.1550,107.4491845,9.600215439,1279.243042
3.1600,107.166492,9.764632103,1279.380543
3.1650,106.8912369,9.928209865,1279.515232
3.1700,106.6225814,10.09013333,1279.647211
3.1750,106.360998,10.25022297,1279.776212
3.1800,106.1062795,10.4085768,1279.902306
3.1850,105.8582236,10.56601222,1280.02564
3.1900,105.6158091,10.72082216,1280.146246
3.1950,105.378319,10.87212405,1280.264244
3.2000,105.1457676,11.01993437,1280.379539
3.2050,104.9184035,11.16429662,1280.491951
3.2100,104.6963123,11.30460254,1280.601316
3.2150,104.4799362,11.44032818,1280.707281
3.2200,104.2687953,11.57060616,1280.809892
3.2250,104.0617754,11.69569782,1280.909812
3.2300,103.858142,11.81471272,1281.007034
3.2350,103.6585267,11.92778946,1281.101242
3.2400,103.4618966,12.03448117,1281.192859
3.2450,103.2687693,12.13582297,1281.281915
3.2500,103.0785402,12.23064404,1281.36837
3.2550,102.8911988,12.31907642,1281.452279
3.2600,102.7067885,12.40226131,1281.533813
3.2650,102.5255699,12.47989953,1281.612866
3.2700,102.3459304,12.55221527,1281.690206
3.2750,102.1685681,12.61872986,1281.76532
3.2800,101.9925301,12.68132358,1281.839178
3.2850,101.8172189,12.73862552,1281.911804
3.2900,101.6417607,12.79181578,1281.983893
3.2950,101.4652296,12.84176817,1282.056096
3.3000,101.2873275,12.88917053,1282.128816
3.3050,101.1075968,12.93410848,1282.202161
3.3100,100.9262337,12.97807088,1282.276442
3.3150,100.7430577,13.02384105,1282.352365
3.3200,100.5585608,13.07037205,1282.429452
3.3250,100.3729725,13.12038053,1282.508206
3.3300,100.1865621,13.17362352,1282.58848
3.3350,99.99867974,13.23101847,1282.670884
3.3400,99.80771998,13.29219095,1282.755923
3.3450,99.61478868,13.35726648,1282.843151
3.3500,99.42018101,13.42733365,1282.93273
3.3550,99.2236147,13.50216855,1283.024663
3.3600,99.02691711,13.5818868,1283.118173
3.3650,98.82941954,13.66652141,1283.213475
3.3700,98.63190254,13.75502114,1283.309835
3.3750,98.43432493,13.84817976,1283.407577
3.3800,98.23735566,13.94572516,1283.50627
3.3850,98.04130326,14.04808833,1283.605914
3.3900,97.84626925,14.15371977,1283.706019
3.3950,97.65295891,14.26349555,1283.806474
3.4000,97.46239121,14.37675398,1283.906653
3.4050,97.27364057,14.49301164,1284.006957
3.4100,97.08750225,14.6118552,1284.106898
3.4150,96.9042945,14.73313024,1284.206332
3.4200,96.72391315,14.85597201,1284.305058
3.4250,96.54583827,14.97875078,1284.403007
3.4300,96.37043324,15.10140123,1284.499938
3.4350,96.19682784,15.2221408,1284.595943
3.4400,96.02591448,15.34146214,1284.69071
3.4450,95.85787822,15.45804525,1284.783692
3.4500,95.69331959,15.57128566,1284.87446
3.4550,95.53148592,15.68167655,1284.963417
3.4600,95.37308426,15.78852512,1285.050115
3.4650,95.21872091,15.89106673,1285.133999
3.4700,95.06755761,15.98984974,1285.215527
3.4750,94.91913947,16.08489107,1285.294986
3.4800,94.77426598,16.17551333,1285.37178
3.4850,94.63344374,16.26178564,1285.445717
3.4900,94.49696765,16.34465612,1285.516724
3.4950,94.36474578,16.42359327,1285.584722
3.5000,94.23740401,16.49781771,1285.649173
3.5050,94.11375,16.56646019,1285.71042
3.5100,93.99393323,16.63067534,1285.768595
3.5150,93.87764982,16.69003174,1285.823691
3.5200,93.76420681,16.74478058,1285.876169
3.5250,93.6546515,16.79486719,1285.92538
3.5300,93.5491532,16.84094795,1285.971446
3.5350,93.44713764,16.88228808,1286.014412
3.5400,93.3485477,16.92015825,1286.054631
3.5450,93.25253852,16.95416076,1286.092393
3.5500,93.15913217,16.985301,1286.127974
3.5550,93.06777113,17.01351867,1286.161653
3.5600,92.97808124,17.03882183,1286.193663
3.5650,92.89000199,17.06149472,1286.22408
3.5700,92.80318324,17.08184116,1286.25317
3.5750,92.71706837,17.10063224,1286.281404
3.5800,92.63126434,17.11670615,1286.308655
3.5850,92.54603145,17.13105782,1286.334941
3.5900,92.46065225,17.14378841,1286.360782
3.5950,92.37522385,17.15438953,1286.385809
3.6000,92.28827823,17.16446392,1286.411349
3.6050,92.20010902,17.17408495,1286.437281
3.6100,92.11042317,17.183566,1286.463838
3.6150,92.01846086,17.19198027,1286.491244
3.6200,91.92411093,17.20057419,1286.51987
3.6250,91.82651758,17.20933679,1286.550277
3.6300,91.72560183,17.21944063,1286.58271
3.6350,91.62084779,17.2306304,1286.617396
3.6400,91.51370134,17.24338333,1286.653882
3.6450,91.40314336,17.2579897,1286.692774
3.6500,91.28868573,17.27485354,1286.734309
3.6550,91.16954647,17.29213537,1286.778579
3.6600,91.04543348,17.3105087,1286.825909
3.6650,90.91651827,17.32898349,1286.875951
3.6700,90.78218265,17.34782351,1286.929273
3.6750,90.64285145,17.36688139,1286.985513
3.6800,90.49830833,17.38658431,1287.044946
3.6850,90.34796439,17.4060433,1287.107564
3.6900,90.19290598,17.42595776,1287.173126
3.6950,90.0333893,17.44572283,1287.241149
3.7000,89.86846735,17.46527979,1287.312272
3.7050,89.699712,17.48532141,1287.385833
3.7100,89.5261596,17.506113,1287.462405
3.7150,89.34933027,17.5275655,1287.541199
3.7200,89.16858074,17.54946436,1287.622588
3.7250,88.9851237,17.5733421,1287.706226
3.7300,88.79959202,17.59769013,1287.79139
3.7350,88.61209059,17.62398216,1287.878325
3.7400,88.42288319,17.65164301,1287.966783
3.7450,88.23294567,17.68117895,1288.056412
3.7500,88.04150349,17.71310736,1288.147806
3.7550,87.85054143,17.74745995,1288.239881
3.7600,87.66066976,17.78505905,1288.332558
3.7650,87.47206574,17.82652694,1288.425931
3.7700,87.28477868,17.87155973,1288.519971
3.7750,87.09915909,17.92168584,1288.614834
3.7800,86.91543997,17.97553196,1288.710029
3.7850,86.73413892,18.03257795,1288.805208
3.7900,86.55582259,18.09292879,1288.900142
3.7950,86.38057854,18.15764259,1288.995053
3.8000,86.20816145,18.22514745,1289.089584
3.8050,86.03898058,18.29641173,1289.183868
3.8100,85.87295848,18.36988437,1289.27747
3.8150,85.71070098,18.44640872,1289.37042
3.8200,85.5510376,18.5252419,1289.463048
3.8250,85.39498913,18.60591886,1289.554679
3.8300,85.24160644,18.68818732,1289.645743
3.8350,85.09169506,18.77288423,1289.736158
3.8400,84.94568917,18.8592463,1289.825364
3.8450,84.80366829,18.94672522,1289.913194
3.8500,84.66492056,19.03541888,1289.999922
3.8550,84.52969316,19.12458208,1290.085247
3.8600,84.39737118,19.21438297,1290.169578
3.8650,84.26784614,19.30464248,1290.252917
3.8700,84.14098118,19.3952518,1290.335263
3.8750,84.01713366,19.4863615,1290.416552
3.8800,83.89522723,19.57812279,1290.49739
3.8850,83.77445029,19.67067287,1290.578287
3.8900,83.65617726,19.76325837,1290.658201
3.8950,83.53941524,19.85648264,1290.737976
3.9000,83.42413941,19.94886104,1290.817242
3.9050,83.31009515,20.04051677,1290.896153
3.9100,83.19670181,20.13072641,1290.974951
3.9150,83.08395552,20.22010815,1291.053722
3.9200,82.97162715,20.30809499,1291.132458
3.9250,82.85944567,20.39460036,1291.211261
3.9300,82.74847543,20.47922785,1291.289559
3.9350,82.63847373,20.56302614,1291.367737
3.9400,82.52934181,20.64567006,1291.44576
3.9450,82.42055722,20.72621841,1291.523651
3.9500,82.31228802,20.80452275,1291.601362
3.9550,82.20611757,20.88229193,1291.678331
3.9600,82.10144091,20.95873645,1291.754692
3.9650,81.99862426,21.03465677,1291.830558
3.9700,81.89914375,21.11073389,1291.905153
3.9750,81.80329964,21.18576238,1291.977993
3.9800,81.71116685,21.25989005,1292.049118
3.9850,81.62335898,21.33330068,1292.11816
3.9900,81.54001747,21.40596141,1292.185064
3.9950,81.46079977,21.47775886,1292.250124
4.0000,81.38662268,21.5493145,1292.312879
4.0050,81.31648343,21.61935067,1292.373433
4.0100,81.25100533,21.68815721,1292.431535
4.0150,81.19065462,21.75499917,1292.486762
4.0200,81.13586918,21.82055302,1292.538993
4.0250,81.08610041,21.8839942,1292.588391
4.0300,81.04097829,21.94566607,1292.635197
4.0350,81.00119628,22.00559273,1292.679042
4.0400,80.96655881,22.06257841,1292.719714
4.0450,80.93675956,22.11664064,1292.757299
4.0500,80.9118324,22.16705891,1292.791603
4.0550,80.89147841,22.21440895,1292.822948
4.0600,80.87509183,22.25798634,1292.851423
4.0650,80.86312962,22.29758842,1292.876627
4.0700,80.85518016,22.33299488,1292.898714
4.0750,80.85131855,22.36299968,1292.917216
4.0800,80.85114793,22.38884426,1292.932741
4.0850,80.85441573,22.40991173,1292.94517
4.0900,80.8603396,22.42554368,1292.954797
4.0950,80.86888653,22.435122,1292.961304
4.1000,80.8796466,22.44065024,1292.965624
4.1050,80.89251414,22.44063605,1292.967302
4.1100,80.90727912,22.43601358,1292.96682
4.1150,80.92398404,22.42707757,1292.964108
4.1200,80.94328654,22.41404399,1292.958908
4.1250,80.9643415,22.39644559,1292.951576
4.1300,80.98700862,22.37517725,1292.942437
4.1350,81.01065441,22.34826374,1292.931228
4.1400,81.03522396,22.31660896,1292.918324
4.1450,81.06007057,22.27973742,1292.903941
4.1500,81.08549349,22.23793014,1292.888106
4.1550,81.11198905,22.19258939,1292.870841
4.1600,81.13978844,22.14240428,1292.851648
4.1650,81.16871243,22.08799061,1292.830782
4.1700,81.1998169,22.02963187,1292.807742
4.1750,81.23213857,21.96711401,1292.783034
4.1800,81.26624396,21.90019044,1292.756275
4.1850,81.30278873,21.82935902,1292.727209
4.1900,81.33992403,21.75407715,1292.696742
4.1950,81.37933559,21.67559309,1292.664338
4.2000,81.42076643,21.59346815,1292.629928
4.2050,81.46419923,21.5084605,1292.593727
4.2100,81.510505,21.42076201,1292.555244
4.2150,81.55932728,21.33008181,1292.514741
4.2200,81.60978403,21.23700142,1292.472786
4.2250,81.66323487,21.14178205,1292.428782
4.2300,81.71856442,21.04499287,1292.38348
4.2350,81.77546736,20.94524309,1292.336597
4.2400,81.83411982,20.8436882,1292.288528
4.2450,81.89489934,20.74126234,1292.239213
4.2500,81.95810736,20.63952124,1292.188995
4.2550,82.02283937,20.53695226,1292.137998
4.2600,82.08958652,20.43481719,1292.086295
4.2650,82.15861588,20.33302086,1292.033701
4.2700,82.22835498,20.23125439,1291.980974
4.2750,82.29931495,20.13035781,1291.928246
4.2800,82.37145543,20.03038678,1291.875429
4.2850,82.44403617,19.93043094,1291.82284
4.2900,82.51725142,19.83119394,1291.770358
4.2950,82.59135965,19.73217287,1291.717696
4.3000,82.66645894,19.63400567,1291.664967
4.3050,82.74222038,19.53678101,1291.612446
4.3100,82.81915472,19.44008358,1291.559655
4.3150,82.89623998,19.34411657,1291.507165
4.3200,82.97299381,19.24929627,1291.455352
4.3250,83.05021236,19.15552293,1291.403813
4.3300,83.1266541,19.06293373,1291.353211
4.3350,83.20272552,18.97092959,1291.303199
4.3400,83.27714726,18.8805186,1291.254698
4.3450,83.35023747,18.79207928,1291.207644
4.3500,83.42256553,18.70492005,1291.161497
4.3550,83.49314019,18.61832817,1291.11662
4.3600,83.56320143,18.53291961,1291.072465
4.3650,83.63125008,18.44846916,1291.029735
4.3700,83.69875129,18.36542369,1290.98776
4.3750,83.7649933,18.28368074,1290.946964
4.3800,83.8303212,18.20349871,1290.907187
4.3850,83.89461058,18.12476867,1290.868481
4.3900,83.95816673,18.04790845,1290.830776
4.3950,84.02124084,17.97268845,1290.794031
4.4000,84.08361807,17.89854517,1290.758035
4.4050,84.1455677,17.82466879,1290.722524
4.4100,84.20677091,17.75110732,1290.687584
4.4150,84.26897809,17.67710136,1290.652016
4.4200,84.33163085,17.60183249,1290.615934
4.4250,84.39432393,17.52591163,1290.579624
4.4300,84.45814442,17.44794491,1290.542219
4.4350,84.52339516,17.36880852,1290.503785
4.4400,84.59001062,17.28874367,1290.464394
4.4450,84.65858943,17.20807565,1290.423855
4.4500,84.72914382,17.12639123,1290.381989
4.4550,84.80162626,17.04284594,1290.338685
4.4600,84.87569301,16.95721684,1290.294095
4.4650,84.95307695,16.87034639,1290.247469
4.4700,85.03245435,16.78089208,1290.199245
4.4750,85.11401477,16.68903341,1290.149283
4.4800,85.19926547,16.5938774,1290.096554
4.4850,85.28732842,16.49546791,1290.041499
4.4900,85.37919118,16.39322409,1289.98348
4.4950,85.47346249,16.28610053,1289.922924
4.5000,85.57043736,16.17464229,1289.859736
4.5050,85.67020305,16.05826106,1289.793809
4.5100,85.77204991,15.93643531,1289.725374
4.5150,85.87622277,15.80936037,1289.654233
4.5200,85.98309962,15.67728959,1289.580372
4.5250,86.09174184,15.53989987,1289.504139
4.5300,86.2026958,15.39654226,1289.425113
4.5350,86.31586281,15.24869066,1289.343808
4.5400,86.4310968,15.09507365,1289.259846
4.5450,86.54782569,14.93602643,1289.173781
4.5500,86.66652756,14.77054953,1289.084931
4.5550,86.78665674,14.5995463,1288.994017
4.5600,86.90763647,14.42385182,1288.901443
4.5650,87.02986205,14.24331794,1288.807011
4.5700,87.1540636,14.05771248,1288.710308
4.5750,87.27932766,13.86835222,1288.612026
4.5800,87.40589675,13.67535585,1288.512184
4.5850,87.53401457,13.4793536,1288.410703
4.5900,87.6634704,13.28000508,1288.307783
4.5950,87.79351277,13.07797952,1288.204096
4.6000,87.9240903,12.87292727,1288.099499
4.6050,88.05566797,12.66559274,1287.9939
4.6100,88.18704053,12.45658197,1287.888251
4.6150,88.31831404,12.24559087,1287.782301
4.6200,88.44996957,12.03291085,1287.675881
4.6250,88.5816925,11.81891372,1287.569188
4.6300,88.71453534,11.60409263,1287.461946
4.6350,88.84767371,11.38898212,1287.354656
4.6400,88.98185331,11.17421911,1287.247155
4.6450,89.11652252,10.9590258,1287.139537
4.6500,89.25163681,10.74527302,1287.032299
4.6550,89.38713174,10.53257286,1286.925407
4.6600,89.52288373,10.32200662,1286.819159
4.6650,89.65978597,10.11393842,1286.713226
4.6700,89.79783963,9.909007185,1286.607788
4.6750,89.93808928,9.706818077,1286.502215
4.6800,90.07939424,9.507602042,1286.397171
4.6850,90.22168679,9.31088348,1286.29256
4.6900,90.36489772,9.117443403,1286.18858
4.6950,90.5089182,8.926616879,1286.085114
4.7000,90.65521191,8.737943929,1285.981386
4.7050,90.80244866,8.552412965,1285.878279
4.7100,90.95152647,8.368956311,1285.775145
4.7150,91.10017906,8.188016272,1285.67331
4.7200,91.24935903,8.00934413,1285.57221
4.7250,91.39961659,7.83335703,1285.47174
4.7300,91.55115517,7.66007499,1285.371731
4.7350,91.70368338,7.489759923,1285.272398
4.7400,91.85815862,7.321461017,1285.173067
4.7450,92.01565645,7.155702141,1285.073299
4.7500,92.17638291,6.992323509,1284.972972
4.7550,92.34087766,6.831036803,1284.87182
4.7600,92.50881142,6.672989771,1284.770152
4.7650,92.67990322,6.516256407,1284.667706
4.7700,92.85446544,6.36276849,1284.564744
4.7750,93.03353032,6.212086368,1284.460723
4.7800,93.21661078,6.064719388,1284.355951
4.7850,93.40476711,5.919908289,1284.249787
4.7900,93.59851851,5.779324158,1284.142241
4.7950,93.79828465,5.642033693,1284.032974
4.8000,94.00396464,5.507876748,1283.922068
4.8050,94.21644784,5.376318848,1283.808974
4.8100,94.43577582,5.2469927,1283.693673
4.8150,94.66246508,5.119295804,1283.575854
4.8200,94.89635471,4.992178531,1283.45542
4.8250,95.13660036,4.865667572,1283.332771
4.8300,95.38253665,4.739043965,1283.208063
4.8350,95.63410901,4.611170196,1283.081071
4.8400,95.89189204,4.481490007,1282.951417
4.8450,96.155895,4.349384167,1282.818896
4.8500,96.42459303,4.214345117,1282.684255
4.8550,96.69852505,4.076958316,1282.547093
4.8600,96.97757237,3.935378124,1282.407211
4.8650,97.26070263,3.790547757,1282.265224
4.8700,97.54839132,3.643755405,1282.121102
4.8750,97.84045267,3.493705062,1281.974718
4.8800,98.13694151,3.340253793,1281.825951
4.8850,98.43727911,3.183880348,1281.675271
4.8900,98.74181807,3.024176127,1281.522349
4.8950,99.05042956,2.860580128,1281.366993
4.9000,99.36101088,2.693250053,1281.210275
4.9050,99.67432752,2.52269317,1281.051899
4.9100,99.99045634,2.348218001,1280.891629
4.9150,100.3082345,2.170485471,1280.730188
4.9200,100.6271148,1.989596963,1280.567796
4.9250,100.9460471,1.805219325,1280.404796
4.9300,101.2644623,1.617360818,1280.241447
4.9350,101.5818329,1.42604991,1280.078044
4.9400,101.897739,1.231192511,1279.914643
4.9450,102.2119666,1.033500974,1279.751612
4.9500,102.524061,0.8319669953,1279.588904
4.9550,102.8339741,0.6277400373,1279.426744
4.9600,103.1406073,0.4198189893,1279.265447
4.9650,103.4422811,0.2081295938,1279.105801
4.9700,103.7388909,-0.007644847306,1278.947751
4.9750,104.0294668,-0.2273590573,1278.791771
4.9800,104.3142949,-0.4508232471,1278.637756
4.9850,104.5933785,-0.6773076191,1278.485863
4.9900,104.8667769,-0.9074302814,1278.336005
4.9950,105.1343277,-1.140204305,1278.188389
5.0000,105.3952247,-1.374846723,1278.043594
5.0050,105.6503439,-1.611082948,1277.901192
5.0100,105.9006358,-1.847063285,1277.761204
5.0150,106.1469845,-2.083477861,1277.62306
5.0200,106.3905541,-2.317505767,1277.48691
5.0250,106.6308333,-2.550954748,1277.35256
5.0300,106.8689544,-2.782949692,1277.219755
5.0350,107.1054907,-3.013717227,1277.088231
5.0400,107.3402198,-3.243125787,1276.958158
5.0450,107.5729526,-3.470922041,1276.829694
5.0500,107.803315,-3.697827053,1276.702946
5.0550,108.0319454,-3.922851362,1276.577753
5.0600,108.2610764,-4.146277912,1276.453256
5.0650,108.4902572,-4.367159201,1276.32978
5.0700,108.7207809,-4.585565202,1276.20662
5.0750,108.952766,-4.800631496,1276.084001
5.0800,109.1866596,-5.012108502,1275.961757
5.0850,109.4219265,-5.219952407,1275.840037
5.0900,109.6582251,-5.425643053,1275.71882
5.0950,109.8959552,-5.628736787,1275.59794
5.1000,110.1365414,-5.829708483,1275.476697
5.1050,110.3790969,-6.028360093,1275.355502
5.1100,110.6234575,-6.224394009,1275.234398
5.1150,110.8690106,-6.418056681,1275.113559
5.1200,111.1155481,-6.609674962,1274.992943
5.1250,111.3647694,-6.799920858,1274.871783
5.1300,111.6161329,-6.988001617,1274.750384
5.1350,111.8702623,-7.173901499,1274.628415
5.1400,112.126559,-7.357442552,1274.506118
5.1450,112.3842007,-7.537864954,1274.383923
5.1500,112.6456464,-7.715168492,1274.260765
5.1550,112.9098141,-7.890946961,1274.136858
5.1600,113.1762055,-8.064349307,1274.012601
5.1650,113.4448328,-8.236801153,1273.887722
5.1700,113.7150933,-8.408877333,1273.762383
5.1750,113.9870843,-8.580764029,1273.636536
5.1800,114.2598911,-8.752826238,1273.51038
5.1850,114.5347726,-8.924362818,1273.383597
5.1900,114.8104821,-9.095377472,1273.256561
5.1950,115.0881031,-9.264988744,1273.129101
5.2000,115.3677164,-9.432671833,1273.001194
5.2050,115.6493116,-9.599331644,1272.872681
5.2100,115.9323112,-9.764084845,1272.743885
5.2150,116.218289,-9.926706196,1272.614389
5.2200,116.5067415,-10.08875217,1272.484108
5.2250,116.7972594,-10.24903696,1272.353475
5.2300,117.0900119,-10.40775251,1272.222316
5.2350,117.3847486,-10.565001,1272.090722
5.2400,117.6817904,-10.721653,1271.958487
5.2450,117.9802424,-10.87846014,1271.825883
5.2500,118.2805684,-11.03438652,1271.692846
5.2550,118.5822516,-11.1904823,1271.559499
5.2600,118.8850046,-11.3472547,1271.42587
5.2650,119.189363,-11.50474761,1271.291748
5.2700,119.4951504,-11.66368292,1271.15714
5.2750,119.8025707,-11.82363524,1271.022021
5.2800,120.1124834,-11.9848209,1270.886009
5.2850,120.4238823,-12.1468199,1270.749468
5.2900,120.7364657,-12.30982791,1270.612532
5.2950,121.0511191,-12.4732035,1270.475102
5.3000,121.3674609,-12.63679213,1270.337271
5.3050,121.6866717,-12.80078835,1270.198705
5.3100,122.0080181,-12.96582876,1270.059586
5.3150,122.3306243,-13.1310873,1269.920341
5.3200,122.6546649,-13.29889867,1269.78049
5.3250,122.9810256,-13.46707439,1269.640207
5.3300,123.3080709,-13.63633349,1269.49993
5.3350,123.6368498,-13.80694081,1269.359189
5.3400,123.9674919,-13.97806734,1269.21806
5.3450,124.2999464,-14.14984159,1269.07646
5.3500,124.6346613,-14.32197382,1268.934207
5.3550,124.9711327,-14.49474936,1268.79134
5.3600,125.3075671,-14.66815772,1268.648448
5.3650,125.6438455,-14.84269436,1268.505529
5.3700,125.980718,-15.01949047,1268.36226
5.3750,126.317522,-15.1986886,1268.218794
5.3800,126.6535037,-15.37937839,1268.075606
5.3850,126.990503,-15.56268867,1267.932021
5.3900,127.3281294,-15.74722636,1267.788352
5.3950,127.6673272,-15.93294181,1267.644372
5.4000,128.0076079,-16.11888908,1267.500474
5.4050,128.3499876,-16.30513383,1267.356275
5.4100,128.6954678,-16.4909639,1267.211594
5.4150,129.0448008,-16.67590425,1267.066221
5.4200,129.399001,-16.85957178,1266.919943
5.4250,129.7578738,-17.04074786,1266.77296
5.4300,130.1223932,-17.22139138,1266.624605
5.4350,130.492475,-17.40034224,1266.475123
5.4400,130.8685777,-17.57691639,1266.324433
5.4450,131.2513304,-17.7520318,1266.172122
5.4500,131.640344,-17.92534451,1266.018358
5.4550,132.0353619,-18.09520537,1265.863509
5.4600,132.4379684,-18.26267054,1265.706859
5.4650,132.848072,-18.42716655,1265.548467
5.4700,133.2659574,-18.5889327,1265.388307
5.4750,133.6911451,-18.74764311,1265.226537
5.4800,134.1245741,-18.90434714,1265.06289
5.4850,134.5647534,-19.05931506,1264.897715
5.4900,135.0115911,-19.2120138,1264.731223
5.4950,135.4642176,-19.36355603,1264.563477
5.5000,135.9236912,-19.51501901,1264.394159
5.5050,136.3879198,-19.66648144,1264.22397
5.5100,136.856913,-19.81841768,1264.05279
5.5150,137.329813,-19.97124677,1263.880849
5.5200,137.8049564,-20.12497115,1263.708674
5.5250,138.2823747,-20.28025397,1263.536179
5.5300,138.7615823,-20.43715842,1263.363538
5.5350,139.242092,-20.59581226,1263.19091
5.5400,139.7231539,-20.75627452,1263.018458
5.5450,140.2046183,-20.91800936,1262.846232
5.5500,140.6848064,-21.08166503,1262.674645
5.5550,141.1641177,-21.24632328,1262.503702
5.5600,141.6416368,-21.41130784,1262.333722
5.5650,142.117025,-21.57670018,1262.164812
5.5700,142.5896877,-21.74249404,1261.997087
5.5750,143.0581849,-21.90746029,1261.831035
5.5800,143.5204304,-22.07228039,1261.667119
5.5850,143.9774113,-22.23646582,1261.505255
5.5900,144.4288075,-22.39900634,1261.34554
5.5950,144.8735513,-22.5598719,1261.188225
5.6000,145.3120005,-22.71902298,1261.033155
5.6050,145.7429683,-22.87553428,1260.880933
5.6100,146.166839,-23.02815025,1260.731507
5.6150,146.5851456,-23.17756715,1260.584526
5.6200,146.9967183,-23.32345262,1260.440329
5.6250,147.4003085,-23.46694226,1260.299006
5.6300,147.7974544,-23.60746134,1260.160365
5.6350,148.1877002,-23.74447007,1260.024485
5.6400,148.5716189,-23.87966127,1259.891045
5.6450,148.9481066,-24.01342114,1259.760232
5.6500,149.3173869,-24.1457437,1259.631981
5.6550,149.6792754,-24.27777249,1259.506198
5.6600,150.0343438,-24.41012875,1259.38261
5.6650,150.3830936,-24.54360303,1259.260933
5.6700,150.7238863,-24.67767257,1259.141604
5.6750,151.058233,-24.81339561,1259.023936
5.6800,151.3874787,-24.95163895,1258.907503
5.6850,151.7100988,-25.09181998,1258.792714
5.6900,152.0281641,-25.23403796,1258.679046
5.6950,152.3409672,-25.3793249,1258.566473
5.7000,152.6472812,-25.5282844,1258.455135
5.7050,152.9480116,-25.67983291,1258.344981
5.7100,153.2425716,-25.83473339,1258.235958
5.7150,153.531982,-25.99215253,1258.128039
5.7200,153.8160475,-26.15161626,1258.021127
5.7250,154.0936472,-26.31306141,1257.915441
5.7300,154.3650209,-26.47563488,1257.811114
5.7350,154.6313717,-26.63975309,1257.707773
5.7400,154.8933965,-26.80397242,1257.605506
5.7450,155.1519846,-26.96856667,1257.504146
5.7500,155.4061793,-27.13326396,1257.40392
5.7550,155.6566543,-27.2976424,1257.304723
5.7600,155.9031238,-27.46135042,1257.206548
5.7650,156.1459863,-27.62353472,1257.109371
5.7700,156.3853897,-27.78473346,1257.013082
5.7750,156.6222139,-27.94536804,1256.917327
5.7800,156.8548688,-28.10535332,1256.822366
5.7850,157.0836556,-28.26370768,1256.728183
5.7900,157.3084657,-28.42232102,1256.634562
5.7950,157.5280905,-28.57952563,1256.541928
5.8000,157.743377,-28.7347502,1256.450103
5.8050,157.9537889,-28.88786857,1256.359101
5.8100,158.1605498,-29.03922525,1256.268659
5.8150,158.3628687,-29.18881061,1256.178917
5.8200,158.5626014,-29.33556857,1256.089575
5.8250,158.7590297,-29.47957844,1256.000855
5.8300,158.9526557,-29.62019429,1255.912715
5.8350,159.1426357,-29.75812045,1255.825272
5.8400,159.3299081,-29.89229903,1255.73857
5.8450,159.5131095,-30.02319647,1255.65285
5.8500,159.6936264,-30.15035093,1255.567882
5.8550,159.8699698,-30.27496002,1255.483788
5.8600,160.0418316,-30.39708242,1255.400509
5.8650,160.2085929,-30.51752298,1255.318041
5.8700,160.370387,-30.63594167,1255.236319
5.8750,160.5276853,-30.75490271,1255.154987
5.8800,160.6811436,-30.87379765,1255.074004
5.8850,160.8297956,-30.99397554,1254.993402
5.8900,160.9739741,-31.11545985,1254.913068
5.8950,161.1135129,-31.23900454,1254.832934
5.9000,161.2481419,-31.36463612,1254.753108
5.9050,161.3789015,-31.49178231,1254.673384
5.9100,161.5049932,-31.62185225,1254.593856
5.9150,161.6255706,-31.75451536,1254.514672
5.9200,161.7408862,-31.8893414,1254.435904
5.9250,161.8516894,-32.02598448,1254.357453
5.9300,161.9567159,-32.16519604,1254.279387
5.9350,162.0564246,-32.30740327,1254.201657
5.9400,162.1495536,-32.45183521,1254.124539
5.9450,162.2373981,-32.5990852,1254.047728
5.9500,162.3189168,-32.7496397,1253.971342
5.9550,162.3945034,-32.90320777,1253.895391
5.9600,162.4649305,-33.05971606,1253.819662
5.9650,162.5293505,-33.2174135,1253.744564
5.9700,162.5882418,-33.37681431,1253.669922
5.9750,162.641113,-33.53679206,1253.596116
5.9800,162.6863909,-33.6972547,1253.523339
5.9850,162.7245292,-33.85712459,1253.451589
5.9900,162.7547026,-34.0164807,1253.380994
5.9950,162.7773131,-34.17388401,1253.311647
6.0000,162.7928336,-34.3278965,1253.243511
6.0050,162.8003222,-34.47976554,1253.176524
6.0100,162.8008438,-34.6282695,1253.110604
6.0150,162.793938,-34.77458632,1253.045534
6.0200,162.7806698,-34.91753019,1252.981361
6.0250,162.7617864,-35.05890879,1252.917723
6.0300,162.7369227,-35.19727322,1252.854721
6.0350,162.7059773,-35.33214683,1252.792451
6.0400,162.669873,-35.46399343,1252.730639
6.0450,162.6283578,-35.59077526,1252.669513
6.0500,162.5828906,-35.71310702,1252.608809
6.0550,162.5344867,-35.83072222,1252.548366
6.0600,162.4825187,-35.94281987,1252.488454
6.0650,162.4275999,-36.0493942,1252.429127
6.0700,162.3690383,-36.1509565,1252.37038
6.0750,162.3064563,-36.24635993,1252.312472
6.0800,162.2410585,-36.33567891,1252.255189
6.0850,162.171375,-36.41940686,1252.198748
6.0900,162.097179,-36.49650346,1252.143208
6.0950,162.0197467,-36.56781228,1252.088319
6.1000,161.9366088,-36.63450779,1252.034282
6.1050,161.848761,-36.69586703,1251.98105
6.1100,161.7546,-36.75272883,1251.928935
6.1150,161.6542965,-36.80479856,1251.877774
6.1200,161.5470104,-36.85379749,1251.827638
6.1250,161.4332149,-36.8988858,1251.77849
6.1300,161.311322,-36.94173415,1251.730466
6.1350,161.1825498,-36.98209098,1251.683298
6.1400,161.0454674,-37.02178159,1251.637004
6.1450,160.9022908,-37.06009031,1251.591261
6.1500,160.7512089,-37.09846194,1251.546088
6.1550,160.5940155,-37.13703998,1251.501196
6.1600,160.4312584,-37.17645672,1251.456471
6.1650,160.265266,-37.21492351,1251.411748
6.1700,160.0951896,-37.25289468,1251.367183
6.1750,159.9220742,-37.28886686,1251.322815
6.1800,159.7475345,-37.32270766,1251.278401
6.1850,159.5722205,-37.35374129,1251.233974
6.1900,159.3958999,-37.38241971,1251.18964
6.1950,159.219664,-37.40843873,1251.145324
6.2000,159.0429797,-37.4317063,1251.101168
6.2050,158.8665586,-37.45326984,1251.056872
6.2100,158.68995,-37.47200136,1251.01269
6.2150,158.5150211,-37.48787625,1250.96831
6.2200,158.3426525,-37.50123649,1250.923532
6.2250,158.1716323,-37.51187953,1250.878548
6.2300,158.0023068,-37.51988788,1250.833275
6.2350,157.833521,-37.52565704,1250.787883
6.2400,157.6654638,-37.5293873,1250.742279
6.2450,157.4974559,-37.53043769,1250.696686
6.2500,157.3303319,-37.5287956,1250.651007
6.2550,157.1631391,-37.52477174,1250.60546
6.2600,156.9963262,-37.51849076,1250.559985
6.2650,156.8306222,-37.51179647,1250.514309
6.2700,156.6654606,-37.5037051,1250.468701
6.2750,156.5002193,-37.49596372,1250.422946
6.2800,156.3369121,-37.4882161,1250.376781
6.2850,156.1754024,-37.4815545,1250.330128
6.2900,156.016481,-37.47597368,1250.282766
6.2950,155.859998,-37.47146121,1250.234711
6.3000,155.7072235,-37.46936775,1250.185676
6.3050,155.5586931,-37.46873758,1250.135621
6.3100,155.415053,-37.46963299,1250.084468
6.3150,155.2765593,-37.47068863,1250.032313
6.3200,155.1432349,-37.47250744,1249.978993
6.3250,155.0162545,-37.47405044,1249.924502
6.3300,154.8964035,-37.47498902,1249.868693
6.3350,154.7843121,-37.47633148,1249.811398
6.3400,154.6774393,-37.47705099,1249.753159
6.3450,154.577494,-37.47891799,1249.693529
6.3500,154.4831441,-37.48086813,1249.632734
6.3550,154.3935833,-37.48512109,1249.570745
6.3600,154.3100623,-37.49131182,1249.50726
6.3650,154.2312165,-37.50040632,1249.442344
6.3700,154.1575341,-37.51203706,1249.375941
6.3750,154.0877066,-37.52776207,1249.308128
6.3800,154.0211768,-37.54754817,1249.239093
6.3850,153.9574179,-37.57192874,1249.168909
6.3900,153.8958716,-37.60119272,1249.097633
6.3950,153.8353836,-37.63643367,1249.025434
6.4000,153.7759772,-37.67735301,1248.952348
6.4050,153.7171099,-37.72427142,1248.878448
6.4100,153.6583772,-37.77646493,1248.803765
6.4150,153.5983439,-37.83463319,1248.728541
6.4200,153.5366457,-37.89737907,1248.653029
6.4250,153.4733922,-37.96613941,1248.577054
6.4300,153.4087977,-38.03970788,1248.500655
6.4350,153.3407226,-38.11769068,1248.424286
6.4400,153.2685719,-38.19992251,1248.348059
6.4450,153.1915291,-38.28700129,1248.271992
6.4500,153.1103299,-38.37875887,1248.19623
6.4550,153.0238758,-38.47442555,1248.121006
6.4600,152.9323926,-38.5740084,1248.046343
6.4650,152.8349865,-38.67709653,1247.97247
6.4700,152.730903,-38.78431257,1247.899456
6.4750,152.6202091,-38.89416551,1247.827377
6.4800,152.5017468,-39.00685965,1247.756382
6.4850,152.3766814,-39.12107714,1247.686412
6.4900,152.2454115,-39.23626327,1247.617459
6.4950,152.1082345,-39.35116322,1247.549606
6.5000,151.966055,-39.46465401,1247.482773
6.5050,151.8179112,-39.57632688,1247.417225
6.5100,151.664689,-39.68657214,1247.352787
6.5150,151.5058178,-39.79499816,1247.289472
6.5200,151.3409114,-39.90199133,1247.227396
6.5250,151.1715042,-40.0074896,1247.166303
6.5300,150.9975499,-40.111527,1247.106208
6.5350,150.8206443,-40.21415193,1247.046921
6.5400,150.6404517,-40.3156181,1246.98844
6.5450,150.4583762,-40.4166911,1246.930558
6.5500,150.2756696,-40.51657874,1246.873179
6.5550,150.0927232,-40.61636327,1246.816097
6.5600,149.9096422,-40.71589389,1246.759426
6.5650,149.7280142,-40.81532529,1246.702895
6.5700,149.5471985,-40.9153182,1246.64654
6.5750,149.3688992,-41.01567957,1246.590194
6.5800,149.192011,-41.11802239,1246.533915
6.5850,149.018659,-41.22208821,1246.477376
6.5900,148.84926,-41.32836002,1246.420713
6.5950,148.6859642,-41.43778043,1246.363398
6.6000,148.5305148,-41.54921383,1246.305368
6.6050,148.3852529,-41.66295809,1246.246221
6.6100,148.2497711,-41.77860634,1246.186185
6.6150,148.1277049,-41.89715253,1246.124783
6.6200,148.0195964,-42.01908818,1246.061993
6.6250,147.9276644,-42.14371366,1245.997531
6.6300,147.8535013,-42.27125014,1245.931164
6.6350,147.7973223,-42.40186205,1245.862888
6.6400,147.7624773,-42.53668526,1245.792029
6.6450,147.7481519,-42.67546807,1245.718829
6.6500,147.7547607,-42.81974911,1245.643168
6.6550,147.7838844,-42.96787947,1245.564861
6.6600,147.8351177,-43.12127942,1245.483963
6.6650,147.9077963,-43.28000463,1245.400503
6.6700,148.0004311,-43.44493217,1245.314852
6.6750,148.1125017,-43.61618903,1245.226977
6.6800,148.2423232,-43.79355341,1245.137173
6.6850,148.3894983,-43.97724598,1245.04554
6.6900,148.5514453,-44.16791457,1244.952555
6.6950,148.7261731,-44.36444825,1244.858499
6.7000,148.9110199,-44.56661881,1244.763992
6.7050,149.1039936,-44.77450098,1244.669327
6.7100,149.3019991,-44.98811922,1244.574993
6.7150,149.5036791,-45.20575045,1244.481307
6.7200,149.7065618,-45.42787057,1244.388502
6.7250,149.9080063,-45.65331246,1244.296921
6.7300,150.1066036,-45.88135737,1244.206855
6.7350,150.3011889,-46.11112716,1244.11838
6.7400,150.4912055,-46.34171106,1244.031513
6.7450,150.6744148,-46.57304257,1243.94653
6.7500,150.8484761,-46.80322805,1243.863825
6.7550,151.0122657,-47.03163786,1243.783484
6.7600,151.1659284,-47.25732758,1243.705394
6.7650,151.3083979,-47.48098441,1243.629613
6.7700,151.4405349,-47.70117529,1243.556004
6.7750,151.561143,-47.91879262,1243.484616
6.7800,151.6703411,-48.13259436,1243.415547
6.7850,151.7666516,-48.34268518,1243.348945
6.7900,151.8505359,-48.54887243,1243.28469
6.7950,151.9226238,-48.75125762,1243.222578
6.8000,151.9821319,-48.95057067,1243.162728
6.8050,152.0288588,-49.1464282,1243.105167
6.8100,152.0627898,-49.33948667,1243.049793
6.8150,152.0843134,-49.52943907,1242.996688
6.8200,152.092216,-49.71566473,1242.945995
6.8250,152.0874803,-49.89900366,1242.897508
6.8300,152.069741,-50.07980844,1242.851289
6.8350,152.0396184,-50.2576251,1242.807278
6.8400,151.9980724,-50.4321217,1242.765379
6.8450,151.9450416,-50.60393914,1242.7256
6.8500,151.8806844,-50.77347886,1242.687889
6.8550,151.8063723,-50.93953714,1242.652159
6.8600,151.7230288,-51.10342968,1242.618221
6.8650,151.6313322,-51.26343919,1242.586055
6.8700,151.5344041,-51.42096048,1242.555171
6.8750,151.4327701,-51.57557571,1242.525537
6.8800,151.3282261,-51.72648156,1242.496889
6.8850,151.2218783,-51.87422427,1242.469081
6.8900,151.1157229,-52.0187532,1242.441808
6.8950,151.0102764,-52.16009328,1242.415008
6.9000,150.9064288,-52.29929313,1242.388463
6.9050,150.8051957,-52.43674563,1242.362065
6.9100,150.7085687,-52.57306365,1242.33545
6.9150,150.615809,-52.70747775,1242.308736
6.9200,150.5289547,-52.84026735,1242.281661
6.9250,150.4477746,-52.97198738,1242.254296
6.9300,150.372983,-53.10163126,1242.226697
6.9350,150.3062048,-53.22935163,1242.198608
6.9400,150.2469268,-53.3547184,1242.170252
6.9450,150.1973371,-53.47696277,1242.141233
6.9500,150.1567767,-53.59606865,1242.111745
6.9550,150.1259799,-53.71286754,1242.081624
6.9600,150.1046255,-53.82635714,1242.051002
6.9650,150.0922887,-53.93796724,1242.019961
6.9700,150.0897954,-54.04649919,1241.988296
6.9750,150.0965017,-54.1525211,1241.956108
6.9800,150.1120621,-54.25546715,1241.923494
6.9850,150.1366507,-54.35578148,1241.890284
6.9900,150.1692244,-54.4534799,1241.856669
6.9950,150.2101194,-54.54849264,1241.822594
7.0000,150.2586859,-54.64087996,1241.78805
7.0050,150.3139352,-54.73076946,1241.753164
7.0100,150.3757218,-54.81718161,1241.717996
7.0150,150.4421788,-54.90087088,1241.682761
7.0200,150.5129106,-54.98127999,1241.64754
7.0250,150.586268,-55.05851418,1241.612564
7.0300,150.6606447,-55.13297446,1241.578035
7.0350,150.7357444,-55.20565661,1241.543954
7.0400,150.8093618,-55.27541268,1241.510721
7.0450,150.8810863,-55.34153781,1241.47847
7.0500,150.9504983,-55.40521498,1241.447031
7.0550,151.0167208,-55.46576789,1241.416769
7.0600,151.0778907,-55.52342292,1241.388045
7.0650,151.1347588,-55.57766926,1241.36069
7.0700,151.1852013,-55.62792502,1241.335158
7.0750,151.2297484,-55.67369035,1241.311389
7.0800,151.2673159,-55.7153681,1241.2895
7.0850,151.2984773,-55.75220519,1241.269418
7.0900,151.3228826,-55.78516428,1241.251236
7.0950,151.3389362,-55.81369898,1241.235187
7.1000,151.3477816,-55.83754453,1241.221065
7.1050,151.3498734,-55.85659978,1241.208876
7.1100,151.3456082,-55.87131626,1241.198517
7.1150,151.3345283,-55.88034597,1241.190149
7.1200,151.3177579,-55.88509421,1241.183595
7.1250,151.2951359,-55.88512963,1241.178987
7.1300,151.2681289,-55.88035978,1241.176162
7.1350,151.2359581,-55.87147996,1241.175183
7.1400,151.1992535,-55.85860215,1241.176067
7.1450,151.1590624,-55.84179912,1241.178662
7.1500,151.1165993,-55.82116106,1241.182838
7.1550,151.0721433,-55.79804003,1241.188564
7.1600,151.0262344,-55.77160761,1241.195781
7.1650,150.9784301,-55.74383303,1241.204602
7.1700,150.9296638,-55.71344832,1241.215012
7.1750,150.8813114,-55.68171531,1241.226736
7.1800,150.8349395,-55.64870974,1241.239625
7.1850,150.7899429,-55.61543687,1241.253791
7.1900,150.7479202,-55.58102091,1241.26895
7.1950,150.7086527,-55.54676052,1241.285294
7.2000,150.6737498,-55.51275132,1241.302601
7.2050,150.643289,-55.47830624,1241.320992
7.2100,150.6179198,-55.44386175,1241.340364
7.2150,150.5992307,-55.41051523,1241.360349
7.2200,150.5870931,-55.37710097,1241.38111
7.2250,150.5832516,-55.34314602,1241.40236
7.2300,150.5874388,-55.31097271,1241.42408
7.2350,150.600298,-55.27979412,1241.446187
7.2400,150.62112,-55.24944774,1241.468768
7.2450,150.6498039,-55.22100875,1241.491822
7.2500,150.6876893,-55.19444505,1241.51518
7.2550,150.7334734,-55.1691235,1241.539161
7.2600,150.7879008,-55.14697993,1241.56364
7.2650,150.8503396,-55.12626706,1241.588719
7.2700,150.9208591,-55.1071287,1241.614483
7.2750,150.9995868,-55.08956776,1241.640983
7.2800,151.0869226,-55.0741697,1241.668109
7.2850,151.182246,-55.06164251,1241.695958
7.2900,151.2857411,-55.05112338,1241.724571
7.2950,151.3966332,-55.04318446,1241.754049
7.3000,151.51446,-55.03732122,1241.784475
7.3050,151.6383319,-55.03367823,1241.815979
7.3100,151.7681733,-55.03276035,1241.848514
7.3150,151.9035988,-55.03342371,1241.882074
7.3200,152.044534,-55.03595974,1241.9167
7.3250,152.1896018,-55.03969376,1241.952688
7.3300,152.3370125,-55.04507869,1241.990177
7.3350,152.4862971,-55.05052807,1242.029324
7.3400,152.6369927,-55.05629289,1242.070108
7.3450,152.7883768,-55.06224617,1242.112612
7.3500,152.9387317,-55.06714482,1242.157142
7.3550,153.087766,-55.07085959,1242.203635
7.3600,153.2336526,-55.07315062,1242.252274
7.3650,153.3739727,-55.07273306,1242.303455
7.3700,153.5092132,-55.07007691,1242.35696
7.3750,153.6380633,-55.06399811,1242.412987
7.3800,153.7598833,-55.0540613,1242.471573
7.3850,153.8740004,-55.04104204,1242.532725
7.3900,153.9795284,-55.02319764,1242.596616
7.3950,154.0768536,-55.00072678,1242.6632
7.4000,154.1654092,-54.97345849,1242.732486
7.4050,154.2449071,-54.94075882,1242.80444
7.4100,154.3152282,-54.90204383,1242.879034
7.4150,154.3770123,-54.85864633,1242.956052
7.4200,154.430269,-54.80908651,1243.035426
7.4250,154.475648,-54.75383416,1243.117042
7.4300,154.5129962,-54.69243,1243.200902
7.4350,154.54321,-54.62494233,1243.286846
7.4400,154.5664459,-54.55244257,1243.374695
7.4450,154.5820851,-54.47405121,1243.46462
7.4500,154.590676,-54.39099161,1243.556465
7.4550,154.5924857,-54.30286444,1243.650169
7.4600,154.5873187,-54.21007426,1243.745676
7.4650,154.5760136,-54.11183454,1243.842848
7.4700,154.5583439,-54.00949379,1243.941602
7.4750,154.534584,-53.90237359,1244.041916
7.4800,154.5041814,-53.79035189,1244.143885
7.4850,154.4675185,-53.6736749,1244.247392
7.4900,154.4239988,-53.55370417,1244.352478
7.4950,154.3742299,-53.43005197,1244.458987
7.5000,154.3179008,-53.30246218,1244.567021
7.5050,154.2549236,-53.17265419,1244.676426
7.5100,154.1851696,-53.04091547,1244.787178
7.5150,154.1081083,-52.90598221,1244.899436
7.5200,154.0247983,-52.76971359,1245.012879
7.5250,153.9346903,-52.63232187,1245.127572
7.5300,153.839111,-52.49311781,1245.243217
7.5350,153.7376067,-52.35275892,1245.3599
7.5400,153.6323452,-52.211507,1245.477248
7.5450,153.5229023,-52.06956597,1245.595369
7.5500,153.4098861,-51.92645764,1245.714142
7.5550,153.2945399,-51.78365597,1245.833275
7.5600,153.1763518,-51.6395135,1245.95282
7.5650,153.0569443,-51.49545422,1246.072476
7.5700,152.9364183,-51.35114912,1246.192131
7.5750,152.8155234,-51.20617913,1246.311668
7.5800,152.6953794,-51.06083147,1246.430942
7.5850,152.5770422,-50.91464534,1246.549855
7.5900,152.461123,-50.76741274,1246.668302
7.5950,152.3483081,-50.61919729,1246.786209
7.6000,152.2404908,-50.47130227,1246.903163
7.6050,152.1379703,-50.32367206,1247.019244
7.6100,152.0405898,-50.17585781,1247.134469
7.6150,151.9498149,-50.02925481,1247.248642
7.6200,151.8642683,-49.88318884,1247.361963
7.6250,151.7867639,-49.73874279,1247.473874
7.6300,151.7177915,-49.59444046,1247.584495
7.6350,151.6587498,-49.45166939,1247.693587
7.6400,151.6100572,-49.30920889,1247.801185
7.6450,151.5719946,-49.16715108,1247.907168
7.6500,151.5466855,-49.02502507,1248.01128
7.6550,151.5339812,-48.88325034,1248.113438
7.6600,151.5348542,-48.73954458,1248.213618
7.6650,151.5491951,-48.59574483,1248.311565
7.6700,151.5768766,-48.44958258,1248.407444
7.6750,151.6172717,-48.30293597,1248.501203
7.6800,151.6713359,-48.15481634,1248.59267
7.6850,151.7382722,-48.00395854,1248.682038
7.6900,151.8183613,-47.85044563,1248.769182
7.6950,151.9109537,-47.69448417,1248.854111
7.7000,152.0153234,-47.5352753,1248.937077
7.7050,152.1306716,-47.37312508,1249.018195
7.7100,152.2571494,-47.20766315,1249.097416
7.7150,152.3933594,-47.03830713,1249.175048
7.7200,152.539438,-46.86495397,1249.251047
7.7250,152.6940311,-46.68808187,1249.325572
7.7300,152.8565298,-46.50791276,1249.398564
7.7350,153.0264512,-46.32496684,1249.470136
7.7400,153.2027512,-46.13898431,1249.54038
7.7450,153.385888,-45.94995693,1249.60922
7.7500,153.5744385,-45.75794257,1249.676897
7.7550,153.7693713,-45.56278424,1249.743313
7.7600,153.9700512,-45.36533521,1249.808563
7.7650,154.176076,-45.16557507,1249.872713
7.7700,154.3860345,-44.9629672,1249.936102
7.7750,154.5986023,-44.75801636,1249.998926
7.7800,154.8131851,-44.55012327,1250.061315
7.7850,155.0303025,-44.33995684,1250.123256
7.7900,155.2478433,-44.12710566,1250.185157
7.7950,155.4653974,-43.91069697,1250.247066
7.8000,155.6812446,-43.6918288,1250.309226
7.8050,155.8947612,-43.46870894,1250.371825
7.8100,156.1053119,-43.24246188,1250.435032
7.8150,156.3127758,-43.01370379,1250.498848
7.8200,156.5144389,-42.782091,1250.563767
7.8250,156.7097848,-42.54792054,1250.629915
7.8300,156.898266,-42.31157571,1250.697398
7.8350,157.0786232,-42.0731817,1250.766429
7.8400,157.2506528,-41.83413759,1250.836949
7.8450,157.412877,-41.59413315,1250.90925
7.8500,157.5661378,-41.35404166,1250.983049
7.8550,157.7085849,-41.11418643,1251.058643
7.8600,157.8413607,-40.8749177,1251.135779
7.8650,157.9648161,-40.63670376,1251.214351
7.8700,158.0794298,-40.40107707,1251.294053
7.8750,158.1857456,-40.16839537,1251.37482
7.8800,158.2827751,-39.93888172,1251.456694
7.8850,158.3714399,-39.71263954,1251.539474
7.8900,158.4527006,-39.48991257,1251.622946
7.8950,158.5267858,-39.2708445,1251.706988
7.9000,158.5931598,-39.05417808,1251.791681
7.9050,158.6533823,-38.84014723,1251.87666
7.9100,158.7076601,-38.62823266,1251.961938
7.9150,158.756415,-38.41825091,1252.047384
7.9200,158.8000187,-38.20986081,1252.133012
7.9250,158.8380837,-38.00249076,1252.218912
7.9300,158.8718841,-37.79606275,1252.304839
7.9350,158.8989726,-37.58955292,1252.39125
7.9400,158.9206984,-37.38385823,1252.477882
7.9450,158.9362884,-37.17819314,1252.564888
7.9500,158.9448784,-36.9726478,1252.652447
7.9550,158.9463574,-36.76584637,1252.740728
7.9600,158.9410429,-36.55867674,1252.829587
7.9650,158.9294512,-36.35011656,1252.919076
7.9700,158.9118589,-36.14063396,1253.00917
7.9750,158.8886812,-35.92864149,1253.100054
7.9800,158.8597428,-35.71482027,1253.191729
7.9850,158.825474,-35.4981143,1253.284264
7.9900,158.7857287,-35.27914542,1253.377658
7.9950,158.7404501,-35.05609311,1253.472181
8.0000,158.690275,-34.83006624,1253.567566
8.0050,158.6367869,-34.6005736,1253.663559
8.0100,158.57888,-34.36671125,1253.760435
8.0150,158.5173969,-34.12816625,1253.858083
8.0200,158.4525579,-33.88529115,1253.956494
8.0250,158.384805,-33.6365814,1254.055702
8.0300,158.315285,-33.38183484,1254.155651
8.0350,158.2431558,-33.12091439,1254.256402
8.0400,158.168757,-32.8544447,1254.357909
8.0450,158.0922567,-32.58274382,1254.460018
8.0500,158.0133945,-32.30614649,1254.562772
8.0550,157.929778,-32.02502253,1254.666549
8.0600,157.8433216,-31.73857316,1254.771092
8.0650,157.7518024,-31.44804298,1254.876631
8.0700,157.6565336,-31.15422226,1254.982836
8.0750,157.5567909,-30.85764196,1255.089836
8.0800,157.4534131,-30.55899451,1255.197354
8.0850,157.3460657,-30.25676654,1255.30561
8.0900,157.2338393,-29.9523201,1255.414675
8.0950,157.118257,-29.64559966,1255.524267
8.1000,156.9988041,-29.33683526,1255.634436
8.1050,156.8759067,-29.0263721,1255.745144
8.1100,156.7498859,-28.7140669,1255.856355
8.1150,156.6196855,-28.40037689,1255.968234
8.1200,156.4867917,-28.08481406,1256.080677
8.1250,156.3514997,-27.76790486,1256.193624
8.1300,156.2141633,-27.44872174,1256.307191
8.1350,156.0760892,-27.12663534,1256.421229
8.1400,155.9378,-26.80153683,1256.535726
8.1450,155.8006028,-26.47141811,1256.650655
8.1500,155.6640821,-26.1354092,1256.766251
8.1550,155.5297819,-25.79387138,1256.882148
8.1600,155.39803,-25.44733102,1256.998299
8.1650,155.2685476,-25.09570524,1257.114683
8.1700,155.1413733,-24.73866354,1257.23148
8.1750,155.016801,-24.37576353,1257.348532
8.1800,154.8950896,-24.007946,1257.465732
8.1850,154.7759436,-23.63504732,1257.58303
8.1900,154.6592505,-23.25764625,1257.700345
8.1950,154.5447183,-22.87612054,1257.817637
8.2000,154.4318122,-22.49160956,1257.934967
8.2050,154.3198755,-22.10508619,1258.05233
8.2100,154.2090663,-21.71674123,1258.169665
8.2150,154.0981119,-21.32659822,1258.287198
8.2200,153.9878743,-20.93586999,1258.404613
8.2250,153.8777608,-20.54445753,1258.522024
8.2300,153.7678856,-20.15269853,1258.639437
8.2350,153.6576129,-19.76159124,1258.756806
8.2400,153.5448475,-19.37179269,1258.874428
8.2450,153.4296566,-18.98352105,1258.99243
8.2500,153.3119277,-18.59611053,1259.110912
8.2550,153.191706,-18.21074393,1259.229657
8.2600,153.0681325,-17.82676708,1259.349017
8.2650,152.9415436,-17.44507967,1259.468868
8.2700,152.8123938,-17.0650514,1259.589303
8.2750,152.680038,-16.68690842,1259.710378
8.2800,152.5448217,-16.31032978,1259.832112
8.2850,152.4066712,-15.93645058,1259.954392
8.2900,152.26567,-15.56479183,1260.077319
8.2950,152.1213098,-15.19545865,1260.200958
8.3000,151.973581,-14.82812359,1260.325294
8.3050,151.8221365,-14.46237619,1260.450529
8.3100,151.6681802,-14.09856403,1260.576331
8.3150,151.511907,-13.7374026,1260.70234
8.3200,151.352602,-13.3786507,1260.828635
8.3250,151.1911381,-13.02315633,1260.95482
8.3300,151.0267531,-12.67170448,1261.080877
8.3350,150.8601586,-12.32462861,1261.206524
8.3400,150.6900628,-11.98177344,1261.332036
8.3450,150.5166958,-11.64397183,1261.457233
8.3500,150.3395731,-11.31048662,1261.582245
8.3550,150.1600195,-10.9813806,1261.706759
8.3600,149.9762587,-10.65685489,1261.831168
8.3650,149.7901146,-10.33698753,1261.955048
8.3700,149.6009877,-10.02072418,1262.078693
8.3750,149.4089534,-9.706909175,1262.202349
8.3800,149.2136359,-9.396409009,1262.326078
8.3850,149.0154896,-9.089417022,1262.449669
8.3900,148.8147372,-8.78538461,1262.573106
8.3950,148.6095739,-8.485290238,1262.696801
8.4000,148.4012764,-8.187993268,1262.820576
8.4050,148.189587,-7.893828578,1262.944541
8.4100,147.9744423,-7.600902254,1263.068973
8.4150,147.7560011,-7.309486758,1263.193852
8.4200,147.5349012,-7.018521719,1263.319168
8.4250,147.3103601,-6.728077765,1263.445026
8.4300,147.0830157,-6.438838582,1263.571332
8.4350,146.8526877,-6.150115866,1263.69818
8.4400,146.61899,-5.861063412,1263.825806
8.4450,146.3817066,-5.573319047,1263.954059
8.4500,146.1402656,-5.287892947,1264.082877
8.4550,145.8952254,-5.003746197,1264.212335
8.4600,145.6456528,-4.721510685,1264.342522
8.4650,145.3911792,-4.440834147,1264.47357
8.4700,145.1321974,-4.159893099,1264.605714
8.4750,144.8675883,-3.880594539,1264.739068
8.4800,144.5976358,-3.601493541,1264.873747
8.4850,144.3212811,-3.323730214,1265.010091
8.4900,144.0384915,-3.047330171,1265.148049
8.4950,143.7493564,-2.77090905,1265.288042
8.5000,143.4538598,-2.494009031,1265.430175
8.5050,143.1522176,-2.214967032,1265.574715
8.5100,142.8446183,-1.934939731,1265.721502
8.5150,142.5306877,-1.654289907,1265.870712
8.5200,142.2094692,-1.372270969,1266.022784
8.5250,141.88074,-1.087862454,1266.178087
8.5300,141.5443071,-0.8020575591,1266.336475
8.5350,141.2003314,-0.5139395866,1266.498164
8.5400,140.8480878,-0.2238656766,1266.663282
8.5450,140.4882773,0.06828374163,1266.831662
8.5500,140.1196933,0.3606459441,1267.003253
8.5550,139.7437549,0.6544009154,1267.178029
8.5600,139.3608077,0.9489923595,1267.35579
8.5650,138.9706159,1.246429543,1267.537103
8.5700,138.5727351,1.544958084,1267.72166
8.5750,138.1688543,1.84515831,1267.909091
8.5800,137.757807,2.146896389,1268.099711
8.5850,137.3401609,2.45025215,1268.293373
8.5900,136.9156196,2.755871362,1268.490236
8.5950,136.4845181,3.061487671,1268.689752
8.6000,136.0472849,3.368125863,1268.891966
8.6050,135.6037064,3.675057012,1269.096813
8.6100,135.1536845,3.983479829,1269.304635
8.6150,134.6965346,4.292768968,1269.515636
8.6200,134.2340305,4.604543027,1269.729642
8.6250,133.7670364,4.917940123,1269.946258
8.6300,133.2958087,5.233742326,1270.165601
8.6350,132.8204437,5.552517058,1270.387868
8.6400,132.3437165,5.874898462,1270.612231
8.6450,131.8653488,6.201435816,1270.838788
8.6500,131.3866113,6.533071353,1271.067432
8.6550,130.907782,6.86916694,1271.297865
8.6600,130.42981,7.210481033,1271.530033
8.6650,129.9533094,7.556905577,1271.763729
8.6700,129.4780952,7.907489806,1271.998832
8.6750,129.0049235,8.262486719,1272.235063
8.6800,128.5343646,8.620945222,1272.471964
8.6850,128.0663945,8.982914495,1272.709583
8.6900,127.6012971,9.348237182,1272.947793
8.6950,127.1402742,9.71748099,1273.186265
8.7000,126.6842273,10.09075183,1273.424726
8.7050,126.2340331,10.46796242,1273.66288
8.7100,125.7895623,10.84785544,1273.900511
8.7150,125.3512652,11.23149607,1274.137647
8.7200,124.918853,11.61758233,1274.37409
8.7250,124.4937509,12.0057548,1274.609453
8.7300,124.0741471,12.395508,1274.844004
8.7350,123.65972,12.786015,1275.07785
8.7400,123.2492979,13.17672185,1275.31127
8.7450,122.843283,13.56680838,1275.543885
8.7500,122.4418352,13.95677288,1275.775757
8.7550,122.0447651,14.34542495,1276.006664
8.7600,121.6516588,14.73368483,1276.236973
8.7650,121.2630999,15.12025372,1276.466265
8.7700,120.8785922,15.50199595,1276.693864
8.7750,120.4974552,15.87966124,1276.920065
8.7800,120.1191235,16.25172098,1277.144706
8.7850,119.7421234,16.61799379,1277.368162
8.7900,119.3673555,16.97866009,1277.590178
8.7950,118.9939668,17.33275789,1277.810684
8.8000,118.6219767,17.68033215,1278.029588
8.8050,118.2507251,18.02138473,1278.24732
8.8100,117.8800885,18.35565227,1278.463705
8.8150,117.5114951,18.68476204,1278.678639
8.8200,117.1459274,19.0075646,1278.891339
8.8250,116.7834572,19.32388134,1279.101708
8.8300,116.4238793,19.63407719,1279.30981
8.8350,116.0682059,19.9379259,1279.515121
8.8400,115.7178258,20.23671439,1279.717421
8.8450,115.3724298,20.52986428,1279.916705
8.8500,115.0333835,20.81857114,1280.112768
8.8550,114.6993043,21.10205445,1280.305962
8.8600,114.3702656,21.3791252,1280.495921
8.8650,114.0457916,21.64856825,1280.682434
8.8700,113.7256179,21.91056336,1280.865813
8.8750,113.4081572,22.16419719,1281.04646
8.8800,113.0937245,22.40917638,1281.224177
8.8850,112.7815716,22.64416238,1281.398847
8.8900,112.4704427,22.86893552,1281.570989
8.8950,112.1612034,23.08558404,1281.740714
8.9000,111.8529665,23.29310382,1281.90815
8.9050,111.5445174,23.49299862,1282.074064
8.9100,111.236014,23.683748,1282.237978
8.9150,110.9283752,23.86651392,1282.39981
8.9200,110.6196696,24.0400509,1282.559979
8.9250,110.307226,24.20656701,1282.720137
8.9300,109.992938,24.36748023,1282.879875
8.9350,109.6767756,24.52441277,1283.039553
8.9400,109.3596331,24.67821363,1283.199114
8.9450,109.0408549,24.82986928,1283.359166
8.9500,108.7206154,24.97919767,1283.519443
8.9550,108.3993946,25.12743954,1283.679996
8.9600,108.0768031,25.27424252,1283.840761
8.9650,107.7527227,25.42032172,1284.002088
8.9700,107.4282517,25.5661063,1284.163629
8.9750,107.1044401,25.71148106,1284.324784
8.9800,106.7809366,25.85867044,1284.486321
8.9850,106.4569446,26.00631889,1284.648267
8.9900,106.1339501,26.15505556,1284.810162
8.9950,105.8123099,26.30441204,1284.971625
9.0000,105.4909553,26.45474824,1285.133328
9.0050,105.1700368,26.60629243,1285.295162
9.0100,104.849758,26.75923746,1285.457136
9.0150,104.5307337,26.91146452,1285.618291
9.0200,104.211688,27.06214088,1285.778896
9.0250,103.8921357,27.21326298,1285.939573
9.0300,103.5728199,27.36359552,1286.099706
9.0350,103.2547411,27.5127721,1286.258555
9.0400,102.9376709,27.66036637,1286.416104
9.0450,102.6219766,27.80522695,1286.571749
9.0500,102.3074894,27.94738106,1286.725592
9.0550,101.9936574,28.08690125,1286.877937
9.0600,101.6811488,28.22215086,1287.028007
9.0650,101.3697134,28.35347735,1287.175959
9.0700,101.0586982,28.481476,1287.322329
9.0750,100.7490339,28.60557864,1287.466605
9.0800,100.4400095,28.725481,1287.609024
9.0850,100.1332769,28.8410019,1287.748858
9.0900,99.82717583,28.95041735,1287.886468
9.0950,99.52162785,29.05353734,1288.02202
9.1000,99.21603483,29.15028306,1288.155927
9.1050,98.91023256,29.23897378,1288.287686
9.1100,98.6035676,29.31963151,1288.417836
9.1150,98.2939602,29.39106429,1288.547052
9.1200,97.98074578,29.45446982,1288.676077
9.1250,97.66396052,29.50956002,1288.804936
9.1300,97.34373911,29.55660414,1288.933812
9.1350,97.01977254,29.59645308,1289.063164
9.1400,96.69183964,29.62940064,1289.193329
9.1450,96.3596498,29.65602472,1289.324506
9.1500,96.02352346,29.67635454,1289.456601
9.1550,95.68325162,29.69159308,1289.590115
9.1600,95.33963078,29.70352277,1289.725242
9.1650,94.99281711,29.71296817,1289.862149
9.1700,94.64272826,29.72037645,1290.00092
9.1750,94.29067498,29.7271153,1290.14133
9.1800,93.93658697,29.73402176,1290.283728
9.1850,93.5812214,29.74325697,1290.428402
9.1900,93.22669157,29.75559017,1290.574521
9.1950,92.87314599,29.77223087,1290.722355
9.2000,92.52137914,29.79450961,1290.871855
9.2050,92.17234787,29.8228509,1291.022857
9.2100,91.82734518,29.85900925,1291.17513
9.2150,91.48553734,29.90390633,1291.329348
9.2200,91.14818278,29.95870571,1291.485086
9.2250,90.81542032,30.02425393,1291.642658
9.2300,90.48657029,30.10059649,1291.80244
9.2350,90.16273194,30.18814426,1291.963905
9.2400,89.84278573,30.28719928,1292.127625
9.2450,89.52797309,30.39795904,1292.293126
9.2500,89.21858736,30.52033657,1292.460396
9.2550,88.91422395,30.65444269,1292.629701
9.2600,88.61507257,30.80016782,1292.800995
9.2650,88.32031165,30.95704554,1292.974498
9.2700,88.02951989,31.12457956,1293.150308
9.2750,87.74193111,31.30249236,1293.328875
9.2800,87.45718378,31.48857052,1293.509812
9.2850,87.17498966,31.6832248,1293.693274
9.2900,86.89441165,31.88547649,1293.879382
9.2950,86.61427277,32.09487443,1294.068692
9.3000,86.33585123,32.30915401,1294.25975
9.3050,86.05675817,32.52697624,1294.453456
9.3100,85.77689229,32.74677934,1294.649293
9.3150,85.49533958,32.96836988,1294.847684
9.3200,85.21284168,33.19093326,1295.047888
9.3250,84.92845178,33.41249503,1295.249859
9.3300,84.6425641,33.63457696,1295.453719
9.3350,84.35361325,33.85553712,1295.659876
9.3400,84.06219646,34.07498954,1295.86778
9.3450,83.76784331,34.29372546,1296.077983
9.3500,83.47058628,34.51056617,1296.290156
9.3550,83.17092913,34.72479351,1296.50369
9.3600,82.86781831,34.93712256,1296.719281
9.3650,82.56265485,35.14706068,1296.936002
9.3700,82.25484059,35.35329797,1297.153833
9.3750,81.94460449,35.55593234,1297.372652
9.3800,81.63284655,35.75466353,1297.591853
9.3850,81.31855256,35.94928446,1297.811922
9.3900,81.00280893,36.1401183,1298.03238
9.3950,80.68667193,36.3270112,1298.252611
9.4000,80.37087449,36.50917205,1298.471873
9.4050,80.05551225,36.68734821,1298.690289
9.4100,79.74121599,36.86208032,1298.907682
9.4150,79.42963318,37.03333193,1299.123118
9.4200,79.12135613,37.20114081,1299.336318
9.4250,78.81681536,37.36561244,1299.547011
9.4300,78.51536394,37.52635913,1299.755314
9.4350,78.21799612,37.68297587,1299.960554
9.4400,77.924928,37.8358547,1300.162534
9.4450,77.63747579,37.98600633,1300.36081
9.4500,77.356358,38.13413586,1300.555032
9.4550,77.08313914,38.27815282,1300.743489
9.4600,76.81646833,38.41818199,1300.926905
9.4650,76.55779383,38.55377273,1301.104272
9.4700,76.30735257,38.68547693,1301.275511
9.4750,76.06489801,38.81339585,1301.440791
9.4800,75.83150292,38.93826241,1301.599589
9.4850,75.60730876,39.06040855,1301.751982
9.4900,75.39192362,39.17963983,1301.89806
9.4950,75.18540956,39.29527801,1302.037531
9.5000,74.98802141,39.40755677,1302.170529
9.5050,74.79943196,39.51619101,1302.296965
9.5100,74.61861414,39.62075772,1302.417345
9.5150,74.44494343,39.72137463,1302.532121
9.5200,74.27797042,39.81767453,1302.64153
9.5250,74.11868693,39.90951872,1302.744973
9.5300,73.96657642,39.99661597,1302.842537
9.5350,73.82131284,40.0790495,1302.934595
9.5400,73.68267518,40.15690185,1303.02139
9.5450,73.54997615,40.23077625,1303.103513
9.5500,73.42173432,40.30062014,1303.181742
9.5550,73.2981593,40.36572561,1303.255875
9.5600,73.17836205,40.42703562,1303.32672
9.5650,73.06333201,40.48493423,1303.393856
9.5700,72.95270078,40.54007882,1303.45774
9.5750,72.84614777,40.59229975,1303.518537
9.5800,72.74267325,40.64177461,1303.576776
9.5850,72.64241782,40.68885904,1303.632555
9.5900,72.54543561,40.73483053,1303.686363
9.5950,72.45134038,40.77927991,1303.738194
9.6000,72.35850307,40.8231033,1303.789422
9.6050,72.26802358,40.86626502,1303.839304
9.6100,72.17933249,40.90932357,1303.888335
9.6150,72.09233752,40.95407905,1303.937313
9.6200,72.00631536,41.00021876,1303.986655
9.6250,71.92160079,41.04846457,1304.03627
9.6300,71.83710679,41.09820595,1304.086761
9.6350,71.75378035,41.1502504,1304.137726
9.6400,71.6706099,41.20472558,1304.189819
9.6450,71.58748416,41.26108347,1304.242982
9.6500,71.50483753,41.32039291,1304.297211
9.6550,71.42235001,41.38325435,1304.35293
9.6600,71.34009086,41.44861024,1304.409769
9.6650,71.25733469,41.51663834,1304.468225
9.6700,71.17449003,41.58801175,1304.528231
9.6750,71.09188685,41.66276606,1304.589638
9.6800,71.00900704,41.74082107,1304.65279
9.6850,70.92645294,41.82165543,1304.717114
9.6900,70.84338342,41.90531064,1304.783209
9.6950,70.75920889,41.99115013,1304.851207
9.7000,70.67358518,42.07940622,1304.921533
9.7050,70.58651864,42.17042447,1304.994452
9.7100,70.49688964,42.26282053,1305.070066
9.7150,70.40474906,42.35734864,1305.14859
9.7200,70.3086816,42.45343253,1305.230703
9.7250,70.20857629,42.55068955,1305.316315
9.7300,70.10537803,42.64951641,1305.405068
9.7350,69.99871467,42.74977507,1305.497014
9.7400,69.88895267,42.85116456,1305.591957
9.7450,69.77594646,42.95303977,1305.689848
9.7500,69.65938029,43.05484022,1305.790712
9.7550,69.53929292,43.15763106,1305.894902
9.7600,69.41751041,43.26134299,1306.001441
9.7650,69.2939235,43.36565086,1306.110049
9.7700,69.16946377,43.47066847,1306.220386
9.7750,69.0449098,43.57646372,1306.332021
9.7800,68.92039454,43.68184103,1306.444424
9.7850,68.79708786,43.78596658,1306.55656
9.7900,68.67525413,43.88898892,1306.668333
9.7950,68.55548668,43.99036902,1306.779325
9.8000,68.43811274,44.09016455,1306.889155
9.8050,68.32460135,44.18748963,1306.996566
9.8100,68.2153382,44.28316945,1307.101648
9.8150,68.1119034,44.37641753,1307.20306
9.8200,68.01512691,44.46800898,1307.300608
9.8250,67.92565028,44.5566891,1307.39339
9.8300,67.84378252,44.64266073,1307.481348
9.8350,67.76919458,44.72605051,1307.564666
9.8400,67.70165649,44.80648343,1307.643377
9.8450,67.64085748,44.88321094,1307.717391
9.8500,67.58886147,44.95693261,1307.785683
9.8550,67.54542563,45.02820469,1307.848491
9.8600,67.5101092,45.09649313,1307.905868
9.8650,67.48327451,45.16209796,1307.957688
9.8700,67.46481516,45.22444042,1308.003729
9.8750,67.45443374,45.28259796,1308.043797
9.8800,67.45304624,45.33740838,1308.077563
9.8850,67.46105341,45.38857827,1308.104636
9.8900,67.47786455,45.43514229,1308.125053
9.8950,67.50468964,45.47736944,1308.138152
9.9000,67.54163105,45.51491275,1308.143674
9.9050,67.58807838,45.54773558,1308.142013
9.9100,67.64466113,45.57637864,1308.133005
9.9150,67.71039926,45.59864772,1308.116362
9.9200,67.78579979,45.61681912,1308.092558
9.9250,67.87007571,45.62893574,1308.061508
9.9300,67.96384529,45.63563547,1308.022854
9.9350,68.0657887,45.63697967,1307.977548
9.9400,68.17650507,45.63229314,1307.924955
9.9450,68.29552312,45.62181126,1307.865315
9.9500,68.42120351,45.60366795,1307.799083
9.9550,68.55337042,45.57806122,1307.72639
9.9600,68.69174352,45.54490671,1307.647324
9.9650,68.83495896,45.50452142,1307.563029
9.9700,68.98325993,45.45739691,1307.473427
9.9750,69.135502,45.40267367,1307.379011
9.9800,69.29163035,45.34037931,1307.279765
9.9850,69.45045254,45.27122576,1307.176787
9.9900,69.61215577,45.19521358,1307.069813
9.9950,69.77578451,45.11258769,1306.959494
10.0000,69.9415521,45.02288522,1306.845595
10.0050,70.10843705,44.92532892,1306.728466
10.0100,70.27725776,44.82087495,1306.6079
10.0150,70.44677483,44.70863473,1306.484488
10.0200,70.61834082,44.58901423,1306.357483
10.0250,70.79114122,44.46236465,1306.227566
10.0300,70.96463418,44.32931222,1306.09519
10.0350,71.13824261,44.1905871,1305.961091
10.0400,71.31276296,44.04719827,1305.825101
10.0450,71.48798051,43.89997022,1305.687585
10.0500,71.66408305,43.74872665,1305.548437
10.0550,71.84015807,43.59466153,1305.408634
10.0600,72.01633733,43.43670402,1305.267552
10.0650,72.19226331,43.27585879,1305.126041
10.0700,72.3680906,43.1123845,1304.983976
10.0750,72.54311143,42.94485915,1304.841249
10.0800,72.71762238,42.77400039,1304.697924
10.0850,72.89045028,42.60020508,1304.554754
10.0900,73.06152019,42.42310878,1304.41169
10.0950,73.22954997,42.24332764,1304.269694
10.1000,73.39467004,42.06087175,1304.128701
10.1050,73.55711775,41.87652679,1303.98892
10.1100,73.71628583,41.68997082,1303.850647
10.1150,73.87263596,41.50157454,1303.713612
10.1200,74.02604992,41.3112206,1303.577894
10.1250,74.17572476,41.120118,1303.444333
10.1300,74.32237787,40.92796891,1303.312315
10.1350,74.46490912,40.73400463,1303.18232
10.1400,74.60374389,40.53792997,1303.053993
10.1450,74.73883719,40.34121118,1302.927865
10.1500,74.86928456,40.14292156,1302.804117
10.1550,74.99452334,39.94406942,1302.683497
10.1600,75.11496535,39.74452649,1302.565778
10.1650,75.23088925,39.54432141,1302.450758
10.1700,75.34244977,39.34378164,1302.33843
10.1750,75.44928271,39.14424681,1302.229528
10.1800,75.55246779,38.94528838,1302.123233
10.1850,75.65194653,38.74807077,1302.019956
10.1900,75.74886883,38.55246812,1301.91881
10.1950,75.8427257,38.35859536,1301.820156
10.2000,75.93424346,38.16630573,1301.723514
10.2050,76.02449073,37.97558792,1301.628166
10.2100,76.11239102,37.78516148,1301.534287
10.2150,76.19961005,37.59642269,1301.441444
10.2200,76.28584023,37.40655527,1301.348837
10.2250,76.37117421,37.21656197,1301.256815
10.2300,76.45529189,37.02502665,1301.165164
10.2350,76.53920696,36.83251239,1301.073408
10.2400,76.62278661,36.63961938,1300.981923
10.2450,76.70699294,36.44626297,1300.890164
10.2500,76.79325969,36.25323295,1300.797505
10.2550,76.88161455,36.06026058,1300.70389
10.2600,76.97281026,35.86667465,1300.608697
10.2650,77.06843841,35.67354775,1300.511265
10.2700,77.16837236,35.47979329,1300.411485
10.2750,77.27298843,35.28633673,1300.309292
10.2800,77.38207353,35.09219202,1300.204643
10.2850,77.49607321,34.89772604,1300.097364
10.2900,77.61487909,34.70313803,1299.987713
10.2950,77.73940447,34.50765275,1299.874935
10.3000,77.86914353,34.31230977,1299.759571
10.3050,78.0061743,34.11751799,1299.640503
10.3100,78.15029753,33.92389613,1299.51817
10.3150,78.30185926,33.73128447,1299.392185
10.3200,78.46139551,33.54005984,1299.262434
10.3250,78.62881809,33.34973315,1299.12877
10.3300,78.80491066,33.15993689,1298.990675
10.3350,78.99128928,32.9700905,1298.847065
10.3400,79.18689984,32.77956067,1298.698429
10.3450,79.39200572,32.58708625,1298.544155
10.3500,79.60600987,32.39310545,1298.384875
10.3550,79.82941887,32.19621899,1298.219829
10.3600,80.06158711,31.99767606,1298.049889
10.3650,80.30274005,31.79733077,1297.874945
10.3700,80.5524205,31.59495348,1297.695054
10.3750,80.81125451,31.39173867,1297.510342
10.3800,81.07929666,31.18848827,1297.321119
10.3850,81.35666506,30.98551537,1297.127599
10.3900,81.64375968,30.78281104,1296.929484
10.3950,81.94084401,30.58081839,1296.726803
10.4000,82.24701391,30.37867723,1296.519815
10.4050,82.56135652,30.17642364,1296.308999
10.4100,82.88418202,29.97395404,1296.094187
10.4150,83.21415958,29.7714622,1295.876335
10.4200,83.55185079,29.56990344,1295.655393
10.4250,83.89720618,29.36791794,1295.430971
10.4300,84.24942248,29.16638067,1295.203934
10.4350,84.60953711,28.96532036,1294.973778
10.4400,84.97664694,28.76550628,1294.741181
10.4450,85.3517019,28.56592294,1294.505351
10.4500,85.73423961,28.36742173,1294.266833
10.4550,86.12419859,28.16891275,1294.025334
10.4600,86.5213309,27.97101274,1293.781209
10.4650,86.92449409,27.77314548,1293.534935
10.4700,87.33354025,27.57544355,1293.286552
10.4750,87.74953744,27.377457,1293.035319
10.4800,88.17115195,27.17876342,1292.781837
10.4850,88.59824941,26.97813947,1292.525857
10.4900,89.0300611,26.77520882,1292.267654
10.4950,89.46659443,26.56938953,1292.007154
10.5000,89.90626852,26.36030355,1291.744958
10.5050,90.34872685,26.14743695,1291.48117
10.5100,90.79427146,25.93125416,1291.215679
10.5150,91.24214581,25.71118356,1290.94874
10.5200,91.69261527,25.48814246,1290.680441
10.5250,92.14514075,25.26104247,1290.41075
10.5300,92.59892806,25.03070121,1290.140343
10.5350,93.05406919,24.79422514,1289.868446
10.5400,93.50936831,24.55180896,1289.595696
10.5450,93.96381388,24.30284938,1289.322414
10.5500,94.41666198,24.04767219,1289.049182
10.5550,94.86709376,23.78545131,1288.776116
10.5600,95.31423778,23.51700994,1288.503919
10.5650,95.75707573,23.24029124,1288.232534
10.5700,96.19516885,22.95651736,1287.962516
10.5750,96.62818593,22.66568482,1287.694046
10.5800,97.05640158,22.36810944,1287.427113
10.5850,97.47976611,22.06353439,1287.161638
10.5900,97.89776742,21.7526349,1286.898093
10.5950,98.3097783,21.4367574,1286.637175
10.6000,98.71650072,21.11593726,1286.378527
10.6050,99.11748435,20.79061028,1286.122503
10.6100,99.51270546,20.46089762,1285.869078
10.6150,99.90270398,20.12883696,1285.618499
10.6200,100.2879433,19.7940221,1285.370308
10.6250,100.6686419,19.45816896,1285.124899
10.6300,101.045787,19.12128582,1284.881773
10.6350,101.4185971,18.78479764,1284.641625
10.6400,101.7873445,18.44759977,1284.403915
10.6450,102.1513296,18.11141964,1284.169524
10.6500,102.5120712,17.77600864,1283.937535
10.6550,102.8687302,17.44245765,1283.708641
10.6600,103.2230743,17.11107772,1283.482055
10.6650,103.5740306,16.78266989,1283.258306
10.6700,103.9220857,16.4570339,1283.037328
10.6750,104.2675092,16.13456452,1282.81897
10.6800,104.6098228,15.81594758,1282.603542
10.6850,104.9504141,15.50129955,1282.390498
10.6900,105.2878724,15.191783,1282.180726
10.6950,105.6230928,14.88679515,1281.973732
10.7000,105.957107,14.58760463,1281.769363
10.7050,106.2904541,14.29491091,1281.567657
10.7100,106.6233783,14.0084408,1281.368246
10.7150,106.9576261,13.72857544,1281.170398
10.7200,107.2914006,13.4541994,1280.974609
10.7250,107.6258222,13.18551749,1280.780413
10.7300,107.960903,12.92066119,1280.587195
10.7350,108.2962415,12.6598735,1280.395061
10.7400,108.6328194,12.40306142,1280.203577
10.7450,108.9693592,12.14907958,1280.012879
10.7500,109.3066763,11.89711149,1279.82236
10.7550,109.6443793,11.6470755,1279.632102
10.7600,109.9834152,11.39771835,1279.441381
10.7650,110.3235568,11.14854968,1279.250089
10.7700,110.6642866,10.89982066,1279.058594
10.7750,111.0053485,10.650631,1278.866738
10.7800,111.346232,10.39987192,1278.674557
10.7850,111.6865354,10.14696084,1278.481994
10.7900,112.0258731,9.890830071,1278.289117
10.7950,112.3638308,9.631429049,1278.095937
10.8000,112.7012985,9.3671882,1277.90182
10.8050,113.0367987,9.098352618,1277.707379
10.8100,113.3711044,8.824908845,1277.5124
10.8150,113.7038937,8.545521654,1277.316716
10.8200,114.0350104,8.261571015,1277.120814
10.8250,114.3663035,7.974437458,1276.924175
10.8300,114.6975435,7.684412979,1276.727127
10.8350,115.0290412,7.393785942,1276.530078
10.8400,115.3619064,7.102487413,1276.332658
10.8450,115.6963482,6.810946803,1276.134982
10.8500,116.0325259,6.518950034,1275.936917
10.8550,116.3718279,6.227983519,1275.738371
10.8600,116.7145591,5.93787724,1275.539167
10.8650,117.0618186,5.649502249,1275.339105
10.8700,117.4134281,5.361470863,1275.137858
10.8750,117.7690734,5.073579343,1274.935644
10.8800,118.1284871,4.786602061,1274.732494
10.8850,118.4909777,4.499970934,1274.528648
10.8900,118.856032,4.212757678,1274.324002
10.8950,119.2232545,3.924452168,1274.118526
10.9000,119.591109,3.63530618,1273.912918
10.9050,119.9588826,3.34482261,1273.70736
10.9100,120.3264351,3.053000415,1273.501905
10.9150,120.6933055,2.759765744,1273.296826
10.9200,121.0586427,2.466780008,1273.092745
10.9250,121.4227818,2.172753805,1272.889289
10.9300,121.7846395,1.878696259,1272.68715
10.9350,122.1439325,1.584686715,1272.486334
10.9400,122.501843,1.292665873,1272.286926
10.9450,122.8590043,1.00215621,1272.088536
10.9500,123.2143802,0.7140474743,1271.891691
10.9550,123.5689236,0.4296546761,1271.696296
10.9600,123.9199327,0.1486524542,1271.503195
10.9650,124.2683194,-0.1289643181,1271.312124
10.9700,124.6133073,-0.4022962791,1271.123386
10.9750,124.9545241,-0.6704398891,1270.937231
10.9800,125.2919769,-0.9340955689,1270.753583
10.9850,125.6251942,-1.192887469,1270.572478
10.9900,125.9547841,-1.447280254,1270.393728
10.9950,126.2807278,-1.697157978,1270.217172
11.0000,126.6020379,-1.943031612,1270.043108
11.0050,126.9182675,-2.185333714,1269.871513
11.0100,127.2290759,-2.424747645,1269.70254
11.0150,127.5333715,-2.66135945,1269.536446
11.0200,127.8331371,-2.895262022,1269.372552
11.0250,128.1282149,-3.126715425,1269.210925
11.0300,128.4194243,-3.353504688,1269.051767
11.0350,128.7072024,-3.576237001,1268.894675
11.0400,128.9909706,-3.795533678,1268.739523
11.0450,129.2705322,-4.012234731,1268.586215
11.0500,129.5448564,-4.22607818,1268.435029
11.0550,129.8140953,-4.438832088,1268.285484
11.0600,130.0774018,-4.650132179,1268.137788
11.0650,130.3339671,-4.860479041,1267.992165
11.0700,130.5847335,-5.071013827,1267.847922
11.0750,130.8283492,-5.282348916,1267.705472
11.0800,131.0661446,-5.494502245,1267.564432
11.0850,131.2982104,-5.706935246,1267.425005
11.0900,131.5241517,-5.920397836,1267.287343
11.0950,131.7436931,-6.134466741,1267.151748
11.1000,131.9568538,-6.348069228,1267.018644
11.1050,132.1648191,-6.560874891,1266.887766
11.1100,132.3682053,-6.773582784,1266.758945
11.1150,132.5680783,-6.983602436,1266.632456
11.1200,132.7651702,-7.192208417,1266.50804
11.1250,132.9599832,-7.399611003,1266.385556
11.1300,133.1531857,-7.605051518,1266.2649
11.1350,133.3456117,-7.8071372,1266.146094
11.1400,133.5396601,-8.005986079,1266.028317
11.1450,133.736314,-8.200206993,1265.911435
11.1500,133.936684,-8.389303319,1265.7951
11.1550,134.1432366,-8.572932262,1265.678488
11.1600,134.356576,-8.75027714,1265.56154
11.1650,134.577955,-8.921097676,1265.443771
11.1700,134.8089323,-9.084221761,1265.324765
11.1750,135.050872,-9.240918464,1265.203663
11.1800,135.3029025,-9.390807311,1265.080631
11.1850,135.5660199,-9.534069146,1264.954969
11.1900,135.8401934,-9.670312286,1264.826553
11.1950,136.1251867,-9.80069254,1264.694973
11.2000,136.4214675,-9.926060996,1264.559709
11.2050,136.7277677,-10.04698336,1264.420803
11.2100,137.0442293,-10.16479849,1264.277904
11.2150,137.3703959,-10.2815539,1264.130606
11.2200,137.704233,-10.3983668,1263.979348
11.2250,138.0457071,-10.51567706,1263.824084
11.2300,138.3934424,-10.63543583,1263.664894
11.2350,138.7468993,-10.75834913,1263.502075
11.2400,139.1041639,-10.88611051,1263.335965
11.2450,139.4644208,-11.01792994,1263.167185
11.2500,139.8262385,-11.15437521,1262.996319
11.2550,140.1884763,-11.29698044,1262.823661
11.2600,140.5508418,-11.44474157,1262.649638
11.2650,140.9122591,-11.59814746,1262.474636
11.2700,141.2712702,-11.75686036,1262.299266
11.2750,141.6278201,-11.92162386,1262.123585
11.2800,141.9806254,-12.09264953,1261.948
11.2850,142.3291143,-12.27067129,1261.77265
11.2900,142.6743953,-12.4545202,1261.597528
11.2950,143.0158976,-12.64508715,1261.422681
11.3000,143.3535741,-12.84239634,1261.24805
11.3050,143.6877622,-13.04633418,1261.073496
11.3100,144.0183261,-13.2569213,1260.898877
11.3150,144.3449163,-13.47486318,1260.724176
11.3200,144.6664848,-13.70043463,1260.549595
11.3250,144.9822929,-13.93335633,1260.375161
11.3300,145.2901959,-14.17487199,1260.201051
11.3350,145.5901602,-14.42498026,1260.027313
11.3400,145.8819235,-14.68334491,1259.854145
11.3450,146.1653983,-14.94911309,1259.681607
11.3500,146.4403889,-15.22206548,1259.509784
11.3550,146.7069324,-15.50033099,1259.339013
11.3600,146.9662719,-15.78358754,1259.169199
11.3650,147.2191316,-16.07128185,1259.000147
11.3700,147.464787,-16.36264948,1258.832455
11.3750,147.7028214,-16.65719253,1258.66621
11.3800,147.9332131,-16.95391498,1258.501652
11.3850,148.1552565,-17.25328897,1258.338898
11.3900,148.369982,-17.55412767,1258.177893
11.3950,148.5772341,-17.8563817,1258.018808
11.4000,148.7774427,-18.15896154,1257.861756
11.4050,148.9693369,-18.46226417,1257.707044
11.4100,149.1533353,-18.76400458,1257.555077
11.4150,149.329732,-19.06401218,1257.405912
11.4200,149.498729,-19.36130855,1257.259558
11.4250,149.659938,-19.65360501,1257.116494
11.4300,149.8159412,-19.940536,1256.976244
11.4350,149.9666463,-20.22123237,1256.83888
11.4400,150.1117088,-20.49462738,1256.70464
11.4450,150.2526234,-20.7603948,1256.573123
11.4500,150.3902365,-21.01775955,1256.444171
11.4550,150.5225992,-21.26681334,1256.31795
11.4600,150.6506966,-21.50847158,1256.193969
11.4650,150.7737068,-21.74219948,1256.072257
11.4700,150.8900467,-21.96908146,1255.95277
11.4750,150.9990752,-22.18792367,1255.835738
11.4800,151.1010969,-22.39852075,1255.721127
11.4850,151.1960452,-22.60166177,1255.608767
11.4900,151.2836992,-22.79713308,1255.498705
11.4950,151.3623155,-22.98370401,1255.391507
11.5000,151.4323229,-23.16244241,1255.28689
11.5050,151.4927268,-23.33283118,1255.185123
11.5100,151.5421146,-23.49443908,1255.086525
11.5150,151.5792803,-23.64711796,1254.991295
11.5200,151.6047896,-23.79140585,1254.899308
11.5250,151.6178346,-23.92733079,1254.810647
11.5300,151.6181546,-24.05405886,1254.725551
11.5350,151.6049522,-24.17189598,1254.644059
11.5400,151.577159,-24.28080597,1254.566339
11.5450,151.5332791,-24.38061703,1254.492622
11.5500,151.4728672,-24.47091088,1254.422924
11.5550,151.3936352,-24.55185127,1254.357554
11.5600,151.2955613,-24.6232493,1254.296432
11.5650,151.1773416,-24.684537,1254.239811
11.5700,151.0398714,-24.73569081,1254.187554
11.5750,150.8824304,-24.77609202,1254.139757
11.5800,150.7052475,-24.80512879,1254.096407
11.5850,150.5071573,-24.82242692,1254.057736
11.5900,150.2874739,-24.82876856,1254.02365
11.5950,150.0460851,-24.82399359,1253.99421
11.6000,149.7838748,-24.80708323,1253.969429
11.6050,149.4994842,-24.77917969,1253.94946
11.6100,149.1939897,-24.73906049,1253.934379
11.6150,148.8679063,-24.68663585,1253.924273
11.6200,148.5219178,-24.62190417,1253.919078
11.6250,148.1576694,-24.54357931,1253.918878
11.6300,147.7764921,-24.45206708,1253.923533
11.6350,147.3794653,-24.34717401,1253.932921
11.6400,146.9689463,-24.2294478,1253.946583
11.6450,146.5465238,-24.0985832,1253.964444
11.6500,146.1141955,-23.95685231,1253.985851
11.6550,145.6753975,-23.80499364,1254.010204
11.6600,145.2305351,-23.64466358,1254.037197
11.6650,144.7817778,-23.4768269,1254.066312
11.6700,144.331085,-23.30386584,1254.0969
11.6750,143.8816656,-23.12760961,1254.12805
11.6800,143.434842,-22.94979809,1254.159245
11.6850,142.9922273,-22.7716209,1254.19001
11.6900,142.5553009,-22.59470435,1254.219781
11.6950,142.1257114,-22.41973531,1254.248088
11.7000,141.7038922,-22.24888096,1254.274398
11.7050,141.2923207,-22.08197196,1254.298181
11.7100,140.8909133,-21.92099657,1254.319072
11.7150,140.4997356,-21.76783757,1254.336575
11.7200,140.1196717,-21.62329086,1254.350375
11.7250,139.751007,-21.48913441,1254.360162
11.7300,139.3929896,-21.36689342,1254.365809
11.7350,139.0448768,-21.25807901,1254.367261
11.7400,138.7069516,-21.16235025,1254.364384
11.7450,138.3782084,-21.081608,1254.357185
11.7500,138.0573918,-21.01549963,1254.346026
11.7550,137.7427548,-20.96405092,1254.331387
11.7600,137.4333667,-20.925459,1254.313857
11.7650,137.1275996,-20.89987404,1254.29389
11.7700,136.8260863,-20.88593259,1254.271622
11.7750,136.5275558,-20.88261873,1254.247503
11.7800,136.2306816,-20.89025819,1254.221628
11.7850,135.9326529,-20.90740224,1254.194822
11.7900,135.6334229,-20.93418736,1254.166954
11.7950,135.3327937,-20.97166581,1254.137805
11.8000,135.0289317,-21.01923442,1254.107834
11.8050,134.7225433,-21.07651429,1254.076933
11.8100,134.4138534,-21.14403228,1254.044955
11.8150,134.1037422,-21.22114694,1254.011899
11.8200,133.7915981,-21.30707881,1253.977916
11.8250,133.4768803,-21.40118093,1253.943234
11.8300,133.1596602,-21.50313498,1253.907798
11.8350,132.8405146,-21.61169988,1253.871663
11.8400,132.5211606,-21.72492266,1253.834705
11.8450,132.2030065,-21.84423625,1253.796461
11.8500,131.886411,-21.96796604,1253.757115
11.8550,131.5739206,-22.09383253,1253.716554
11.8600,131.2664011,-22.22207705,1253.674682
11.8650,130.9655534,-22.352366,1253.631187
11.8700,130.6706724,-22.48422554,1253.586206
11.8750,130.382743,-22.61804069,1253.539548
11.8800,130.1024927,-22.7526509,1253.491421
11.8850,129.8310955,-22.88766071,1253.441606
11.8900,129.5682155,-23.02441203,1253.390099
11.8950,129.3152914,-23.16111143,1253.337032
11.9000,129.0717046,-23.29842459,1253.282566
11.9050,128.8380358,-23.4360944,1253.226696
11.9100,128.6138855,-23.57503958,1253.169518
11.9150,128.4013737,-23.71544903,1253.110483
11.9200,128.199746,-23.85841431,1253.049661
11.9250,128.0082818,-24.00435383,1252.987177
11.9300,127.8278839,-24.15328092,1252.922782
11.9350,127.6583929,-24.30576414,1252.856524
11.9400,127.4994933,-24.46264803,1252.788488
11.9450,127.3521287,-24.62422827,1252.718337
11.9500,127.2162006,-24.78968437,1252.646244
11.9550,127.0924328,-24.9600064,1252.571812
11.9600,126.9801412,-25.13455982,1252.49531
11.9650,126.8787602,-25.31389995,1252.416814
11.9700,126.7872932,-25.49846111,1252.336372
11.9750,126.7046124,-25.68805645,1252.254386
11.9800,126.6297037,-25.88301803,1252.171003
11.9850,126.5613016,-26.08301667,1252.08649
11.9900,126.4995141,-26.28816019,1252.000845
11.9950,126.443324,-26.4999004,1251.914061
12.0000,126.3920562,-26.71732822,1251.82643
12.0050,126.3452759,-26.94081121,1251.738014
12.0100,126.3023991,-27.17079462,1251.648826
12.0150,126.2637003,-27.407212,1251.558897
12.0200,126.2274048,-27.64916414,1251.468832
12.0250,126.1941718,-27.896409,1251.378392
12.0300,126.1630716,-28.14848175,1251.287956
12.0350,126.1354177,-28.40423028,1251.197263
12.0400,126.110219,-28.66428536,1251.10652
12.0450,126.086586,-28.92645249,1251.016248
12.0500,126.065331,-29.19170218,1250.925965
12.0550,126.0471737,-29.45899139,1250.835616
12.0600,126.0321528,-29.728458,1250.745089
12.0650,126.0202112,-29.99975964,1250.654276
12.0700,126.0099984,-30.27291087,1250.563504
12.0750,126.0019086,-30.54828929,1250.472477
12.0800,125.9956566,-30.82572803,1250.381355
12.0850,125.9928733,-31.10480982,1250.289716
12.0900,125.9917232,-31.3852541,1250.198114
12.0950,125.9923797,-31.66632208,1250.106536
12.1000,125.9951039,-31.94796145,1250.014917
12.1050,125.9983868,-32.23047393,1249.923503
12.1100,126.0017786,-32.51236482,1249.832636
12.1150,126.0046686,-32.7931743,1249.742464
12.1200,126.0075301,-33.07325014,1249.652806
12.1250,126.0113917,-33.35233635,1249.56346
12.1300,126.0155148,-33.63019514,1249.474659
12.1350,126.0205171,-33.90671121,1249.386243
12.1400,126.0259132,-34.18269937,1249.298269
12.1450,126.031308,-34.45629679,1249.210942
12.1500,126.0375819,-34.72765548,1249.123993
12.1550,126.0450322,-34.99771151,1249.03716
12.1600,126.053625,-35.2665073,1248.950467
12.1650,126.0634204,-35.53277874,1248.863908
12.1700,126.0748511,-35.7968058,1248.7774
12.1750,126.0875703,-36.05841309,1248.69107
12.1800,126.1016213,-36.31810047,1248.604585
12.1850,126.1170395,-36.57567846,1248.517955
12.1900,126.1339423,-36.8293788,1248.43139
12.1950,126.1506946,-37.08037383,1248.344927
12.2000,126.1680694,-37.3288932,1248.258353
12.2050,126.186917,-37.57486198,1248.171345
12.2100,126.2070885,-37.81698893,1248.084048
12.2150,126.2273875,-38.05552702,1247.996688
12.2200,126.2483968,-38.29003315,1247.909139
12.2250,126.2705363,-38.52052264,1247.821357
12.2300,126.2929646,-38.7481325,1247.733463
12.2350,126.3172883,-38.97284301,1247.645148
12.2400,126.3436175,-39.19370281,1247.556426
12.2450,126.3722,-39.41121558,1247.467357
12.2500,126.4045096,-39.62581764,1247.377696
12.2550,126.439772,-39.83760905,1247.28777
12.2600,126.479987,-40.04659105,1247.197212
12.2650,126.5257992,-40.25384478,1247.10601
12.2700,126.5796184,-40.45884236,1247.013858
12.2750,126.6441311,-40.66138266,1246.920189
12.2800,126.7190634,-40.86167664,1246.825145
12.2850,126.8058869,-41.06034387,1246.728438
12.2900,126.9044048,-41.25651872,1246.630249
12.2950,127.0146267,-41.45076062,1246.530538
12.3000,127.1367849,-41.64348958,1246.429394
12.3050,127.2701174,-41.83471992,1246.327032
12.3100,127.4133629,-42.02489947,1246.223647
12.3150,127.5654917,-42.21347548,1246.119681
12.3200,127.7259302,-42.40086696,1246.015077
12.3250,127.8931307,-42.58727981,1245.910329
12.3300,128.0677948,-42.77135306,1245.805278
12.3350,128.2479871,-42.95536522,1245.700237
12.3400,128.4329264,-43.13855991,1245.595445
12.3450,128.6224592,-43.32143386,1245.490859
12.3500,128.8146407,-43.50413754,1245.387041
12.3550,129.0089193,-43.68629142,1245.28408
12.3600,129.2042462,-43.8694698,1245.182126
12.3650,129.3999807,-44.05365976,1245.081425
12.3700,129.5958257,-44.23926207,1244.98197
12.3750,129.7910005,-44.42625162,1244.884064
12.3800,129.9858516,-44.61461342,1244.787652
12.3850,130.1799119,-44.80654286,1244.692796
12.3900,130.3738626,-45.00098292,1244.599298
12.3950,130.568535,-45.19943784,1244.507041
12.4000,130.7621144,-45.40155651,1244.416406
12.4050,130.9566556,-45.60816196,1244.326991
12.4100,131.1514618,-45.82044178,1244.23873
12.4150,131.3463263,-46.03882065,1244.151749
12.4200,131.540865,-46.2636307,1244.06605
12.4250,131.7340457,-46.49524642,1243.981875
12.4300,131.924286,-46.73327453,1243.899498
12.4350,132.1102106,-46.97836755,1243.819076
12.4400,132.2909173,-47.22978176,1243.740834
12.4450,132.4656577,-47.48796207,1243.664818
12.4500,132.6334907,-47.75199016,1243.591246
12.4550,132.7928927,-48.02173632,1243.520456
12.4600,132.9441529,-48.29542884,1243.452343
12.4650,133.0858769,-48.57290646,1243.387189
12.4700,133.2177943,-48.85292111,1243.324964
12.4750,133.3400002,-49.13449626,1243.265642
12.4800,133.4516311,-49.41727779,1243.20938
12.4850,133.5519131,-49.70100957,1243.156221
12.4900,133.6410186,-49.98615814,1243.10595
12.4950,133.7187327,-50.27139768,1243.058607
12.5000,133.7849509,-50.55659236,1243.014146
12.5050,133.8395554,-50.84033624,1242.972696
12.5100,133.8835663,-51.12305188,1242.933865
12.5150,133.917042,-51.40389974,1242.897654
12.5200,133.9421124,-51.6807201,1242.863711
12.5250,133.9592825,-51.95350635,1242.831787
12.5300,133.9702524,-52.22129608,1242.801665
12.5350,133.9750899,-52.48327587,1242.773251
12.5400,133.9750914,-52.73836402,1242.746255
12.5450,133.9711979,-52.9862859,1242.720528
12.5500,133.9641893,-53.22538555,1242.69588
12.5550,133.955309,-53.45513294,1242.67203
12.5600,133.9449917,-53.67535494,1242.64884
12.5650,133.9352734,-53.88355247,1242.625949
12.5700,133.9259289,-54.07998195,1242.603318
12.5750,133.9153807,-54.26374195,1242.581286
12.5800,133.9049763,-54.43541991,1242.559598
12.5850,133.89488,-54.59364306,1242.538262
12.5900,133.8854041,-54.73812203,1242.517219
12.5950,133.8777228,-54.8675124,1242.496257
12.6000,133.871334,-54.98169884,1242.475402
12.6050,133.8670522,-55.08003684,1242.45444
12.6100,133.8651503,-55.16162149,1242.433417
12.6150,133.8653176,-55.22665233,1242.412211
12.6200,133.868496,-55.27419497,1242.390801
12.6250,133.874446,-55.30447729,1242.369101
12.6300,133.881776,-55.31861843,1242.34736
12.6350,133.8899674,-55.31504301,1242.32579
12.6400,133.9000185,-55.29499549,1242.304169
12.6450,133.9105167,-55.25791236,1242.282795
12.6500,133.9218484,-55.20314867,1242.261603
12.6550,133.9336975,-55.1331674,1242.240704
12.6600,133.9459148,-55.04685847,1242.220137
12.6650,133.958714,-54.94575287,1242.199885
12.6700,133.9726359,-54.83048716,1242.179905
12.6750,133.9880183,-54.70173979,1242.160235
12.6800,134.005042,-54.56142375,1242.140829
12.6850,134.0239593,-54.40892372,1242.121803
12.6900,134.0442623,-54.24787538,1242.103283
12.6950,134.0652112,-54.07839145,1242.085567
12.7000,134.0891736,-53.90288055,1242.068145
12.7050,134.1144357,-53.72216339,1242.051346
12.7100,134.1418395,-53.53775697,1242.035156
12.7150,134.1725822,-53.352144,1242.019123
12.7200,134.2051463,-53.16600645,1242.00367
12.7250,134.240152,-52.98159942,1241.988546
12.7300,134.278306,-52.79910603,1241.973702
12.7350,134.3183648,-52.61979145,1241.959345
12.7400,134.3598752,-52.44483542,1241.945508
12.7450,134.4012315,-52.27477979,1241.932482
12.7500,134.44173,-52.11107565,1241.920299
12.7550,134.4801706,-51.95396457,1241.909093
12.7600,134.5154738,-51.80579992,1241.899008
12.7650,134.5466575,-51.66659408,1241.89021
12.7700,134.5726032,-51.53763703,1241.882778
12.7750,134.5916671,-51.41941767,1241.87702
12.7800,134.6039859,-51.31222024,1241.872904
12.7850,134.6076217,-51.2163465,1241.870784
12.7900,134.6027835,-51.13101893,1241.870669
12.7950,134.5893446,-51.05783384,1241.872588
12.8000,134.5674318,-50.99608429,1241.876476
12.8050,134.5376229,-50.94638872,1241.882327
12.8100,134.4997111,-50.90956532,1241.890139
12.8150,134.4532756,-50.88594328,1241.900058
12.8200,134.3975935,-50.87644303,1241.912274
12.8250,134.3334997,-50.88181249,1241.926727
12.8300,134.2620742,-50.9011355,1241.943098
12.8350,134.1843539,-50.935058,1241.961325
12.8400,134.1010709,-50.98470977,1241.981334
12.8450,134.0135392,-51.04949056,1242.002814
12.8500,133.9224042,-51.13030221,1242.025594
12.8550,133.8287185,-51.2258971,1242.049564
12.8600,133.7342435,-51.33576805,1242.0744
12.8650,133.6383005,-51.45955199,1242.100197
12.8700,133.5419776,-51.59665467,1242.126718
12.8750,133.4476496,-51.74607446,1242.153495
12.8800,133.3552681,-51.90501298,1242.180618
12.8850,133.2666482,-52.07241172,1242.207633
12.8900,133.182236,-52.2481516,1242.234353
12.8950,133.102005,-52.42968295,1242.26081
12.9000,133.028177,-52.61507691,1242.286536
12.9050,132.9604017,-52.80366191,1242.311635
12.9100,132.8999614,-52.99338461,1242.335861
12.9150,132.8471616,-53.18241287,1242.359179
12.9200,132.802682,-53.37028169,1242.381372
12.9250,132.7671144,-53.55416919,1242.402412
12.9300,132.7402189,-53.73271127,1242.422426
12.9350,132.7224529,-53.90465101,1242.441291
12.9400,132.7127627,-54.06847643,1242.459322
12.9450,132.7120265,-54.22450055,1242.476288
12.9500,132.7202454,-54.3714687,1242.492311
12.9550,132.7363898,-54.50811819,1242.50758
12.9600,132.7605703,-54.63488738,1242.522089
12.9650,132.791428,-54.75158308,1242.53622
12.9700,132.8281702,-54.85667912,1242.550185
12.9750,132.8698615,-54.95178641,1242.564099
12.9800,132.9151667,-55.03620361,1242.57833
12.9850,132.9635105,-55.11023247,1242.592917
12.9900,133.0127665,-55.17396921,1242.608481
12.9950,133.0639145,-55.22728619,1242.624619
13.0000,133.1144844,-55.27051395,1242.641985
13.0050,133.1644703,-55.30452866,1242.660542
13.0100,133.2116004,-55.33020927,1242.68079
13.0150,133.2551648,-55.34743151,1242.70295
13.0200,133.2947623,-55.35705004,1242.727159
13.0250,133.3300039,-55.35841397,1242.753613
13.0300,133.3610272,-55.35388926,1242.78222
13.0350,133.3879934,-55.34433074,1242.813026
13.0400,133.4110299,-55.32904208,1242.846032
13.0450,133.4311998,-55.308782,1242.881191
13.0500,133.4484829,-55.28408695,1242.918476
13.0550,133.4641972,-55.25528766,1242.957791
13.0600,133.4769638,-55.22249341,1242.999413
13.0650,133.4879634,-55.1877238,1243.042995
13.0700,133.4974593,-55.15071382,1243.08869
13.0750,133.5066656,-55.11154498,1243.1362
13.0800,133.5146517,-55.07192479,1243.185595
13.0850,133.5236717,-55.03115464,1243.236633
13.0900,133.5330937,-54.99075558,1243.289403
13.0950,133.5429265,-54.95063275,1243.343837
13.1000,133.5540069,-54.91193055,1243.399852
13.1050,133.5655387,-54.87431681,1243.457502
13.1100,133.5764543,-54.83797406,1243.517079
13.1150,133.5882795,-54.80320032,1243.578256
13.1200,133.6006162,-54.77044646,1243.641032
13.1250,133.6135745,-54.73916319,1243.705317
13.1300,133.6254724,-54.71030932,1243.771562
13.1350,133.6362486,-54.68257811,1243.83976
13.1400,133.6452801,-54.65578692,1243.909891
13.1450,133.6527093,-54.62939754,1243.981957
13.1500,133.6579508,-54.60315056,1244.056059
13.1550,133.659799,-54.57680161,1244.132321
13.1600,133.657455,-54.55091003,1244.210887
13.1650,133.6510694,-54.52500658,1244.291659
13.1700,133.6394102,-54.4981237,1244.374901
13.1750,133.621805,-54.47009229,1244.460735
13.1800,133.5994936,-54.44060649,1244.548795
13.1850,133.5706305,-54.41023853,1244.639451
13.1900,133.5349471,-54.37756076,1244.732813
13.1950,133.4935941,-54.34309128,1244.828558
13.2000,133.4456763,-54.30646615,1244.926899
13.2050,133.3920854,-54.26766751,1245.027549
13.2100,133.3325921,-54.22700694,1245.130516
13.2150,133.2682048,-54.18369603,1245.235546
13.2200,133.1983546,-54.13654428,1245.342854
13.2250,133.1234562,-54.0874625,1245.452199
13.2300,133.0437337,-54.03606602,1245.563569
13.2350,132.960034,-53.98268573,1245.676804
13.2400,132.8719009,-53.92710843,1245.7919
13.2450,132.7795478,-53.86790071,1245.908964
13.2500,132.6835106,-53.80513634,1246.027774
13.2550,132.5850306,-53.73942552,1246.148046
13.2600,132.4835724,-53.67016041,1246.269983
13.2650,132.3813868,-53.59681769,1246.393016
13.2700,132.2783256,-53.52114244,1246.517203
13.2750,132.174457,-53.44303379,1246.642445
13.2800,132.0705956,-53.3625171,1246.768571
13.2850,131.9666606,-53.28109773,1246.895621
13.2900,131.8646585,-53.19917716,1247.023087
13.2950,131.7635999,-53.11818183,1247.151232
13.3000,131.6662687,-53.0372201,1247.279474
13.3050,131.5717712,-52.95713539,1247.408015
13.3100,131.481568,-52.87686912,1247.536582
13.3150,131.3981258,-52.79725566,1247.664577
13.3200,131.3219228,-52.71929768,1247.791768
13.3250,131.2522769,-52.6427046,1247.91835
13.3300,131.1898228,-52.56718657,1248.044184
13.3350,131.1346672,-52.49251618,1248.169175
13.3400,131.0874694,-52.41872008,1248.293142
13.3450,131.0493022,-52.34661793,1248.415748
13.3500,131.0195037,-52.27553738,1248.537222
13.3550,130.9974696,-52.20597783,1248.657506
13.3600,130.9838409,-52.13685618,1248.776536
13.3650,130.9773005,-52.06793093,1248.894532
13.3700,130.9774965,-51.99916076,1249.011472
13.3750,130.983095,-51.93005999,1249.127627
13.3800,130.9943569,-51.86041889,1249.242937
13.3850,131.0107512,-51.78966476,1249.357422
13.3900,131.0330439,-51.71704299,1249.470813
13.3950,131.0619599,-51.64130895,1249.583133
13.4000,131.0947252,-51.56182604,1249.694863
13.4050,131.1320046,-51.47946753,1249.805881
13.4100,131.1742319,-51.39216613,1249.916059
13.4150,131.2205369,-51.2996138,1250.025556
13.4200,131.2722219,-51.20051669,1250.134218
13.4250,131.3288588,-51.09532693,1250.242078
13.4300,131.3906176,-50.98359861,1250.349102
13.4350,131.4571027,-50.86582269,1250.455333
13.4400,131.5282093,-50.74139337,1250.5609
13.4450,131.6032263,-50.61010088,1250.665928
13.4500,131.6822124,-50.4704973,1250.770583
13.4550,131.7648162,-50.32368168,1250.874913
13.4600,131.8506392,-50.16913991,1250.978965
13.4650,131.939412,-50.00721749,1251.082838
13.4700,132.031034,-49.83703837,1251.186537
13.4750,132.1238866,-49.65905717,1251.290429
13.4800,132.2165343,-49.47339516,1251.39483
13.4850,132.3096988,-49.28033845,1251.499514
13.4900,132.4020659,-49.08010735,1251.604639
13.4950,132.4917563,-48.87343248,1251.710685
13.5000,132.5784625,-48.66099135,1251.817482
13.5050,132.660578,-48.44276209,1251.925385
13.5100,132.738224,-48.21915232,1252.034327
13.5150,132.8098435,-47.99062188,1252.144575
13.5200,132.8767156,-47.75785646,1252.25573
13.5250,132.9368149,-47.52163333,1252.368274
13.5300,132.9917397,-47.28100664,1252.481832
13.5350,133.0401177,-47.03695661,1252.596656
13.5400,133.083235,-46.78946159,1252.712495
13.5450,133.1211512,-46.53977228,1252.829183
13.5500,133.15405,-46.28811351,1252.94675
13.5550,133.1822739,-46.03407982,1253.065164
13.5600,133.2064373,-45.77816354,1253.184205
13.5650,133.2244912,-45.52028107,1253.304429
13.5700,133.2379644,-45.26064622,1253.425404
13.5750,133.2466031,-44.99890585,1253.547256
13.5800,133.250271,-44.73578269,1253.669971
13.5850,133.2490901,-44.47081753,1253.793495
13.5900,133.2440231,-44.20316759,1253.91765
13.5950,133.2349641,-43.9321286,1254.042456
13.6000,133.2209934,-43.65926745,1254.16803
13.6050,133.2036733,-43.38327635,1254.2941
13.6100,133.1826577,-43.10534148,1254.420728
13.6150,133.1573125,-42.82456619,1254.548143
13.6200,133.1281067,-42.53998289,1254.676395
13.6250,133.0951676,-42.2522552,1254.805284
13.6300,133.0588529,-41.96093967,1254.93475
13.6350,133.0202906,-41.6650369,1255.064687
13.6400,132.9800218,-41.36614963,1255.194908
13.6450,132.9373453,-41.06328949,1255.325584
13.6500,132.8935846,-40.75664287,1255.456515
13.6550,132.8504035,-40.44612445,1255.587332
13.6600,132.8065419,-40.13242637,1255.718274
13.6650,132.7639894,-39.81509537,1255.849059
13.6700,132.7239781,-39.49390778,1255.979439
13.6750,132.6873426,-39.16931703,1256.109162
13.6800,132.655164,-38.84041346,1256.238036
13.6850,132.6266812,-38.50744018,1256.366188
13.6900,132.6014552,-38.1701281,1256.493791
13.6950,132.5791953,-37.82980598,1256.620753
13.7000,132.5619927,-37.48528923,1256.746679
13.7050,132.548592,-37.13724724,1256.871723
13.7100,132.5401874,-36.78720075,1256.995532
13.7150,132.5353126,-36.43560609,1257.118386
13.7200,132.5331363,-36.0832805,1257.240363
13.7250,132.5335923,-35.73052902,1257.361446
13.7300,132.5368469,-35.37682981,1257.481653
13.7350,132.541487,-35.02366051,1257.601239
