type,name,time_units,begin_time,frequency,count,units
signal_3d,"Noraxon MyoMotion-Trajectories-Elbow RT","s",0.0000,200,5008,"mm"

time,x,y,z
0.0000,171.0528159,-33.00533743,1237.244643
0.0050,171.0669475,-33.00885779,1237.241942
0.0100,171.081079,-33.01237938,1237.239242
0.0150,171.0952103,-33.01590221,1237.236543
0.0200,171.1102097,-33.01973021,1237.23367
0.0250,171.1259468,-33.02383361,1237.230648
0.0300,171.1422727,-33.02818408,1237.227505
0.0350,171.1590276,-33.03276324,1237.224271
0.0400,171.1760497,-33.037565,1237.220973
0.0450,171.1931841,-33.042591,1237.217638
0.0500,171.2102851,-33.04784429,1237.214291
0.0550,171.227215,-33.05332691,1237.210953
0.0600,171.2438411,-33.05903723,1237.207648
0.0650,171.2600365,-33.06496238,1237.204397
0.0700,171.2756847,-33.07107119,1237.201223
0.0750,171.2906859,-33.07731497,1237.198147
0.0800,171.3049578,-33.08363344,1237.195188
0.0850,171.3184318,-33.08996141,1237.192362
0.0900,171.3310511,-33.09623628,1237.189685
0.0950,171.3427722,-33.10240522,1237.187168
0.1000,171.3535638,-33.10842927,1237.184821
0.1050,171.3634029,-33.1142835,1237.182648
0.1100,171.3722746,-33.1199544,1237.180654
0.1150,171.3801737,-33.12543832,1237.178839
0.1200,171.3871011,-33.13073952,1237.177202
0.1250,171.3930584,-33.13586437,1237.175744
0.1300,171.3980461,-33.1408152,1237.174463
0.1350,171.4020647,-33.14558862,1237.17336
0.1400,171.405116,-33.15017492,1237.172437
0.1450,171.4072106,-33.15455586,1237.171694
0.1500,171.4083814,-33.15870298,1237.171129
0.1550,171.4210968,-33.15874895,1237.168992
0.1600,171.4330277,-33.15849528,1237.167015
0.1650,171.4443225,-33.15786874,1237.165171
0.1700,171.45511,-33.1563035,1237.163498
0.1750,171.4664346,-33.15210141,1237.161981
0.1800,171.4771241,-33.14681914,1237.160664
0.1850,171.4873336,-33.1398545,1237.159587
0.1900,171.4974048,-33.13215151,1237.158605
0.1950,171.5073591,-33.12361228,1237.157716
0.2000,171.5178251,-33.11415249,1237.156815
0.2050,171.5288466,-33.10375733,1237.155903
0.2100,171.5393463,-33.09253661,1237.15515
0.2150,171.5503975,-33.0804069,1237.154395
0.2200,171.5609677,-33.06702659,1237.153829
0.2250,171.5729364,-33.05272941,1237.153103
0.2300,171.5852343,-33.03720663,1237.152432
0.2350,171.5978072,-33.02105946,1237.151771
0.2400,171.6099681,-33.00397144,1237.151264
0.2450,171.6222247,-32.98650503,1237.150769
0.2500,171.6348897,-32.96768984,1237.150316
0.2550,171.6482345,-32.94907886,1237.149737
0.2600,171.6603999,-32.93000859,1237.14939
0.2650,171.6725663,-32.91089601,1237.149036
0.2700,171.6852586,-32.89176453,1237.148585
0.2750,171.6978168,-32.87320554,1237.148094
0.2800,171.7101631,-32.85385304,1237.147702
0.2850,171.7229008,-32.8347017,1237.147217
0.2900,171.7353572,-32.81540527,1237.146786
0.2950,171.7460777,-32.79719438,1237.146535
0.3000,171.7564641,-32.77847239,1237.146372
0.3050,171.7660005,-32.76090751,1237.14623
0.3100,171.7751212,-32.7440744,1237.146075
0.3150,171.7832083,-32.72762039,1237.146054
0.3200,171.7913137,-32.71155001,1237.14598
0.3250,171.8003021,-32.69630852,1237.145662
0.3300,171.8097139,-32.68206986,1237.14517
0.3350,171.8179594,-32.668071,1237.144846
0.3400,171.8257704,-32.65521139,1237.144475
0.3450,171.8321623,-32.64309999,1237.144269
0.3500,171.8386996,-32.63243448,1237.1439
0.3550,171.8448818,-32.6222421,1237.143548
0.3600,171.8502912,-32.6134519,1237.143196
0.3650,171.8556572,-32.60536885,1237.142787
0.3700,171.8602847,-32.59791009,1237.142448
0.3750,171.8635711,-32.59153454,1237.142244
0.3800,171.8656456,-32.58609378,1237.142156
0.3850,171.8669995,-32.5814061,1237.142127
0.3900,171.8678997,-32.57682406,1237.142163
0.3950,171.8679411,-32.5737187,1237.14222
0.4000,171.8673437,-32.57003728,1237.142447
0.4050,171.8661944,-32.56716617,1237.142704
0.4100,171.8648911,-32.5645273,1237.142975
0.4150,171.8631201,-32.5610924,1237.143408
0.4200,171.8614996,-32.55772886,1237.14382
0.4250,171.8585113,-32.55413911,1237.1445
0.4300,171.8556028,-32.55109885,1237.145115
0.4350,171.8525519,-32.5471712,1237.14585
0.4400,171.8484733,-32.54347396,1237.146741
0.4450,171.843892,-32.53946503,1237.147763
0.4500,171.8397099,-32.53458196,1237.148804
0.4550,171.8355841,-32.53035283,1237.14979
0.4600,171.8314695,-32.52582936,1237.150818
0.4650,171.8260544,-32.52123351,1237.152081
0.4700,171.8213998,-32.51684256,1237.153206
0.4750,171.8161173,-32.5133763,1237.154356
0.4800,171.8112485,-32.51025327,1237.155411
0.4850,171.806513,-32.50706648,1237.156457
0.4900,171.8024034,-32.50280329,1237.157494
0.4950,171.7989176,-32.49949401,1237.158342
0.5000,171.7964595,-32.49514687,1237.159106
0.5050,171.7959688,-32.49115747,1237.159497
0.5100,171.7982526,-32.48691092,1237.159432
0.5150,171.8025632,-32.48293981,1237.158974
0.5200,171.809204,-32.47917012,1237.158082
0.5250,171.8175536,-32.47509063,1237.156911
0.5300,171.8290353,-32.47143339,1237.155137
0.5350,171.8438812,-32.46763111,1237.152772
0.5400,171.8625411,-32.46400161,1237.149707
0.5450,171.8852352,-32.45996424,1237.145968
0.5500,171.9109189,-32.45609089,1237.141669
0.5550,171.9400049,-32.45177277,1237.136789
0.5600,171.9730733,-32.44741112,1237.131184
0.5650,172.0100129,-32.44252129,1237.124931
0.5700,172.0509014,-32.43710878,1237.118003
0.5750,172.09421,-32.43098422,1237.110672
0.5800,172.1403146,-32.42413592,1237.102884
0.5850,172.1891497,-32.41715469,1237.094591
0.5900,172.2399654,-32.41077774,1237.085854
0.5950,172.2934632,-32.40257515,1237.076781
0.6000,172.3488693,-32.39433388,1237.06735
0.6050,172.4059464,-32.38621792,1237.057581
0.6100,172.4647771,-32.37785148,1237.047498
0.6150,172.525142,-32.36998093,1237.037064
0.6200,172.5856437,-32.36287149,1237.026501
0.6250,172.6459805,-32.35625618,1237.015874
0.6300,172.7062305,-32.35022351,1237.005171
0.6350,172.7664432,-32.34538448,1236.994337
0.6400,172.8258644,-32.34242452,1236.983435
0.6450,172.8845195,-32.34091871,1236.972505
0.6500,172.9409766,-32.34103302,1236.961771
0.6550,172.9952776,-32.34364117,1236.95114
0.6600,173.0462742,-32.34825008,1236.94086
0.6650,173.0934444,-32.35576209,1236.930938
0.6700,173.1372407,-32.36439009,1236.921459
0.6750,173.1776835,-32.37478241,1236.912365
0.6800,173.2128039,-32.38679354,1236.904006
0.6850,173.2426818,-32.4000499,1236.896397
0.6900,173.2673778,-32.41411124,1236.889572
0.6950,173.2865896,-32.42809789,1236.883669
0.7000,173.2993264,-32.4422833,1236.878827
0.7050,173.3058707,-32.45576321,1236.875079
0.7100,173.3067436,-32.46861444,1236.872344
0.7150,173.301161,-32.48022142,1236.870808
0.7200,173.2897198,-32.49084538,1236.870354
0.7250,173.2729898,-32.49984702,1236.870943
0.7300,173.2497523,-32.50642807,1236.872869
0.7350,173.2205637,-32.51258146,1236.87585
0.7400,173.1856332,-32.51696356,1236.879984
0.7450,173.1457622,-32.52116259,1236.884986
0.7500,173.1006123,-32.52601915,1236.890835
0.7550,173.0515187,-32.53076208,1236.897389
0.7600,172.9988383,-32.53614478,1236.904514
0.7650,172.9438905,-32.54239153,1236.911971
0.7700,172.88605,-32.54998194,1236.919823
0.7750,172.8268028,-32.55964607,1236.927757
0.7800,172.7663712,-32.57126286,1236.935739
0.7850,172.7060282,-32.5864699,1236.943416
0.7900,172.6451589,-32.60570565,1236.950844
0.7950,172.5847493,-32.62808014,1236.95795
0.8000,172.5247191,-32.65428617,1236.964688
0.8050,172.4651749,-32.68346227,1236.97112
0.8100,172.4058771,-32.71669683,1236.977172
0.8150,172.348533,-32.75277544,1236.982679
0.8200,172.2924817,-32.79171549,1236.987742
0.8250,172.2388793,-32.83333305,1236.992181
0.8300,172.187065,-32.87759767,1236.99612
0.8350,172.1378645,-32.92327304,1236.999528
0.8400,172.0904531,-32.97046112,1237.002524
0.8450,172.0456003,-33.01948717,1237.00494
0.8500,172.0045803,-33.07068769,1237.006546
0.8550,171.9666782,-33.12379017,1237.007472
0.8600,171.9322703,-33.17785525,1237.007743
0.8650,171.9018444,-33.23400084,1237.007168
0.8700,171.8745555,-33.29304624,1237.005821
0.8750,171.8522972,-33.35547614,1237.003344
0.8800,171.8353592,-33.42152341,1236.999656
0.8850,171.8234658,-33.4904412,1236.994869
0.8900,171.8171314,-33.56238585,1236.988877
0.8950,171.8167338,-33.63944012,1236.981444
0.9000,171.82207,-33.72075131,1236.972664
0.9050,171.8337406,-33.80525552,1236.962545
0.9100,171.8524835,-33.89388198,1236.950876
0.9150,171.8777006,-33.9850887,1236.937894
0.9200,171.9094992,-34.07976414,1236.923518
0.9250,171.9475502,-34.17719386,1236.907869
0.9300,171.9915098,-34.27770323,1236.890977
0.9350,172.0410154,-34.38004261,1236.873002
0.9400,172.0943119,-34.4836015,1236.854306
0.9450,172.1518874,-34.5889095,1236.834762
0.9500,172.2125431,-34.69526106,1236.814628
0.9550,172.2751953,-34.80090367,1236.79425
0.9600,172.33882,-34.9061012,1236.773768
0.9650,172.4024665,-35.01055222,1236.75336
0.9700,172.465778,-35.11492535,1236.733043
0.9750,172.5265195,-35.217702,1236.713308
0.9800,172.5852127,-35.3184969,1236.694091
0.9850,172.6406185,-35.41814946,1236.675524
0.9900,172.6909499,-35.51612908,1236.657954
0.9950,172.7360951,-35.61270699,1236.641368
1.0000,172.7768401,-35.7080231,1236.625606
1.0050,172.8115843,-35.80102445,1236.61103
1.0100,172.8398872,-35.89254571,1236.597638
1.0150,172.8627515,-35.98217075,1236.585293
1.0200,172.8790448,-36.06976362,1236.574201
1.0250,172.8890098,-36.15546082,1236.564307
1.0300,172.8924369,-36.23847202,1236.55571
1.0350,172.8906731,-36.3178361,1236.54826
1.0400,172.8831628,-36.39381235,1236.542034
1.0450,172.8700342,-36.46613352,1236.537034
1.0500,172.8516189,-36.53455693,1236.53323
1.0550,172.8264963,-36.5995552,1236.530814
1.0600,172.7950195,-36.660583,1236.529776
1.0650,172.7566565,-36.71765422,1236.530204
1.0700,172.7126102,-36.77168414,1236.531822
1.0750,172.6617382,-36.82243091,1236.534845
1.0800,172.6052831,-36.8713758,1236.538951
1.0850,172.542275,-36.91749254,1236.544375
1.0900,172.4738871,-36.96134078,1236.550886
1.0950,172.4002546,-37.00280329,1236.558464
1.1000,172.3216287,-37.04267398,1236.566999
1.1050,172.2397742,-37.0826444,1236.576072
1.1100,172.1562668,-37.1224668,1236.585443
1.1150,172.0718053,-37.16350248,1236.594876
1.1200,171.9879023,-37.20556881,1236.604131
1.1250,171.9059573,-37.24943236,1236.612902
1.1300,171.8280972,-37.29533329,1236.620798
1.1350,171.7545504,-37.34378249,1236.627737
1.1400,171.6879793,-37.39636964,1236.633141
1.1450,171.6288022,-37.4530954,1236.636918
1.1500,171.5779334,-37.51438956,1236.638854
1.1550,171.5357194,-37.58024479,1236.6389
1.1600,171.5046475,-37.65197705,1236.636503
1.1650,171.4840956,-37.72977344,1236.63176
1.1700,171.4755367,-37.81413521,1236.624361
1.1750,171.4782567,-37.90489004,1236.61443
1.1800,171.4933036,-38.00312526,1236.601691
1.1850,171.5216881,-38.10945813,1236.585926
1.1900,171.5647599,-38.22345104,1236.566927
1.1950,171.6232362,-38.34569101,1236.544531
1.2000,171.6982056,-38.47616496,1236.518546
1.2050,171.7904753,-38.6158457,1236.488776
1.2100,171.8987027,-38.76490264,1236.45544
1.2150,172.0260353,-38.92433665,1236.417954
1.2200,172.1722342,-39.09299942,1236.376463
1.2250,172.3384518,-39.27199248,1236.330724
1.2300,172.5250922,-39.46136966,1236.280691
1.2350,172.7326912,-39.66105449,1236.226327
1.2400,172.9626503,-39.8702704,1236.167504
1.2450,173.2144394,-40.08993261,1236.104282
1.2500,173.4872704,-40.3187996,1236.036941
1.2550,173.7815679,-40.5574065,1235.965439
1.2600,174.0972932,-40.80369229,1235.88998
1.2650,174.4324129,-41.05730551,1235.810997
1.2700,174.784689,-41.31730396,1235.728963
1.2750,175.1527038,-41.58251003,1235.644247
1.2800,175.5351095,-41.85273465,1235.557142
1.2850,175.9282283,-42.12547748,1235.468439
1.2900,176.3304522,-42.40140624,1235.378387
1.2950,176.7373306,-42.67804688,1235.287869
1.3000,177.1456934,-42.9552289,1235.197411
1.3050,177.5532466,-43.23170506,1235.107435
1.3100,177.9573796,-43.50676455,1235.018384
1.3150,178.3546526,-43.77889178,1234.930855
1.3200,178.7436974,-44.04734267,1234.845048
1.3250,179.1220259,-44.31162302,1234.761329
1.3300,179.4883479,-44.57168186,1234.679849
1.3350,179.8399538,-44.82677436,1234.600999
1.3400,180.1764117,-45.07598146,1234.524827
1.3450,180.4968883,-45.31855706,1234.451457
1.3500,180.8001644,-45.55391292,1234.381022
1.3550,181.0868419,-45.78230219,1234.31337
1.3600,181.3570365,-46.00264614,1234.24848
1.3650,181.6096363,-46.21557661,1234.186436
1.3700,181.8436165,-46.41975123,1234.127397
1.3750,182.0589669,-46.61473305,1234.071329
1.3800,182.2555254,-46.79959959,1234.01826
1.3850,182.4323168,-46.97498568,1233.968261
1.3900,182.5903376,-47.14032927,1233.921158
1.3950,182.7292662,-47.29620522,1233.876949
1.4000,182.8487184,-47.44220066,1233.835659
1.4050,182.9472939,-47.57657138,1233.797534
1.4100,183.0249766,-47.69988336,1233.762531
1.4150,183.0794001,-47.81209769,1233.730948
1.4200,183.1120732,-47.91315421,1233.702572
1.4250,183.1209892,-48.00205077,1233.67772
1.4300,183.1064005,-48.07899364,1233.656347
1.4350,183.0692392,-48.14463579,1233.638292
1.4400,183.0091644,-48.19784184,1233.623657
1.4450,182.9272121,-48.23928808,1233.612301
1.4500,182.8236189,-48.26930124,1233.604199
1.4550,182.7001856,-48.28848505,1233.599081
1.4600,182.5572079,-48.29662563,1233.596972
1.4650,182.3972344,-48.29419793,1233.597499
1.4700,182.2211681,-48.2803785,1233.60062
1.4750,182.0314431,-48.25657057,1233.60596
1.4800,181.8296858,-48.22324598,1233.613316
1.4850,181.616984,-48.17992172,1233.622583
1.4900,181.3957151,-48.12738343,1233.633424
1.4950,181.1669157,-48.06505623,1233.645738
1.5000,180.9327113,-47.99465136,1233.659175
1.5050,180.6941177,-47.91553332,1233.673629
1.5100,180.4529236,-47.82689887,1233.6889
1.5150,180.2093684,-47.72866782,1233.704997
1.5200,179.9654078,-47.62152413,1233.721589
1.5250,179.7215028,-47.50484942,1233.738665
1.5300,179.4792442,-47.37836487,1233.756031
1.5350,179.2387848,-47.24254435,1233.773653
1.5400,179.0010834,-47.09727644,1233.791391
1.5450,178.7667525,-46.94198333,1233.809207
1.5500,178.5373657,-46.77802239,1233.826806
1.5550,178.31317,-46.60548694,1233.844142
1.5600,178.0940008,-46.42607837,1233.861169
1.5650,177.8805944,-46.23891015,1233.877839
1.5700,177.6726072,-46.04634417,1233.894084
1.5750,177.4711821,-45.84857461,1233.909722
1.5800,177.2758946,-45.6460853,1233.924794
1.5850,177.0879586,-45.43964773,1233.939081
1.5900,176.9064633,-45.22938884,1233.952726
1.5950,176.7336227,-45.01693537,1233.965286
1.6000,176.5701371,-44.8011383,1233.97673
1.6050,176.4164575,-44.58435116,1233.986843
1.6100,176.2713162,-44.36565978,1233.995873
1.6150,176.1358775,-44.14573887,1234.003582
1.6200,176.0109289,-43.92526004,1234.009823
1.6250,175.8960563,-43.70352233,1234.014682
1.6300,175.7926534,-43.48148809,1234.017871
1.6350,175.7000522,-43.25939416,1234.019489
1.6400,175.6178007,-43.03742365,1234.019609
1.6450,175.5458171,-42.81616811,1234.01818
1.6500,175.4837826,-42.59618789,1234.015227
1.6550,175.4308081,-42.37671065,1234.010919
1.6600,175.3860591,-42.15983963,1234.005284
1.6650,175.3501125,-41.94452698,1233.998252
1.6700,175.3210127,-41.73207999,1233.99006
1.6750,175.2997414,-41.52330202,1233.980495
1.6800,175.2847344,-41.31886325,1233.969765
1.6850,175.2762706,-41.11815459,1233.957843
1.6900,175.2737627,-40.92159707,1233.944815
1.6950,175.2761101,-40.72913721,1233.930832
1.7000,175.2838194,-40.54087727,1233.915826
1.7050,175.2972872,-40.35738507,1233.899681
1.7100,175.3149895,-40.17794864,1233.882697
1.7150,175.3381787,-40.00136117,1233.864763
1.7200,175.3654743,-39.82785255,1233.846096
1.7250,175.3973619,-39.65730743,1233.82663
1.7300,175.4333079,-39.48938206,1233.806471
1.7350,175.4736193,-39.3236301,1233.78561
1.7400,175.518134,-39.15923461,1233.764161
1.7450,175.5666915,-38.99552528,1233.742193
1.7500,175.6192464,-38.83141228,1233.719787
1.7550,175.6755843,-38.66793484,1233.69692
1.7600,175.7352897,-38.50481731,1233.673669
1.7650,175.7969276,-38.34155549,1233.650316
1.7700,175.8601379,-38.17956963,1233.626814
1.7750,175.9249731,-38.01982739,1233.603073
1.7800,175.98904,-37.86172106,1233.579514
1.7850,176.0510063,-37.70648615,1233.556234
1.7900,176.1097612,-37.55629568,1233.53325
1.7950,176.1644943,-37.41123487,1233.510663
1.8000,176.2135166,-37.27048684,1233.488803
1.8050,176.2566499,-37.13484716,1233.467645
1.8100,176.2941116,-37.00496546,1233.447095
1.8150,176.3257974,-36.88039619,1233.427188
1.8200,176.3509879,-36.76115003,1233.408046
1.8250,176.3709383,-36.64680043,1233.389509
1.8300,176.3851949,-36.53609816,1233.371727
1.8350,176.3948267,-36.42893119,1233.354553
1.8400,176.3998319,-36.32422695,1233.338081
1.8450,176.4009388,-36.22129765,1233.322241
1.8500,176.3982227,-36.11843866,1233.307194
1.8550,176.3925718,-36.0158134,1233.292772
1.8600,176.3841085,-35.91070799,1233.279202
1.8650,176.3740274,-35.80377062,1233.266207
1.8700,176.36452,-35.69256948,1233.253659
1.8750,176.3552855,-35.57765284,1233.241558
1.8800,176.3467829,-35.45754464,1233.229967
1.8850,176.3398232,-35.33334487,1233.218649
1.8900,176.3350161,-35.2042312,1233.207577
1.8950,176.3319271,-35.07027723,1233.196813
1.9000,176.3292301,-34.93272876,1233.186448
1.9050,176.3278774,-34.79053171,1233.176439
1.9100,176.3284383,-34.6443423,1233.16663
1.9150,176.3304534,-34.49493738,1233.157026
1.9200,176.3324229,-34.34181597,1233.147913
1.9250,176.3355017,-34.18651126,1233.138992
1.9300,176.3398845,-34.02768555,1233.130328
1.9350,176.3450127,-33.86563748,1233.121976
1.9400,176.3519249,-33.70132509,1233.113689
1.9450,176.3598787,-33.53401603,1233.105642
1.9500,176.3691025,-33.36281115,1233.097891
1.9550,176.3797673,-33.18830368,1233.090363
1.9600,176.3933176,-33.00948523,1233.082895
1.9650,176.4089742,-32.82619218,1233.075663
1.9700,176.4288338,-32.63828839,1233.068343
1.9750,176.4519986,-32.44572213,1233.061112
1.9800,176.4788753,-32.24776848,1233.053957
1.9850,176.510599,-32.04555562,1233.046587
1.9900,176.5452781,-31.83974143,1233.03925
1.9950,176.5833112,-31.63003514,1233.031938
2.0000,176.625358,-31.41708335,1233.024486
2.0050,176.6699089,-31.20083038,1233.017156
2.0100,176.7169587,-30.98143967,1233.009938
2.0150,176.7681059,-30.75922704,1233.002558
2.0200,176.8220329,-30.53486096,1232.995162
2.0250,176.8792799,-30.30819792,1232.987699
2.0300,176.9393333,-30.07914054,1232.98026
2.0350,177.0004111,-29.84825405,1232.973096
2.0400,177.0630237,-29.61517977,1232.96615
2.0450,177.1260839,-29.38025075,1232.959562
2.0500,177.188782,-29.14371341,1232.953476
2.0550,177.2517442,-28.90410702,1232.947916
2.0600,177.3144419,-28.66214762,1232.942901
2.0650,177.377108,-28.41697916,1232.938483
2.0700,177.4399428,-28.16780631,1232.934727
2.0750,177.5010042,-27.91422025,1232.931989
2.0800,177.5611881,-27.65587962,1232.930177
2.0850,177.6192203,-27.3934518,1232.929443
2.0900,177.6748247,-27.12593243,1232.929948
2.0950,177.7269439,-26.85360173,1232.931827
2.1000,177.776384,-26.57695327,1232.934917
2.1050,177.8211139,-26.29711601,1232.939401
2.1100,177.8608284,-26.0144429,1232.945283
2.1150,177.894047,-25.73110923,1232.952558
2.1200,177.9198113,-25.44621688,1232.961455
2.1250,177.9366043,-25.16098237,1232.972084
2.1300,177.9434657,-24.8760387,1232.984524
2.1350,177.9403372,-24.59178272,1232.998741
2.1400,177.9266182,-24.30821212,1233.014811
2.1450,177.9028823,-24.02503643,1233.032673
2.1500,177.868929,-23.74303196,1233.052263
2.1550,177.8245344,-23.46140898,1233.073715
2.1600,177.7706658,-23.18163602,1233.096678
2.1650,177.7069804,-22.90331512,1233.121273
2.1700,177.6319179,-22.6257254,1233.147834
2.1750,177.5460127,-22.34817204,1233.176354
2.1800,177.4498916,-22.07244908,1233.206521
2.1850,177.343615,-21.79793954,1233.238448
2.1900,177.2281158,-21.52385753,1233.27207
2.1950,177.1037892,-21.24946206,1233.307428
2.2000,176.9712416,-20.97451865,1233.344464
2.2050,176.8311692,-20.69886976,1233.383101
2.2100,176.6836282,-20.42139942,1233.423485
2.2150,176.5292176,-20.14192187,1233.465561
2.2200,176.3689844,-19.86070452,1233.509133
2.2250,176.202904,-19.57674603,1233.554331
2.2300,176.0301297,-19.2906236,1233.601246
2.2350,175.852264,-19.00142177,1233.64975
2.2400,175.669249,-18.70902059,1233.699862
2.2450,175.481404,-18.41368687,1233.751524
2.2500,175.2904168,-18.11584813,1233.804408
2.2550,175.0954036,-17.81490196,1233.858754
2.2600,174.8960475,-17.51148437,1233.914553
2.2650,174.6934928,-17.20556897,1233.971655
2.2700,174.4881216,-16.89621741,1234.03011
2.2750,174.2803869,-16.58302637,1234.089904
2.2800,174.0711838,-16.26600821,1234.150927
2.2850,173.8603145,-15.94399325,1234.2134
2.2900,173.6488236,-15.61664824,1234.277229
2.2950,173.4373233,-15.28463963,1234.342232
2.3000,173.2247805,-14.94714506,1234.408734
2.3050,173.0105829,-14.60512976,1234.476753
2.3100,172.7953438,-14.257858,1234.546302
2.3150,172.5769444,-13.90661906,1234.617581
2.3200,172.3556289,-13.54978731,1234.690817
2.3250,172.1305338,-13.18785533,1234.766117
2.3300,171.9022596,-12.82010898,1234.843527
2.3350,171.6708949,-12.44532236,1234.923217
2.3400,171.4348642,-12.06318012,1235.005541
2.3450,171.1948002,-11.67443118,1235.090321
2.3500,170.950536,-11.27867473,1235.17768
2.3550,170.7017027,-10.87650997,1235.267628
2.3600,170.4467657,-10.46788816,1235.360483
2.3650,170.1844644,-10.05478698,1235.456208
2.3700,169.9145424,-9.637109085,1235.554867
2.3750,169.63635,-9.214908015,1235.656601
2.3800,169.3482722,-8.7904562,1235.761383
2.3850,169.0506304,-8.363607908,1235.869199
2.3900,168.7430895,-7.934984376,1235.980029
2.3950,168.426419,-7.505884296,1236.093563
2.4000,168.0988334,-7.076963374,1236.210027
2.4050,167.7607122,-6.648515291,1236.329359
2.4100,167.4112305,-6.220385519,1236.451759
2.4150,167.0514863,-5.791509196,1236.577225
2.4200,166.6822757,-5.363460228,1236.705379
2.4250,166.303346,-4.93573784,1236.836399
2.4300,165.9148017,-4.509325577,1236.970136
2.4350,165.5155615,-4.083888577,1237.106891
2.4400,165.1062372,-3.661192249,1237.246319
2.4450,164.6848336,-3.241373337,1237.388829
2.4500,164.2510216,-2.824287697,1237.53454
2.4550,163.8043051,-2.409776102,1237.683618
2.4600,163.3453619,-1.997879007,1237.835966
2.4650,162.8736825,-1.587069848,1237.991993
2.4700,162.390932,-1.177278295,1238.151418
2.4750,161.8976471,-0.7678648449,1238.31427
2.4800,161.394838,-0.3571575117,1238.480711
2.4850,160.8823902,0.05527715653,1238.650859
2.4900,160.3606704,0.4686870931,1238.824561
2.4950,159.8304352,0.8815179822,1239.001439
2.5000,159.293113,1.292691253,1239.181037
2.5050,158.7479687,1.701206364,1239.36336
2.5100,158.1941828,2.106050128,1239.548388
2.5150,157.6321376,2.505356721,1239.735713
2.5200,157.0618629,2.899216143,1239.925369
2.5250,156.4831538,3.287390015,1240.117413
2.5300,155.8972919,3.669802607,1240.311551
2.5350,155.3055367,4.046055533,1240.507464
2.5400,154.7080794,4.416624648,1240.705217
2.5450,154.1054492,4.780728753,1240.904588
2.5500,153.4957651,5.138004756,1241.105938
2.5550,152.8819773,5.489720888,1241.308846
2.5600,152.2639664,5.837033201,1241.513577
2.5650,151.642123,6.180275897,1241.720081
2.5700,151.016397,6.51927224,1241.928389
2.5750,150.3881432,6.854075741,1242.138198
2.5800,149.756729,7.184325624,1242.34956
2.5850,149.1227441,7.510527296,1242.562452
2.5900,148.4860028,7.832085104,1242.77678
2.5950,147.8471184,8.150901386,1242.992796
2.6000,147.2067972,8.467382439,1243.210378
2.6050,146.5675816,8.782283485,1243.429048
2.6100,145.9294843,9.095348626,1243.648751
2.6150,145.2935472,9.407254565,1243.869369
2.6200,144.6603749,9.716599136,1244.090426
2.6250,144.0308145,10.02379913,1244.311767
2.6300,143.4043617,10.32803697,1244.533326
2.6350,142.781596,10.62841934,1244.75474
2.6400,142.163872,10.92434553,1244.975481
2.6450,141.5495005,11.21565384,1245.195925
2.6500,140.9399838,11.50184667,1245.415519
2.6550,140.3331351,11.78287576,1245.634825
2.6600,139.7307586,12.05877022,1245.853307
2.6650,139.1319079,12.33069436,1246.071422
2.6700,138.5367297,12.59657906,1246.288645
2.6750,137.9472335,12.85721221,1246.504558
2.6800,137.3632043,13.11337648,1246.719351
2.6850,136.7856694,13.36424778,1246.932519
2.6900,136.2136367,13.60999973,1247.144334
2.6950,135.6464034,13.85087126,1247.354978
2.7000,135.0839907,14.08622369,1247.564281
2.7050,134.5264176,14.31753728,1247.772514
2.7100,133.9741469,14.54329542,1247.979182
2.7150,133.4263274,14.76323919,1248.184442
2.7200,132.8833148,14.97813243,1248.388358
2.7250,132.3452678,15.18771251,1248.590744
2.7300,131.8132022,15.3928635,1248.79148
2.7350,131.2866817,15.59351836,1248.99063
2.7400,130.7659776,15.78992177,1249.188113
2.7450,130.2518803,15.98401691,1249.38412
2.7500,129.7434933,16.17539415,1249.578805
2.7550,129.2416816,16.36513432,1249.772144
2.7600,128.7466656,16.55423774,1249.964281
2.7650,128.2583036,16.74120582,1250.154854
2.7700,127.7762673,16.92594906,1250.343945
2.7750,127.3010295,17.10706843,1250.531078
2.7800,126.8304463,17.28465635,1250.716914
2.7850,126.3654004,17.45770697,1250.900944
2.7900,125.905335,17.62769157,1251.083664
2.7950,125.4483353,17.79374781,1251.265447
2.8000,124.9944723,17.95760748,1251.446684
2.8050,124.5426658,18.12102445,1251.628117
2.8100,124.0949548,18.28400207,1251.809093
2.8150,123.6509897,18.44792679,1251.990041
2.8200,123.2101082,18.61269036,1252.17116
2.8250,122.7725413,18.77819307,1252.352331
2.8300,122.3376624,18.94417678,1252.533657
2.8350,121.9043832,19.11005381,1252.715344
2.8400,121.4720359,19.27558229,1252.897494
2.8450,121.0419466,19.44177995,1253.079886
2.8500,120.613706,19.60789996,1253.262459
2.8550,120.1861339,19.77266311,1253.445275
2.8600,119.7586554,19.93477536,1253.628204
2.8650,119.3309366,20.09397563,1253.811301
2.8700,118.9040976,20.25030913,1253.99418
2.8750,118.4768621,20.40326732,1254.177123
2.8800,118.0493828,20.55354279,1254.360256
2.8850,117.6210949,20.69974216,1254.543414
2.8900,117.1930564,20.8431952,1254.726585
2.8950,116.765391,20.98345602,1254.9096
2.9000,116.3378397,21.12038057,1255.092545
2.9050,115.9095,21.25477142,1255.275923
2.9100,115.4803819,21.38589533,1255.459553
2.9150,115.0487467,21.5138796,1255.64409
2.9200,114.6164005,21.64050433,1255.829333
2.9250,114.1827329,21.76526664,1256.015376
2.9300,113.7484353,21.88821772,1256.201995
2.9350,113.3125083,22.01021819,1256.389803
2.9400,112.8747972,22.13020799,1256.578581
2.9450,112.4364888,22.2488792,1256.768077
2.9500,111.9969141,22.36671436,1256.958652
2.9550,111.556927,22.4841164,1257.150087
2.9600,111.1158351,22.60077679,1257.342561
2.9650,110.6740182,22.71687658,1257.536
2.9700,110.2321521,22.83340547,1257.730373
2.9750,109.7882141,22.94989666,1257.926327
2.9800,109.3436899,23.06603447,1258.12322
2.9850,108.8981705,23.18336115,1258.321596
2.9900,108.4521507,23.30176219,1258.521241
2.9950,108.0059312,23.42124573,1258.722085
3.0000,107.5608714,23.54211886,1258.923653
3.0050,107.1165968,23.6634765,1259.125899
3.0100,106.6730252,23.7859838,1259.329008
3.0150,106.2300881,23.90852056,1259.532732
3.0200,105.7873927,24.03177344,1259.737409
3.0250,105.3449755,24.15491911,1259.942817
3.0300,104.9015129,24.27849586,1260.149617
3.0350,104.4583344,24.4028579,1260.357385
3.0400,104.015935,24.52990185,1260.566428
3.0450,103.5743008,24.65879429,1260.776529
3.0500,103.1350036,24.78955653,1260.987054
3.0550,102.69802,24.92318876,1261.198251
3.0600,102.2619539,25.05979507,1261.410695
3.0650,101.8287202,25.20039923,1261.623929
3.0700,101.397912,25.34522379,1261.838165
3.0750,100.9696993,25.49511239,1262.053529
3.0800,100.5449511,25.6495095,1262.269509
3.0850,100.1242343,25.80890997,1262.485969
3.0900,99.70746606,25.97250137,1262.702723
3.0950,99.29570465,26.14116643,1262.91955
3.1000,98.88853848,26.31350302,1263.136198
3.1050,98.48787968,26.48821937,1263.351506
3.1100,98.09322835,26.66462433,1263.565483
3.1150,97.70406668,26.84196438,1263.778127
3.1200,97.32153668,27.01982536,1263.988799
3.1250,96.94575183,27.19787968,1264.197315
3.1300,96.57656354,27.37587744,1264.40371
3.1350,96.21499975,27.55386553,1264.607502
3.1400,95.8611774,27.73136819,1264.808533
3.1450,95.51423416,27.90830524,1265.007112
3.1500,95.17534473,28.08567762,1265.202999
3.1550,94.84479088,28.26212106,1265.395683
3.1600,94.52206218,28.43818975,1265.585492
3.1650,94.20726168,28.61329165,1265.772186
3.1700,93.89943834,28.7865619,1265.9559
3.1750,93.59902798,28.95779223,1266.136352
3.1800,93.30586876,29.12712049,1266.313619
3.1850,93.01978867,29.29549292,1266.48799
3.1900,92.73963525,29.46105998,1266.659421
3.1950,92.46469243,29.62286891,1266.827927
3.2000,92.19495692,29.7809873,1266.993494
3.2050,91.93069311,29.93550802,1267.155992
3.2100,91.67185629,30.08571569,1267.315228
3.2150,91.41899454,30.23110813,1267.47077
3.2200,91.17145664,30.37066873,1267.622618
3.2250,90.92812078,30.50458418,1267.77133
3.2300,90.68814058,30.63194988,1267.916983
3.2350,90.45222059,30.75297453,1268.059283
3.2400,90.21920313,30.86708125,1268.198589
3.2450,89.98969674,30.97537716,1268.334937
3.2500,89.76304339,31.07662285,1268.468237
3.2550,89.53917576,31.17090998,1268.598538
3.2600,89.31827027,31.2595429,1268.726108
3.2650,89.10048626,31.34210216,1268.850763
3.2700,88.88413825,31.41879897,1268.973328
3.2750,88.66996498,31.48919812,1269.093305
3.2800,88.45708782,31.55524395,1269.211679
3.2850,88.24473222,31.61536585,1269.328359
3.2900,88.03210096,31.67082681,1269.44408
3.2950,87.81826527,31.72253665,1269.559546
3.3000,87.6029471,31.77115842,1269.675098
3.3050,87.38580946,31.8169203,1269.790925
3.3100,87.16697664,31.86133118,1269.907443
3.3150,86.94647894,31.90743429,1270.025519
3.3200,86.72477088,31.95411983,1270.144618
3.3250,86.50222116,32.00433485,1270.26544
3.3300,86.27906272,32.05778965,1270.387802
3.3350,86.0547311,32.11543412,1270.512268
3.3400,85.82771824,32.17701884,1270.639421
3.3450,85.59904373,32.24262197,1270.768837
3.3500,85.36906378,32.31339545,1270.900706
3.3550,85.13750299,32.38916029,1271.035093
3.3600,84.90623851,32.47003238,1271.171157
3.3650,84.6745223,32.55607844,1271.30926
3.3700,84.44331755,32.64635431,1271.448621
3.3750,84.21256213,32.74161571,1271.589525
3.3800,83.98292644,32.84161122,1271.73157
3.3850,83.75473309,32.94677247,1271.87474
3.3900,83.52805957,33.05550815,1272.018501
3.3950,83.303705,33.16877669,1272.162761
3.4000,83.08262479,33.28584199,1272.306847
3.4050,82.86378242,33.40609383,1272.451087
3.4100,82.64800026,33.52912048,1272.594962
3.4150,82.43561903,33.65473915,1272.738248
3.4200,82.22658683,33.78208987,1272.880681
3.4250,82.02021781,33.90933353,1273.022049
3.4300,81.81689031,34.03644099,1273.162149
3.4350,81.61561531,34.16141502,1273.300859
3.4400,81.4173829,34.28482507,1273.437861
3.4450,81.2223712,34.4053574,1273.572621
3.4500,81.03122634,34.52238916,1273.704612
3.4550,80.84330245,34.63653927,1273.8343
3.4600,80.65919403,34.74698606,1273.961156
3.4650,80.47953787,34.85297879,1274.084602
3.4700,80.30362964,34.95520928,1274.205151
3.4750,80.13091776,35.05360984,1274.323067
3.4800,79.96225093,35.14751346,1274.437694
3.4850,79.79804267,35.23692132,1274.548841
3.4900,79.63888253,35.32307008,1274.656526
3.4950,79.48454916,35.4053325,1274.760668
3.5000,79.33563196,35.48288523,1274.860697
3.5050,79.19087444,35.55479934,1274.956929
3.5100,79.0505373,35.62238834,1275.049614
3.5150,78.91428723,35.68521176,1275.138762
3.5200,78.7814076,35.74348956,1275.224803
3.5250,78.65291846,35.79721491,1275.307207
3.5300,78.52904886,35.84708161,1275.386071
3.5350,78.4091913,35.89233344,1275.461444
3.5400,78.29331739,35.93431716,1275.533766
3.5450,78.18042263,35.97254714,1275.603393
3.5500,78.07055616,36.00807496,1275.670644
3.5550,77.96313409,36.04081625,1275.735786
3.5600,77.8576639,36.07069663,1275.799072
3.5650,77.75413942,36.09805502,1275.860594
3.5700,77.65210507,36.12314466,1275.920677
3.5750,77.55102409,36.14678371,1275.979849
3.5800,77.45039521,36.1677157,1276.037965
3.5850,77.35053789,36.1870751,1276.095215
3.5900,77.25058091,36.20480893,1276.152059
3.5950,77.15075797,36.22056542,1276.208217
3.6000,77.04943112,36.23582998,1276.265052
3.6050,76.94687236,36.25065963,1276.322446
3.6100,76.84278905,36.26537929,1276.380656
3.6150,76.7362408,36.27888674,1276.439848
3.6200,76.62717413,36.29251623,1276.500474
3.6250,76.51466372,36.30614535,1276.562993
3.6300,76.39866067,36.32107001,1276.62784
3.6350,76.27865419,36.33700654,1276.695184
3.6400,76.15586265,36.35424575,1276.764568
3.6450,76.0294442,36.373184,1276.83653
3.6500,75.89905644,36.394381,1276.911387
3.6550,75.76362937,36.41567544,1276.989057
3.6600,75.62293978,36.43780967,1277.069892
3.6650,75.4772104,36.45978686,1277.153455
3.6700,75.32563944,36.48168486,1277.240236
3.6750,75.1688343,36.50351873,1277.329908
3.6800,75.00662975,36.52573268,1277.422696
3.6850,74.83845967,36.54746155,1277.518603
3.6900,74.66547179,36.56940362,1277.617286
3.6950,74.48802916,36.59109304,1277.718367
3.7000,74.30512514,36.61235272,1277.822341
3.7050,74.11842591,36.63398038,1277.928603
3.7100,73.92705501,36.65630027,1278.037699
3.7150,73.73256518,36.67923423,1278.148806
3.7200,73.53411538,36.70240153,1278.262284
3.7250,73.33336737,36.72771703,1278.377815
3.7300,73.13079397,36.75352061,1278.494631
3.7350,72.92676191,36.78154135,1278.613057
3.7400,72.72151347,36.81114579,1278.732757
3.7450,72.51603101,36.84285819,1278.853399
3.7500,72.30946529,36.87714343,1278.975593
3.7550,72.10399336,36.91417448,1279.098213
3.7600,71.90022362,36.95479214,1279.22122
3.7650,71.69841281,36.99968009,1279.344693
3.7700,71.49845736,37.04839118,1279.468562
3.7750,71.30098918,37.10271149,1279.593034
3.7800,71.1060498,37.161107,1279.717604
3.7850,70.91411806,37.22298098,1279.841829
3.7900,70.72565336,37.28836367,1279.9655
3.7950,70.54089685,37.35844728,1280.088853
3.8000,70.35951268,37.43157874,1280.211513
3.8050,70.18191495,37.50872227,1280.333591
3.8100,70.00807039,37.58832685,1280.454567
3.8150,69.8384465,37.67112458,1280.574475
3.8200,69.67182505,37.75635946,1280.693696
3.8250,69.50923945,37.84356033,1280.811515
3.8300,69.34970554,37.93244964,1280.928366
3.8350,69.19392522,38.02377398,1281.044152
3.8400,69.04237049,38.11682202,1281.158355
3.8450,68.89510289,38.21100307,1281.270743
3.8500,68.75142299,38.306484,1281.381717
3.8550,68.61146539,38.40240537,1281.490925
3.8600,68.47451374,38.49886071,1281.598794
3.8650,68.34054309,38.59572185,1281.705281
3.8700,68.20941123,38.69289384,1281.810423
3.8750,68.0813964,38.79044458,1281.914114
3.8800,67.95543057,38.88854314,1282.01698
3.8850,67.8307042,38.98731726,1282.119503
3.8900,67.70869361,39.08609169,1282.220625
3.8950,67.58826193,39.18534121,1282.321163
3.9000,67.46925338,39.28343942,1282.420666
3.9050,67.35142253,39.38053484,1282.519324
3.9100,67.23412371,39.47578634,1282.617226
3.9150,67.11745222,39.56993258,1282.714545
3.9200,67.0012092,39.66239529,1282.811183
3.9250,66.88505565,39.75305682,1282.907296
3.9300,66.77005678,39.84145489,1283.002152
3.9350,66.65601525,39.92872113,1283.096238
3.9400,66.54292482,40.01457764,1283.189447
3.9450,66.430119,40.09796421,1283.281797
3.9500,66.31777051,40.17869242,1283.373132
3.9550,66.2077567,40.25878266,1283.463048
3.9600,66.09937605,40.337346,1283.551631
3.9650,65.99295703,40.41514683,1283.638975
3.9700,65.89027809,40.49313855,1283.724357
3.9750,65.79147803,40.56995966,1283.807236
3.9800,65.69665847,40.64576307,1283.887607
3.9850,65.60653324,40.72083253,1283.965142
3.9900,65.52123117,40.79510871,1284.039742
3.9950,65.44028517,40.86833781,1284.111613
4.0000,65.36484441,40.94135619,1284.180342
4.0050,65.2939305,41.01289455,1284.246007
4.0100,65.22820212,41.08326377,1284.308332
4.0150,65.1680084,41.15161244,1284.366848
4.0200,65.11394523,41.21876446,1284.421472
4.0250,65.0652089,41.28367182,1284.472336
4.0300,65.02162277,41.34682914,1284.51966
4.0350,64.98384812,41.40823579,1284.563082
4.0400,64.95156148,41.4665679,1284.602333
4.0450,64.92452336,41.521919,1284.637553
4.0500,64.90276778,41.5735292,1284.668453
4.0550,64.88590292,41.62194271,1284.695464
4.0600,64.87334972,41.6664636,1284.718645
4.0650,64.86547262,41.70685824,1284.737707
4.0700,64.86192688,41.74294236,1284.752758
4.0750,64.86273516,41.77346814,1284.763338
4.0800,64.86753455,41.79972241,1284.770099
4.0850,64.87610809,41.82112299,1284.772939
4.0900,64.88759526,41.83692218,1284.772093
4.0950,64.90193908,41.84653163,1284.767369
4.1000,64.91879002,41.85200509,1284.759702
4.1050,64.93792922,41.85176569,1284.74866
4.1100,64.95909363,41.8467003,1284.734723
4.1150,64.98245547,41.8372518,1284.71792
4.1200,65.00864814,41.82360545,1284.697974
4.1250,65.03677318,41.80524127,1284.675223
4.1300,65.06667945,41.7830834,1284.650084
4.1350,65.09765581,41.75506354,1284.622233
4.1400,65.12969407,41.72210475,1284.592001
4.1450,65.16211476,41.68370226,1284.559604
4.1500,65.19521379,41.64009467,1284.524982
4.1550,65.22969499,41.5929045,1284.488281
4.1600,65.26574287,41.54074386,1284.448916
4.1650,65.30311445,41.48422432,1284.40726
4.1700,65.34290079,41.42365565,1284.362811
4.1750,65.38428536,41.35888851,1284.315954
4.1800,65.42778402,41.28963358,1284.266311
4.1850,65.47411794,41.21645775,1284.213667
4.1900,65.52133809,41.13872328,1284.158906
4.1950,65.57114992,41.05771345,1284.101542
4.2000,65.62341612,40.97308443,1284.041505
4.2050,65.67815361,40.88563962,1283.979059
4.2100,65.73632798,40.79566147,1283.91375
4.2150,65.79739569,40.70266984,1283.845765
4.2200,65.86046261,40.6072987,1283.775818
4.2250,65.92698163,40.50983485,1283.703206
4.2300,65.99574625,40.41082526,1283.628805
4.2350,66.06647189,40.30887019,1283.55228
4.2400,66.13916912,40.20499277,1283.474039
4.2450,66.2144437,40.10034371,1283.394097
4.2500,66.29253515,39.99646987,1283.312893
4.2550,66.37241865,39.89170569,1283.230436
4.2600,66.4546656,39.78741109,1283.146879
4.2650,66.53954018,39.68349369,1283.062052
4.2700,66.62540452,39.579603,1282.976744
4.2750,66.71262396,39.47644093,1282.891048
4.2800,66.80126283,39.37418643,1282.804965
4.2850,66.89039514,39.27170757,1282.71866
4.2900,66.98039471,39.16993463,1282.632196
4.2950,67.07152405,39.0683488,1282.545247
4.3000,67.16387914,38.96761408,1282.457991
4.3050,67.25708653,38.86776386,1282.370663
4.3100,67.35163641,38.76839458,1282.282852
4.3150,67.44663012,38.66980436,1282.195122
4.3200,67.54158826,38.57242687,1282.107884
4.3250,67.63722408,38.47607973,1282.020707
4.3300,67.73240992,38.38099094,1281.934256
4.3350,67.8273186,38.28638731,1281.848213
4.3400,67.92084903,38.19343476,1281.763535
4.3450,68.01330772,38.10251539,1281.680187
4.3500,68.10520366,38.01289377,1281.597638
4.3550,68.19553585,37.92381412,1281.516187
4.3600,68.2855155,37.83591971,1281.435385
4.3650,68.37371442,37.74903871,1281.355934
4.3700,68.46162102,37.66364777,1281.277188
4.3750,68.54844974,37.57956333,1281.199527
4.3800,68.63465294,37.4971355,1281.122809
4.3850,68.72005409,37.41621427,1281.047088
4.3900,68.80499303,37.33725842,1280.972322
4.3950,68.88964881,37.25990972,1280.898333
4.4000,68.97392509,37.18373092,1280.824979
4.4050,69.05800763,37.10778488,1280.751878
4.4100,69.14169212,37.03222727,1280.679156
4.4150,69.22669999,36.95628209,1280.60563
4.4200,69.31251465,36.87909851,1280.531294
4.4250,69.39888214,36.80144134,1280.456507
4.4300,69.48672805,36.72172394,1280.380283
4.4350,69.57649003,36.64093219,1280.302702
4.4400,69.66813105,36.55934338,1280.223871
4.4450,69.76224455,36.47726909,1280.143588
4.4500,69.85890048,36.39433947,1280.061677
4.4550,69.95793813,36.30956943,1279.977938
4.4600,70.0589681,36.22268896,1279.892506
4.4650,70.16396507,36.13471748,1279.804626
4.4700,70.27142554,36.04411919,1279.714641
4.4750,70.38159608,35.95115337,1279.62249
4.4800,70.49596591,35.85487536,1279.527082
4.4850,70.61378221,35.75541416,1279.42885
4.4900,70.7358873,35.65206886,1279.327151
4.4950,70.86083801,35.54374663,1279.222406
4.5000,70.98907323,35.43113067,1279.114585
4.5050,71.12062882,35.31353149,1279.003477
4.5100,71.25471072,35.1903649,1278.88933
4.5150,71.39169813,35.06197222,1278.772033
4.5200,71.53198888,34.92856208,1278.651478
4.5250,71.67453947,34.78978151,1278.528113
4.5300,71.81986981,34.64492366,1278.40146
4.5350,71.96788105,34.49548537,1278.272082
4.5400,72.11843583,34.34021843,1278.139641
4.5450,72.27077114,34.17929453,1278.004665
4.5500,72.42551088,34.01183768,1277.866505
4.5550,72.58185502,33.83856455,1277.725895
4.5600,72.73940774,33.66049677,1277.583334
4.5650,72.89853652,33.47743962,1277.43859
4.5700,73.05982229,33.28908132,1277.291306
4.5750,73.2226043,33.09697945,1277.142273
4.5800,73.38692237,32.90110713,1276.991522
4.5850,73.55313652,32.70224706,1276.83909
4.5900,73.72089099,32.49987967,1276.685059
4.5950,73.88939798,32.29462383,1276.530066
4.6000,74.05857985,32.08615856,1276.37405
4.6050,74.22899719,31.87533233,1276.216979
4.6100,74.39935745,31.66263273,1276.059717
4.6150,74.56986285,31.44785783,1275.902072
4.6200,74.74102415,31.23132298,1275.743882
4.6250,74.91259399,31.01347647,1275.585394
4.6300,75.0854575,30.79468883,1275.426329
4.6350,75.25894935,30.5756148,1275.267203
4.6400,75.43374413,30.35685786,1275.107883
4.6450,75.6092489,30.13758449,1274.948423
4.6500,75.78560284,29.91981484,1274.789355
4.6550,75.96268726,29.70309716,1274.630608
4.6600,76.14047141,29.48861281,1274.472538
4.6650,76.31983495,29.27671066,1274.314812
4.6700,76.50081483,29.06805225,1274.15761
4.6750,76.6844538,28.86222342,1274.00028
4.6800,76.8695508,28.65941642,1273.843492
4.6850,77.05615894,28.45918239,1273.687072
4.6900,77.24417529,28.26233668,1273.531309
4.6950,77.4335425,28.0682013,1273.376019
4.7000,77.62563986,27.876224,1273.220379
4.7050,77.8192116,27.6874676,1273.065315
4.7100,78.01509562,27.50075672,1272.910085
4.7150,78.2110248,27.3164841,1272.755948
4.7200,78.40792835,27.13439581,1272.602366
4.7250,78.60631037,26.95485841,1272.449209
4.7300,78.80650431,26.77797907,1272.296318
4.7350,79.00820844,26.6040147,1272.143918
4.7400,79.21238073,26.43195582,1271.991257
4.7450,79.42014298,26.26237766,1271.837937
4.7500,79.63162109,26.09507962,1271.683861
4.7550,79.84740931,25.92972732,1271.528654
4.7600,80.06734228,25.76765311,1271.372747
4.7650,80.29093988,25.60674248,1271.215801
4.7700,80.51874993,25.44910778,1271.058131
4.7750,80.75164987,25.29420126,1270.899192
4.7800,80.98921482,25.14260381,1270.739347
4.7850,81.23238672,24.99344981,1270.577919
4.7900,81.48192707,24.84864806,1270.415045
4.7950,81.73825315,24.70716741,1270.250263
4.8000,82.001139,24.56875706,1270.08365
4.8050,82.27146462,24.43286237,1269.914647
4.8100,82.5491336,24.29900851,1269.743216
4.8150,82.83466769,24.16652256,1269.568956
4.8200,83.12779933,24.03423987,1269.391715
4.8250,83.42772748,23.90221928,1269.211906
4.8300,83.7337963,23.76971697,1269.029659
4.8350,84.04581323,23.63550814,1268.844753
4.8400,84.36442551,23.49902903,1268.656749
4.8450,84.68968458,23.3596975,1268.46547
4.8500,85.019874,23.21683859,1268.271607
4.8550,85.35589032,23.07137176,1268.074923
4.8600,85.6974026,22.92120463,1267.875076
4.8650,86.04341849,22.76740411,1267.67282
4.8700,86.39465149,22.61145623,1267.46821
4.8750,86.7507694,22.45192328,1267.261061
4.8800,87.11194145,22.28874189,1267.051277
4.8850,87.47755236,22.12234198,1266.839306
4.8900,87.84799727,21.95237577,1266.624875
4.8950,88.22321515,21.77837809,1266.407876
4.9000,88.60114949,21.60046972,1266.189316
4.9050,88.98265463,21.41925315,1265.968963
4.9100,89.36774322,21.23403731,1265.746643
4.9150,89.75523805,21.0454782,1265.523093
4.9200,90.1446704,20.85373636,1265.298565
4.9250,90.53506364,20.65851868,1265.073412
4.9300,90.92583273,20.45982641,1264.847908
4.9350,91.3164214,20.25763775,1264.622319
4.9400,91.7063824,20.05193078,1264.396819
4.9450,92.09553621,19.84336012,1264.171694
4.9500,92.48324771,19.63085419,1263.946951
4.9550,92.86949762,19.4156515,1263.72291
4.9600,93.25321836,19.19665939,1263.499769
4.9650,93.6325378,18.97369958,1263.278321
4.9700,94.00733635,18.74645029,1263.058523
4.9750,94.37650535,18.51500996,1262.840885
4.9800,94.74037004,18.27958535,1262.625306
4.9850,95.09879385,18.04090515,1262.412027
4.9900,95.45184142,17.79825142,1262.200849
4.9950,95.79935623,17.55270173,1261.992081
5.0000,96.14040724,17.3049836,1261.786315
5.0050,96.4759969,17.05547627,1261.583174
5.0100,96.80696161,16.80605891,1261.382775
5.0150,97.13421135,16.55604181,1261.184537
5.0200,97.45895159,16.30832802,1260.98868
5.0250,97.78061257,16.06103433,1260.794956
5.0300,98.10030443,15.81503607,1260.603122
5.0350,98.41855457,15.57006612,1260.412892
5.0400,98.73506892,15.32620697,1260.224418
5.0450,99.04965765,15.0836933,1260.037836
5.0500,99.36190454,14.84167654,1259.853133
5.0550,99.67248156,14.60126897,1259.670266
5.0600,99.98357209,14.36207292,1259.488272
5.0650,100.2948028,14.12512305,1259.307534
5.0700,100.6075949,13.89049046,1259.12744
5.0750,100.9219962,13.65898939,1258.948192
5.0800,101.2385545,13.43091437,1258.769626
5.0850,101.5567872,13.20637556,1258.591941
5.0900,101.8762703,12.98370439,1258.41495
5.0950,102.1974308,12.76344228,1258.238583
5.1000,102.5217782,12.54513055,1258.06212
5.1050,102.8484353,12.3289617,1257.885966
5.1100,103.1773449,12.11531917,1257.710211
5.1150,103.5078813,11.9039613,1257.535043
5.1200,103.8398299,11.69459635,1257.360462
5.1250,104.1749422,11.48649285,1257.185622
5.1300,104.512757,11.28053732,1257.010898
5.1350,104.8540148,11.07682651,1256.836001
5.1400,105.1981481,10.87557089,1256.661199
5.1450,105.5443431,10.67759353,1256.48699
5.1500,105.8951983,10.48299131,1256.31236
5.1550,106.2495791,10.29001117,1256.13739
5.1600,106.6070188,10.09950409,1255.962476
5.1650,106.9675415,9.909974376,1255.787279
5.1700,107.3304996,9.720785136,1255.611925
5.1750,107.6959357,9.531719108,1255.436365
5.1800,108.0630122,9.342465139,1255.260834
5.1850,108.4329444,9.15372887,1255.085043
5.1900,108.8045012,8.965593859,1254.909455
5.1950,109.1787895,8.778911734,1254.733871
5.2000,109.5559439,8.594308579,1254.558362
5.2050,109.9358968,8.410837513,1254.382751
5.2100,110.3181981,8.229462508,1254.207413
5.2150,110.7042743,8.050311491,1254.031889
5.2200,111.0935448,7.871748582,1253.85605
5.2250,111.4855663,7.694955149,1253.680342
5.2300,111.8805138,7.519801838,1253.504658
5.2350,112.2781391,7.346166489,1253.329074
5.2400,112.6786583,7.173083273,1253.153331
5.2450,113.0810102,6.999708239,1252.977662
5.2500,113.4858297,6.827186875,1252.802068
5.2550,113.8924704,6.654318397,1252.626568
5.2600,114.3005247,6.480566383,1252.451199
5.2650,114.7106532,6.305888639,1252.275723
5.2700,115.1225616,6.129479989,1252.100104
5.2750,115.5365707,5.951804525,1251.92433
5.2800,115.9533907,5.77269465,1251.748104
5.2850,116.3721662,5.59264318,1251.571828
5.2900,116.7924727,5.411401313,1251.395619
5.2950,117.2151182,5.229563423,1251.219351
5.3000,117.6397859,5.047350548,1251.04317
5.3050,118.0675982,4.864470765,1250.866666
5.3100,118.4978778,4.680226454,1250.689959
5.3150,118.9297893,4.495496058,1250.51352
5.3200,119.3634244,4.307867945,1250.33682
5.3250,119.7996639,4.119548544,1250.160052
5.3300,120.2369526,3.929770846,1249.983603
5.3350,120.6763762,3.738324155,1249.807052
5.3400,121.118103,3.546098319,1249.630528
5.3450,121.5621929,3.353021595,1249.453991
5.3500,122.0091197,3.15947844,1249.277346
5.3550,122.4585258,2.96522901,1249.100663
5.3600,122.9085697,2.770295117,1248.924554
5.3650,123.3591654,2.574107641,1248.748959
5.3700,123.8109669,2.375390108,1248.573447
5.3750,124.2632874,2.174032835,1248.398212
5.3800,124.7153899,1.970900714,1248.223696
5.3850,125.1690315,1.764724787,1248.049119
5.3900,125.6238202,1.557001893,1247.874893
5.3950,126.0807568,1.347712746,1247.700737
5.4000,126.5392606,1.137781149,1247.527039
5.4050,127.0003261,0.9271989783,1247.353477
5.4100,127.4649937,0.7166952007,1247.179888
5.4150,127.934115,0.506806842,1247.006121
5.4200,128.4086508,0.297911883,1246.831968
5.4250,128.88834,0.09137613697,1246.657766
5.4300,129.374177,-0.1147763405,1246.48284
5.4350,129.8661134,-0.3193515433,1246.30747
5.4400,130.3645809,-0.521555792,1246.131675
5.4450,130.8702737,-0.7222596163,1245.955088
5.4500,131.3828587,-0.9210903946,1245.777907
5.4550,131.9020257,-1.116312788,1245.600581
5.4600,132.4293402,-1.30892663,1245.422449
5.4650,132.9647858,-1.498261759,1245.243655
5.4700,133.5086397,-1.684627415,1245.064124
5.4750,134.0604369,-1.867626435,1244.884082
5.4800,134.6210036,-2.048461511,1244.703138
5.4850,135.1888944,-2.227354542,1244.521691
5.4900,135.7639965,-2.40382029,1244.339918
5.4950,136.345387,-2.578965984,1244.157892
5.5000,136.9339765,-2.753995761,1243.975191
5.5050,137.527647,-2.929079955,1243.792445
5.5100,138.1263854,-3.104641055,1243.609578
5.5150,138.7293535,-3.281160028,1243.426777
5.5200,139.3348127,-3.458665453,1243.244545
5.5250,139.942822,-3.637868385,1243.062764
5.5300,140.552892,-3.81888178,1242.881572
5.5350,141.1644138,-4.001841835,1242.701117
5.5400,141.7767782,-4.186819929,1242.521565
5.5450,142.3898416,-4.373200128,1242.343039
5.5500,143.0017774,-4.561660129,1242.165918
5.5550,143.6130573,-4.751257877,1241.990235
5.5600,144.2226929,-4.941249094,1241.81636
5.5650,144.8302966,-5.131748384,1241.64437
5.5700,145.4353162,-5.32274684,1241.47439
5.5750,146.0362362,-5.51289602,1241.306993
5.5800,146.6310023,-5.702986815,1241.142564
5.5850,147.2205032,-5.892612147,1240.980937
5.5900,147.8044336,-6.080629709,1240.822321
5.5950,148.381779,-6.267061721,1240.666932
5.6000,148.9529437,-6.451850007,1240.514641
5.6050,149.5164992,-6.634179203,1240.365923
5.6100,150.0728653,-6.812671743,1240.220827
5.6150,150.6234834,-6.988185681,1240.078854
5.6200,151.16715,-7.16041839,1239.940314
5.6250,151.7025965,-7.330551573,1239.805251
5.6300,152.2311606,-7.498039931,1239.673404
5.6350,152.752407,-7.662273809,1239.544904
5.6400,153.2668364,-7.825071623,1239.419311
5.6450,153.7732465,-7.986812223,1239.296786
5.6500,154.2719036,-8.147538446,1239.177226
5.6550,154.7625381,-8.308457856,1239.060459
5.6600,155.2457105,-8.470180401,1238.946209
5.6650,155.7219204,-8.633489891,1238.834185
5.6700,156.1895204,-8.797862029,1238.724815
5.6750,156.6501616,-8.964266783,1238.61751
5.6800,157.1050656,-9.133557118,1238.51181
5.6850,157.5527192,-9.305134037,1238.408134
5.6900,157.9951897,-9.479049152,1238.305982
5.6950,158.4317517,-9.656337088,1238.205314
5.7000,158.8612314,-9.837608249,1238.10627
5.7050,159.2844994,-10.02173757,1238.008812
5.7100,159.7009819,-10.20946316,1237.9129
5.7150,160.1116161,-10.39995669,1237.818468
5.7200,160.5163914,-10.59261514,1237.725569
5.7250,160.9142264,-10.78739699,1237.634409
5.7300,161.3052779,-10.9834575,1237.545081
5.7350,161.6907594,-11.18117509,1237.457237
5.7400,162.0712672,-11.37905677,1237.370958
5.7450,162.4477377,-11.57748091,1237.286004
5.7500,162.8192037,-11.77617592,1237.20259
5.7550,163.1863691,-11.97469891,1237.12063
5.7600,163.5490399,-12.1726317,1237.040194
5.7650,163.9076377,-12.36904638,1236.961315
5.7700,164.2622749,-12.5644783,1236.883866
5.7750,164.613932,-12.75928789,1236.807573
5.7800,164.9610359,-12.9533326,1236.732738
5.7850,165.3039873,-13.14557459,1236.659426
5.7900,165.6426577,-13.33798737,1236.587344
5.7950,165.9758762,-13.52885302,1236.516969
5.8000,166.3046012,-13.71755779,1236.448198
5.8050,166.6282527,-13.90384621,1236.381124
5.8100,166.9480918,-14.08811989,1236.315454
5.8150,167.2632264,-14.27031309,1236.251326
5.8200,167.5756499,-14.44934986,1236.188513
5.8250,167.8844966,-14.62533974,1236.127148
5.8300,168.1903817,-14.79769114,1236.067196
5.8350,168.4924785,-14.96721335,1236.008705
5.8400,168.79169,-15.13291579,1235.951653
5.8450,169.0867012,-15.29539176,1235.896208
5.8500,169.378997,-15.45423048,1235.842152
5.8550,169.6670831,-15.61068185,1235.789567
5.8600,169.9508274,-15.76482585,1235.738472
5.8650,170.2294807,-15.91739597,1235.688856
5.8700,170.5031689,-16.06796861,1235.640715
5.8750,170.7722767,-16.21918488,1235.593595
5.8800,171.0374721,-16.37045429,1235.54745
5.8850,171.2977139,-16.52314178,1235.502264
5.8900,171.5534162,-16.6772994,1235.457947
5.8950,171.8042993,-16.8336082,1235.414426
5.9000,172.0500166,-16.99211977,1235.371749
5.9050,172.2916693,-17.15217935,1235.329804
5.9100,172.5284245,-17.31537198,1235.288536
5.9150,172.7594368,-17.48131023,1235.248135
5.9200,172.9849701,-17.64966162,1235.208609
5.9250,173.2057779,-17.82005013,1235.169881
5.9300,173.4206514,-17.99325572,1235.132035
5.9350,173.6299996,-18.16974263,1235.094964
5.9400,173.832507,-18.34867334,1235.058962
5.9450,174.0294678,-18.53061979,1235.023738
5.9500,174.2198212,-18.71607189,1234.989396
5.9550,174.4038806,-18.90469859,1234.955924
5.9600,174.58255,-19.09644611,1234.923175
5.9650,174.7548907,-19.2895289,1234.891527
5.9700,174.9213965,-19.48444119,1234.860827
5.9750,175.0815605,-19.68023111,1234.831314
5.9800,175.2338645,-19.87676825,1234.803247
5.9850,175.3788235,-20.07297631,1234.776662
5.9900,175.5156787,-20.26901472,1234.751676
5.9950,175.6447353,-20.46332364,1234.728408
6.0000,175.7665192,-20.65435082,1234.70694
6.0050,175.8801117,-20.84332316,1234.687247
6.0100,175.9865994,-21.02895421,1234.669311
6.0150,176.0855568,-21.21231764,1234.653021
6.0200,176.177892,-21.39216254,1234.63836
6.0250,176.2643634,-21.57028479,1234.624985
6.0300,176.3446935,-21.74516859,1234.613113
6.0350,176.4187269,-21.91631866,1234.602815
6.0400,176.4874488,-22.08418554,1234.593877
6.0450,176.550523,-22.24655382,1234.586596
6.0500,176.6093625,-22.40407,1234.580653
6.0550,176.6650306,-22.55651194,1234.57589
6.0600,176.7168501,-22.70313069,1234.572504
6.0650,176.7653814,-22.84406524,1234.5704
6.0700,176.8099722,-22.97982125,1234.569609
6.0750,176.8502188,-23.1093182,1234.570322
6.0800,176.8873709,-23.23269508,1234.572311
6.0850,176.9199907,-23.35053561,1234.575759
6.0900,176.9478924,-23.46172536,1234.580814
6.0950,176.9723876,-23.56724072,1234.587163
6.1000,176.9909962,-23.66823208,1234.595018
6.1050,177.0048219,-23.76413221,1234.604316
6.1100,177.0122094,-23.85592637,1234.615222
6.1150,177.0134052,-23.94322998,1234.627712
6.1200,177.0075664,-24.0279642,1234.641713
6.1250,176.9952222,-24.10931372,1234.657229
6.1300,176.9747393,-24.18898147,1234.674339
6.1350,176.947384,-24.26667959,1234.692856
6.1400,176.9116828,-24.34419803,1234.712793
6.1450,176.8697496,-24.4206265,1234.733888
6.1500,176.8198093,-24.49733467,1234.756255
6.1550,176.7636076,-24.57440555,1234.779613
6.1600,176.7016418,-24.65249315,1234.803791
6.1650,176.6362125,-24.72977299,1234.828626
6.1700,176.5664865,-24.80680783,1234.854215
6.1750,176.4935064,-24.88214831,1234.88056
6.1800,176.4188548,-24.95561979,1234.907419
6.1850,176.3431532,-25.02660023,1234.934765
6.1900,176.2661194,-25.09561551,1234.962596
6.1950,176.1888246,-25.16242514,1234.990772
6.2000,176.1107935,-25.22709401,1235.019378
6.2050,176.0327382,-25.29059022,1235.048177
6.2100,175.9541325,-25.35173862,1235.077382
6.2150,175.8768007,-25.41045885,1235.106677
6.2200,175.8016166,-25.46704442,1235.135891
6.2250,175.7273761,-25.52128646,1235.16523
6.2300,175.654445,-25.5732896,1235.194618
6.2350,175.5816878,-25.62351101,1235.224198
6.2400,175.5093342,-25.67217773,1235.253906
6.2450,175.4367046,-25.71872587,1235.283911
6.2500,175.3646764,-25.7632559,1235.31408
6.2550,175.2922499,-25.80617352,1235.34451
6.2600,175.2198628,-25.84761079,1235.375122
6.2650,175.1482502,-25.88950489,1235.405582
6.2700,175.0768424,-25.93095879,1235.436091
6.2750,175.0050582,-25.97366672,1235.466529
6.2800,174.9348486,-26.01719458,1235.496619
6.2850,174.86601,-26.06254897,1235.526266
6.2900,174.7993221,-26.10959619,1235.555337
6.2950,174.7346378,-26.15831814,1235.583855
6.3000,174.6731368,-26.21001689,1235.611454
6.3050,174.615331,-26.26359927,1235.638165
6.3100,174.5617974,-26.31906189,1235.663867
6.3150,174.5127568,-26.37495686,1235.688665
6.3200,174.4683066,-26.43189135,1235.712487
6.3250,174.429523,-26.48872907,1235.735262
6.3300,174.3971421,-26.54498256,1235.756891
6.3350,174.3717594,-26.60164274,1235.777159
6.3400,174.3508307,-26.65766515,1235.796607
6.3450,174.3360578,-26.71482781,1235.814756
6.3500,174.3261099,-26.77191047,1235.831946
6.3550,174.3201235,-26.83109224,1235.848082
6.3600,174.3193653,-26.89183231,1235.863008
6.3650,174.3224645,-26.95500846,1235.876831
6.3700,174.329908,-27.02020891,1235.889515
6.3750,174.3403524,-27.08892906,1235.901118
6.3800,174.3531694,-27.16106302,1235.911759
6.3850,174.3677506,-27.23703013,1235.921457
6.3900,174.3835943,-27.3171931,1235.930273
6.3950,174.3994574,-27.40254122,1235.938299
6.4000,174.4154274,-27.49284608,1235.945591
6.4050,174.430941,-27.58840925,1235.952183
6.4100,174.4456361,-27.68842719,1235.958215
6.4150,174.4580927,-27.79368201,1235.963863
6.4200,174.4679013,-27.90270043,1235.969349
6.4250,174.4751823,-28.01688195,1235.974519
6.4300,174.4801714,-28.13499354,1235.979447
6.4350,174.4807169,-28.25664497,1235.984542
6.4400,174.4762325,-28.3816473,1235.989928
6.4450,174.4660095,-28.51075615,1235.995661
6.4500,174.4507089,-28.64391464,1236.001648
6.4550,174.4292706,-28.78037629,1236.00815
6.4600,174.4019162,-28.92018138,1236.015134
6.4650,174.3677783,-29.0629911,1236.022798
6.4700,174.3261221,-29.20945457,1236.031203
6.4750,174.2770696,-29.35807912,1236.040509
6.4800,174.2194838,-29.50905846,1236.050893
6.4850,174.1545514,-29.66111025,1236.06229
6.4900,174.0826736,-29.81364714,1236.074708
6.4950,174.0041885,-29.9655037,1236.088218
6.5000,173.9200228,-30.11551871,1236.102801
6.5050,173.8291967,-30.26331822,1236.118641
6.5100,173.7325828,-30.40924587,1236.135564
6.5150,173.6297121,-30.55297364,1236.153715
6.5200,173.5201136,-30.6947822,1236.173116
6.5250,173.4053477,-30.83464205,1236.193524
6.5300,173.2853255,-30.97245543,1236.214962
6.5350,173.1616347,-31.10834528,1236.237146
6.5400,173.033931,-31.24247052,1236.260118
6.5450,172.9036138,-31.37568913,1236.283568
6.5500,172.7718793,-31.50708822,1236.307364
6.5550,172.6391795,-31.63784026,1236.331334
6.5600,172.5055744,-31.76781551,1236.355458
6.5650,172.3726652,-31.89718576,1236.379457
6.5700,172.2398174,-32.026604,1236.403366
6.5750,172.1086875,-32.15583586,1236.426927
6.5800,171.9782199,-32.28665469,1236.450144
6.5850,171.8505581,-32.41885001,1236.472668
6.5900,171.7260528,-32.55297816,1236.494393
6.5950,171.6068778,-32.68993718,1236.514856
6.6000,171.4947226,-32.82857616,1236.533856
6.6050,171.3919309,-32.96921451,1236.550944
6.6100,171.2980868,-33.11152227,1236.566226
6.6150,171.2167562,-33.25654994,1236.578973
6.6200,171.1484523,-33.40479243,1236.589045
6.6250,171.0953862,-33.55555594,1236.596094
6.6300,171.0591777,-33.70916299,1236.599816
6.6350,171.0400153,-33.8657059,1236.600163
6.6400,171.0412509,-34.02629462,1236.596446
6.6450,171.062049,-34.19063845,1236.588841
6.6500,171.1028145,-34.36027792,1236.577158
6.6550,171.1651525,-34.53350778,1236.561279
6.6600,171.2486555,-34.71179283,1236.541167
6.6650,171.3527083,-34.89516455,1236.516958
6.6700,171.4757991,-35.08456118,1236.488862
6.6750,171.6174861,-35.28015085,1236.456973
6.6800,171.7761137,-35.48170859,1236.421627
6.6850,171.951339,-35.6895682,1236.382927
6.6900,172.1405666,-35.90435047,1236.341302
6.6950,172.3418839,-36.12494859,1236.29721
6.7000,172.5526001,-36.3511415,1236.251154
6.7050,172.7707711,-36.58302508,1236.203504
6.7100,172.9933586,-36.82070233,1236.154803
6.7150,173.2190297,-37.06243107,1236.105431
6.7200,173.4453566,-37.3086011,1236.055801
6.7250,173.6697579,-37.55802021,1236.006432
6.7300,173.8907916,-37.80981156,1235.957651
6.7350,174.1073436,-38.06304093,1235.909719
6.7400,174.3188879,-38.31672576,1235.862794
6.7450,174.5232042,-38.57072776,1235.817262
6.7500,174.7179626,-38.82305538,1235.773629
6.7550,174.9020907,-39.07309587,1235.732107
6.7600,175.0757375,-39.31975079,1235.692734
6.7650,175.237842,-39.56367432,1235.65561
6.7700,175.3892727,-39.80336748,1235.620678
6.7750,175.5288567,-40.0397222,1235.58805
6.7800,175.6567019,-40.27150523,1235.557775
6.7850,175.7713632,-40.4988435,1235.530072
6.7900,175.8733273,-40.72160336,1235.504834
6.7950,175.9632145,-40.9397675,1235.481943
6.8000,176.04022,-41.15405577,1235.461458
6.8050,176.1041773,-41.36416437,1235.44343
6.8100,176.1551114,-41.57085102,1235.427776
6.8150,176.1933879,-41.77386686,1235.414444
6.8200,176.217862,-41.97273163,1235.403648
6.8250,176.229494,-42.16823038,1235.395166
6.8300,176.2279501,-42.36085545,1235.389017
6.8350,176.213824,-42.55006872,1235.385138
6.8400,176.188105,-42.7356735,1235.383386
6.8450,176.1507011,-42.91824685,1235.383734
6.8500,176.1017855,-43.09824047,1235.386123
6.8550,176.0427137,-43.27444738,1235.390413
6.8600,175.9743953,-43.44815913,1235.396388
6.8650,175.8975149,-43.61767238,1235.404033
6.8700,175.8151652,-43.78436156,1235.412776
6.8750,175.7279043,-43.94794325,1235.422546
6.8800,175.6374962,-44.10747201,1235.433116
6.8850,175.5450459,-44.26354295,1235.444278
6.8900,175.4525439,-44.41609943,1235.455707
6.8950,175.3605219,-44.56523756,1235.467309
6.9000,175.2698854,-44.71203868,1235.478878
6.9050,175.1816532,-44.85697907,1235.490219
6.9100,175.0977641,-45.00047886,1235.500985
6.9150,175.0174937,-45.14176437,1235.511341
6.9200,174.9428576,-45.28112755,1235.520924
6.9250,174.8736171,-45.41914581,1235.529743
6.9300,174.8104432,-45.55477611,1235.537727
6.9350,174.7549819,-45.68825267,1235.544591
6.9400,174.7066925,-45.81915194,1235.55044
6.9450,174.6677611,-45.94663048,1235.55494
6.9500,174.6375222,-46.07072123,1235.558192
6.9550,174.6167021,-46.19223171,1235.560016
6.9600,174.6049657,-46.31013189,1235.560509
6.9650,174.6018686,-46.42584854,1235.559668
6.9700,174.6082614,-46.53814516,1235.557413
6.9750,174.6234714,-46.64751513,1235.553808
6.9800,174.6471526,-46.75337597,1235.548954
6.9850,174.6794906,-46.8561172,1235.542777
6.9900,174.7194486,-46.95578591,1235.535444
6.9950,174.7673525,-47.05226799,1235.526903
7.0000,174.8225813,-47.14562421,1235.517246
7.0050,174.8841505,-47.23595858,1235.506634
7.0100,174.9519067,-47.32225923,1235.495128
7.0150,175.023998,-47.40527871,1235.482997
7.0200,175.1000362,-47.48447537,1235.470325
7.0250,175.1783896,-47.5599821,1235.457373
7.0300,175.2575018,-47.63234837,1235.444354
7.0350,175.3370415,-47.70244109,1235.431283
7.0400,175.4148566,-47.76929122,1235.418548
7.0450,175.4905169,-47.83215407,1235.406247
7.0500,175.5636562,-47.89224836,1235.394378
7.0550,175.6333393,-47.94886899,1235.383103
7.0600,175.6977258,-48.00237629,1235.3727
7.0650,175.7575919,-48.05228483,1235.363067
7.0700,175.8108076,-48.09806915,1235.354556
7.0750,175.857924,-48.13931278,1235.347085
7.0800,175.8978724,-48.17643695,1235.340802
7.0850,175.9312156,-48.2086487,1235.335636
7.0900,175.9575748,-48.2368696,1235.331608
7.0950,175.9754072,-48.26069313,1235.328986
7.1000,175.9858723,-48.27987905,1235.327596
7.1050,175.9894047,-48.29431881,1235.327362
7.1100,175.9864097,-48.30446859,1235.328208
7.1150,175.9764121,-48.30894906,1235.330258
7.1200,175.9605227,-48.30916031,1235.333281
7.1250,175.9385739,-48.30471396,1235.337321
7.1300,175.9120194,-48.29552158,1235.34215
7.1350,175.8801149,-48.28237223,1235.347852
7.1400,175.8434661,-48.26538534,1235.354328
7.1450,175.80312,-48.24464625,1235.361403
7.1500,175.7602821,-48.22025755,1235.368892
7.1550,175.7152008,-48.19352567,1235.376689
7.1600,175.6684433,-48.16370203,1235.384747
7.1650,175.6195379,-48.13275793,1235.393049
7.1700,175.5694021,-48.09943425,1235.401502
7.1750,175.5193961,-48.06493848,1235.409838
7.1800,175.4710738,-48.02938253,1235.417808
7.1850,175.4238069,-47.99375264,1235.425457
7.1900,175.3792039,-47.95715928,1235.432564
7.1950,175.3370071,-47.92093913,1235.439114
7.2000,175.2988012,-47.88514867,1235.444843
7.2050,175.2646274,-47.84905678,1235.449786
7.2100,175.2351667,-47.81324862,1235.453794
7.2150,175.2119879,-47.77872314,1235.456559
7.2200,175.1949128,-47.74421831,1235.458178
7.2250,175.1856552,-47.7091599,1235.458388
7.2300,175.1839076,-47.67578639,1235.457133
7.2350,175.1902743,-47.64317814,1235.454362
7.2400,175.2040246,-47.61111109,1235.450178
7.2450,175.2250572,-47.58070153,1235.444555
7.2500,175.2546803,-47.55187282,1235.437281
7.2550,175.2915529,-47.52395704,1235.428599
7.2600,175.3363991,-47.49892034,1235.418299
7.2650,175.3885855,-47.47498309,1235.406555
7.2700,175.4481324,-47.4522453,1235.393355
7.2750,175.515156,-47.43075253,1235.378697
7.2800,175.5900238,-47.41103006,1235.362466
7.2850,175.6720828,-47.39373374,1235.344748
7.2900,175.7614644,-47.37789854,1235.325555
7.2950,175.8573892,-47.36413259,1235.304988
7.3000,175.9593951,-47.35196555,1235.283147
7.3050,176.066561,-47.3414939,1235.260163
7.3100,176.1787797,-47.33313608,1235.236034
7.3150,176.2956857,-47.32576816,1235.21087
7.3200,176.4171712,-47.31967566,1235.184663
7.3250,176.5418491,-47.31424313,1235.15767
7.3300,176.6679347,-47.30989027,1235.130156
7.3350,176.7949847,-47.3051902,1235.102257
7.3400,176.922494,-47.30025258,1235.074033
7.3450,177.049773,-47.29509894,1235.045584
7.3500,177.1750731,-47.28841225,1235.017262
7.3550,177.2981336,-47.28012598,1234.98911
7.3600,177.4171246,-47.26995756,1234.961413
7.3650,177.5296421,-47.25669584,1234.934601
7.3700,177.6361735,-47.24076293,1234.908575
7.3750,177.7353858,-47.22089864,1234.883601
7.3800,177.8266627,-47.1967375,1234.859779
7.3850,177.9093192,-47.16901847,1234.837174
7.3900,177.9824804,-47.13603359,1234.816015
7.3950,178.0464892,-47.09793299,1234.79623
7.4000,178.100783,-47.05454679,1234.777895
7.4050,178.1450904,-47.00522043,1234.761102
7.4100,178.1792764,-46.94929167,1234.745907
7.4150,178.2039725,-46.88806089,1234.732151
7.4200,178.219193,-46.81995732,1234.719915
7.4250,178.2255489,-46.745381,1234.709088
7.4300,178.2228843,-46.66385662,1234.699725
7.4350,178.2120492,-46.57532212,1234.691703
7.4400,178.1932256,-46.4808453,1234.684965
7.4450,178.1658021,-46.37963772,1234.679658
7.4500,178.1302862,-46.2728284,1234.675644
7.4550,178.0869704,-46.16008999,1234.672908
7.4600,178.0356527,-46.04175767,1234.671479
7.4650,177.9771667,-45.91699814,1234.671289
7.4700,177.9113003,-45.78718266,1234.672307
7.4750,177.8383127,-45.65159743,1234.67454
7.4800,177.7576493,-45.51014873,1234.67809
7.4850,177.6697049,-45.36308207,1234.682906
7.4900,177.5738657,-45.21176276,1234.689017
7.4950,177.4707668,-45.05581166,1234.696359
7.5000,177.3600792,-44.89497972,1234.70502
7.5050,177.2417292,-44.7309662,1234.714926
7.5100,177.1155669,-44.56398058,1234.726102
7.5150,176.9810395,-44.39272727,1234.738712
7.5200,176.8392479,-44.21914107,1234.752499
7.5250,176.6896449,-44.04343129,1234.767562
7.5300,176.5336348,-43.86498697,1234.783736
7.5350,176.3707435,-43.68448872,1234.801064
7.5400,176.2031546,-43.50222541,1234.819209
7.5450,176.0304199,-43.31840353,1234.838249
7.5500,175.8531851,-43.13259224,1234.858127
7.5550,175.672695,-42.94626561,1234.878572
7.5600,175.4884712,-42.75772841,1234.899765
7.5650,175.3021346,-42.56844458,1234.921385
7.5700,175.1138394,-42.37809951,1234.943434
7.5750,174.9243487,-42.18628334,1234.965827
7.5800,174.7348308,-41.99346249,1234.988381
7.5850,174.5463051,-41.79917373,1235.010944
7.5900,174.3594696,-41.60341621,1235.033424
7.5950,174.1749807,-41.40624137,1235.055709
7.6000,173.9947405,-41.20898925,1235.077386
7.6050,173.8190165,-41.01171489,1235.098401
7.6100,173.647712,-40.81409016,1235.118797
7.6150,173.4822228,-40.61753957,1235.13824
7.6200,173.3212246,-40.42146775,1235.156978
7.6250,173.1675613,-40.22704918,1235.174444
7.6300,173.0216747,-40.03284898,1235.190652
7.6350,172.8849012,-39.8402758,1235.205255
7.6400,172.7576963,-39.64825623,1235.218254
7.6450,172.6403256,-39.45677655,1235.229595
7.6500,172.5348689,-39.26540717,1235.238934
7.6550,172.4411923,-39.07454707,1235.246245
7.6600,172.3602475,-38.88184317,1235.251538
7.6650,172.2919644,-38.68909076,1235.254669
7.6700,172.2362164,-38.49400446,1235.25583
7.6750,172.1923565,-38.29841155,1235.254989
7.6800,172.1613722,-38.10129514,1235.252058
7.6850,172.1424823,-37.90137842,1235.247274
7.6900,172.1359867,-37.6987101,1235.240577
7.6950,172.1412942,-37.4935018,1235.232067
7.7000,172.1576549,-37.28498023,1235.221949
7.7050,172.1842567,-37.07342742,1235.210344
7.7100,172.2212914,-36.85848067,1235.197262
7.7150,172.2673858,-36.63961372,1235.183013
7.7200,172.322647,-36.41664533,1235.167571
7.7250,172.3858067,-36.19015944,1235.151145
7.7300,172.4562992,-35.96023993,1235.133837
7.7350,172.5335951,-35.7274023,1235.115702
7.7400,172.6166807,-35.49132176,1235.096923
7.7450,172.7059852,-35.25190649,1235.077449
7.7500,172.8001301,-35.00929327,1235.057522
7.7550,172.8999982,-34.76322124,1235.037009
7.7600,173.0049654,-34.51464887,1235.015948
7.7650,173.1145934,-34.26349518,1234.994406
7.7700,173.2274866,-34.00929993,1234.972692
7.7750,173.3423276,-33.75259982,1234.95099
7.7800,173.4585444,-33.49279702,1234.929463
7.7850,173.5765631,-33.23057809,1234.907976
7.7900,173.6943397,-32.96565238,1234.886937
7.7950,173.8114592,-32.69702851,1234.866479
7.8000,173.9262358,-32.42591725,1234.846809
7.8050,174.0380781,-32.15047347,1234.828196
7.8100,174.1462459,-31.87187405,1234.810652
7.8150,174.2506393,-31.59080447,1234.79416
7.8200,174.3485598,-31.30698035,1234.779193
7.8250,174.4394733,-31.02076177,1234.765818
7.8300,174.5227994,-30.73256217,1234.75409
7.8350,174.5972812,-30.44253743,1234.744209
7.8400,174.6627031,-30.15213571,1234.736075
7.8450,174.7176065,-29.86112455,1234.729953
7.8500,174.7628441,-29.57033058,1234.725612
7.8550,174.7965496,-29.28010096,1234.723322
7.8600,174.8198745,-28.99075231,1234.722873
7.8650,174.833145,-28.70274186,1234.724146
7.8700,174.8368166,-28.41750149,1234.726895
7.8750,174.8313656,-28.13537822,1234.731003
7.8800,174.8157883,-27.85648898,1234.736585
7.8850,174.7910583,-27.58094939,1234.743492
7.8900,174.7580349,-27.30884149,1234.751538
7.8950,174.7170037,-27.0403296,1234.760656
7.9000,174.6674912,-26.77404716,1234.771074
7.9050,174.611121,-26.51022176,1234.7825
7.9100,174.5480293,-26.24822977,1234.794962
7.9150,174.4787078,-25.98788335,1234.808409
7.9200,174.4035457,-25.72890136,1234.82283
7.9250,174.3221325,-25.47062151,1234.838368
7.9300,174.2357888,-25.21298897,1234.854811
7.9350,174.1421929,-24.95506468,1234.872667
7.9400,174.0426533,-24.69774193,1234.891644
7.9450,173.9364688,-24.44027203,1234.911934
7.9500,173.8228047,-24.18283537,1234.933677
7.9550,173.7015798,-23.92403683,1234.95708
7.9600,173.5731536,-23.66485487,1234.981968
7.9650,173.4380611,-23.40427985,1235.008399
7.9700,173.2965447,-23.14283689,1235.036277
7.9750,173.1490121,-22.8789911,1235.065742
7.9800,172.9952646,-22.61344882,1235.09676
7.9850,172.8357684,-22.34518925,1235.129402
7.9900,172.6703987,-22.07490739,1235.163629
7.9950,172.4990734,-21.80077102,1235.199701
8.0000,172.3224627,-21.52386727,1235.23739
8.0050,172.1421615,-21.24365902,1235.276485
8.0100,171.9570652,-20.95917106,1235.31731
8.0150,171.7680015,-20.67004505,1235.359779
8.0200,171.5752067,-20.37670174,1235.403842
8.0250,171.3791282,-20.07750642,1235.449631
8.0300,171.1808292,-19.772308,1235.496997
8.0350,170.9795936,-19.46093426,1235.546113
8.0400,170.7756787,-19.14401558,1235.596873
8.0450,170.5693533,-18.82184727,1235.649207
8.0500,170.3603672,-18.49480388,1235.703136
8.0550,170.146406,-18.16327963,1235.759066
8.0600,169.9292854,-17.82633854,1235.816778
8.0650,169.7069339,-17.48533783,1235.876513
8.0700,169.4806352,-17.14103061,1235.937945
8.0750,169.2496322,-16.79397274,1236.001162
8.0800,169.0148223,-16.44486905,1236.065911
8.0850,168.7759544,-16.09217461,1236.132483
8.0900,168.5320555,-15.73729329,1236.200874
8.0950,168.2846709,-15.38015153,1236.270826
8.1000,168.0333016,-15.02094924,1236.342415
8.1050,167.7783435,-14.6601127,1236.415522
8.1100,167.5202587,-14.29757637,1236.49013
8.1150,167.2580205,-13.93385565,1236.566368
8.1200,166.9930228,-13.56847023,1236.644071
8.1250,166.7255836,-13.20204526,1236.723109
8.1300,166.455983,-12.83361181,1236.803589
8.1350,166.1855972,-12.46258579,1236.885357
8.1400,165.9149286,-12.08887978,1236.96837
8.1450,165.6452638,-11.71034341,1237.052692
8.1500,165.3761931,-11.32610884,1237.138558
8.1550,165.1092642,-10.93649246,1237.225632
8.1600,164.8447752,-10.54210009,1237.31379
8.1650,164.5824757,-10.14275196,1237.403094
8.1700,164.3224188,-9.738250378,1237.493628
8.1750,164.0649523,-9.327975859,1237.585388
8.1800,163.8103025,-8.912921653,1237.67821
8.1850,163.5582117,-8.492778912,1237.772167
8.1900,163.3086434,-8.068152912,1237.867189
8.1950,163.0613139,-7.639360663,1237.963278
8.2000,162.8155917,-7.207630922,1238.060384
8.2050,162.5707816,-6.773936995,1238.158481
8.2100,162.3271394,-6.338529685,1238.2575
8.2150,162.0834274,-5.90140743,1238.357697
8.2200,161.8404465,-5.463824893,1238.458692
8.2250,161.5976791,-5.025707693,1238.560609
8.2300,161.3551864,-4.587449781,1238.663384
8.2350,161.1124241,-4.150090935,1238.766967
8.2400,160.8673845,-3.714336273,1238.871645
8.2450,160.6199975,-3.280499454,1238.977412
8.2500,160.3702128,-2.847902443,1239.084395
8.2550,160.1180741,-2.41774178,1239.192359
8.2600,159.8627396,-1.989412971,1239.301615
8.2650,159.6044953,-1.563903044,1239.411946
8.2700,159.3437888,-1.140656504,1239.523378
8.2750,159.0800376,-0.7198822359,1239.635994
8.2800,158.8136069,-0.3013101658,1239.749771
8.2850,158.5443184,0.113893545,1239.86453
8.2900,158.2722042,0.5262118982,1239.980355
8.2950,157.9967994,0.9355496247,1240.097327
8.3000,157.7181078,1.342321884,1240.215498
8.3050,157.4357383,1.746931517,1240.335047
8.3100,157.1508477,2.149069706,1240.455656
8.3150,156.8637305,2.54815137,1240.577094
8.3200,156.5736941,2.944556193,1240.699554
8.3250,156.2816557,3.337447902,1240.822655
8.3300,155.9868421,3.726080916,1240.946405
8.3350,155.6899416,4.110177152,1241.070557
8.3400,155.3897223,4.48991789,1241.195417
8.3450,155.0863584,4.8644457,1241.32077
8.3500,154.7793973,5.234628751,1241.446855
8.3550,154.4701547,5.600392614,1241.573345
8.3600,154.1569327,5.961474731,1241.700597
8.3650,153.8414395,6.317829175,1241.828184
8.3700,153.5231938,6.670530673,1241.956438
8.3750,153.2022153,7.020747796,1242.085604
8.3800,152.8780487,7.367476349,1242.215607
8.3850,152.55124,7.710541136,1242.346269
8.3900,152.221988,8.050598101,1242.477656
8.3950,151.8884915,8.386445595,1242.609989
8.4000,151.5520292,8.719365342,1242.743206
8.4050,151.2122147,9.048943078,1242.877328
8.4100,150.8690908,9.377215481,1243.012769
8.4150,150.5227507,9.703854043,1243.149448
8.4200,150.1738654,10.03002156,1243.287447
8.4250,149.8217104,10.35570297,1243.426925
8.4300,149.4668468,10.68002987,1243.56762
8.4350,149.109128,11.00379809,1243.70972
8.4400,148.7481497,11.32792171,1243.853518
8.4450,148.3837227,11.65058099,1243.998709
8.4500,148.0152474,11.97075087,1244.145213
8.4550,147.6433692,12.28948058,1244.29312
8.4600,147.267119,12.60615774,1244.442533
8.4650,146.8862206,12.92116492,1244.593614
8.4700,146.5010094,13.23646776,1244.746716
8.4750,146.110325,13.54989368,1244.901717
8.4800,145.7145949,13.8630224,1245.058856
8.4850,145.3125572,14.17443729,1245.218216
8.4900,144.9043267,14.48415108,1245.379784
8.4950,144.4899097,14.79349686,1245.543928
8.5000,144.0693605,15.1029502,1245.710769
8.5050,143.643051,15.41425911,1245.880648
8.5100,143.2110575,15.72614946,1246.053293
8.5150,142.7729644,16.03813513,1246.228762
8.5200,142.3278526,16.35099863,1246.407522
8.5250,141.8755196,16.66574608,1246.589923
8.5300,141.4159033,16.9813433,1246.775776
8.5350,140.9490191,17.29876389,1246.965339
8.5400,140.4741724,17.61767072,1247.158755
8.5450,139.9921874,17.9382097,1247.35587
8.5500,139.5019886,18.25844756,1247.556558
8.5550,139.0049699,18.579562,1247.760779
8.5600,138.5014289,18.90100976,1247.968337
8.5650,137.9911792,19.22486813,1248.17985
8.5700,137.4738722,19.54939251,1248.395003
8.5750,136.9512056,19.87525289,1248.6135
8.5800,136.4221371,20.20233054,1248.835649
8.5850,135.8873287,20.53075142,1249.061326
8.5900,135.3465369,20.86129932,1249.290802
8.5950,134.8000019,21.19162436,1249.523444
8.6000,134.2483044,21.52287671,1249.759389
8.6050,133.6912016,21.85431154,1249.998545
8.6100,133.1286446,22.18718167,1250.241286
8.6150,132.5597959,22.52077363,1250.487735
8.6200,131.9866044,22.85681527,1250.73779
8.6250,131.4097804,23.19441393,1250.99103
8.6300,130.8295619,23.53441424,1251.247624
8.6350,130.2461077,23.87735728,1251.507724
8.6400,129.6622939,24.22404525,1251.770639
8.6450,129.0779117,24.57518629,1252.036599
8.6500,128.4941738,24.93174203,1252.305515
8.6550,127.9114401,25.2931209,1252.57711
8.6600,127.3305387,25.66009149,1252.85135
8.6650,126.7521976,26.03253651,1253.127991
8.6700,126.1760826,26.40945323,1253.406875
8.6750,125.6030749,26.79119297,1253.687792
8.6800,125.0337174,27.17681285,1253.970287
8.6850,124.4679465,27.56634787,1254.254394
8.6900,123.9060831,27.95962769,1254.53996
8.6950,123.3493079,28.35731926,1254.82675
8.7000,122.7985404,28.75952358,1255.114478
8.7050,122.2546745,29.16612798,1255.402811
8.7100,121.7174067,29.57576719,1255.691457
8.7150,121.1871545,29.98962006,1255.980561
8.7200,120.6636846,30.40627534,1256.269799
8.7250,120.1482263,30.82518204,1256.558626
8.7300,119.6390334,31.24598275,1256.847444
8.7350,119.1356419,31.66761692,1257.136149
8.7400,118.6369112,32.08947275,1257.424947
8.7450,118.1431091,32.51070415,1257.713461
8.7500,117.6543479,32.93182619,1258.001783
8.7550,117.1703832,33.35155194,1258.289601
8.7600,116.6909121,33.7708377,1258.577284
8.7650,116.2162192,34.18819965,1258.864298
8.7700,115.7458892,34.60034165,1259.149766
8.7750,115.2792295,35.008145,1259.434127
8.7800,114.8156187,35.40994594,1259.717083
8.7850,114.353644,35.80562022,1259.999049
8.7900,113.89416,36.19531066,1260.27974
8.7950,113.4363119,36.57808321,1260.559113
8.8000,112.9801555,36.95403915,1260.837122
8.8050,112.5248271,37.32300134,1261.114063
8.8100,112.0702942,37.68479275,1261.389823
8.8150,111.6179689,38.04111044,1261.664382
8.8200,111.1688869,38.39080195,1261.936933
8.8250,110.7229378,38.73366443,1262.207413
8.8300,110.2798594,39.07014152,1262.475998
8.8350,109.8407695,39.40002257,1262.742147
8.8400,109.4070744,39.72466119,1263.005713
8.8450,108.9782605,40.04337712,1263.266653
8.8500,108.5555994,40.35739504,1263.524836
8.8550,108.137643,40.66582271,1263.780515
8.8600,107.7244257,40.9673714,1264.033229
8.8650,107.315407,41.26076347,1264.282723
8.8700,106.9101255,41.5460147,1264.5292
8.8750,106.5069423,41.82209458,1264.77295
8.8800,106.1060111,42.08864198,1265.01377
8.8850,105.7065593,42.34423529,1265.251459
8.8900,105.3072842,42.58854297,1265.486429
8.8950,104.9092805,42.82385407,1265.718944
8.9000,104.5114322,43.04902213,1265.949066
8.9050,104.1127583,43.26574081,1266.177699
8.9100,103.7133361,43.47236387,1266.404254
8.9150,103.3144016,43.67015047,1266.628628
8.9200,102.9139075,43.85776803,1266.851188
8.9250,102.5093106,44.03760222,1267.073752
8.9300,102.1026026,44.2111849,1267.296011
8.9350,101.6939656,44.38033131,1267.518469
8.9400,101.2842512,44.54588216,1267.741081
8.9450,100.872861,44.70884197,1267.964455
8.9500,100.4600986,44.86913878,1268.188399
8.9550,100.0466417,45.0281845,1268.413082
8.9600,99.63216967,45.18570984,1268.638509
8.9650,99.21648423,45.34239295,1268.86503
8.9700,98.80074052,45.49870307,1269.092317
8.9750,98.38598101,45.65460429,1269.319881
8.9800,97.97196572,45.81247689,1269.548636
8.9850,97.55773359,45.97080888,1269.778499
8.9900,97.14484775,46.13027768,1270.009036
8.9950,96.73359535,46.29043814,1270.239941
9.0000,96.32284747,46.45158061,1270.471838
9.0050,95.91286102,46.61403786,1270.704698
9.0100,95.50379566,46.77797428,1270.938528
9.0150,95.0962545,46.94119035,1271.172271
9.0200,94.68892044,47.10282422,1271.406188
9.0250,94.28148734,47.26513422,1271.641157
9.0300,93.87466832,47.42675306,1271.876402
9.0350,93.46948676,47.58741866,1272.111323
9.0400,93.06570111,47.74665915,1272.345857
9.0450,92.66372756,47.90332447,1272.579374
9.0500,92.26333167,48.05740523,1272.811979
9.0550,91.86398343,48.20894547,1273.043926
9.0600,91.46623013,48.35617093,1273.274336
9.0650,91.06998246,48.49950839,1273.503366
9.0700,90.67452356,48.639518,1273.731557
9.0750,90.28074172,48.77552421,1273.958276
9.0800,89.8879819,48.90720858,1274.183697
9.0850,89.49784504,49.03429807,1274.406999
9.0900,89.10845056,49.15483996,1274.628375
9.0950,88.7196133,49.2684765,1274.847821
9.1000,88.33061602,49.37498377,1275.065627
9.1050,87.94128149,49.47263054,1275.281224
9.1100,87.55085394,49.56126316,1275.494962
9.1150,87.15726189,49.63959058,1275.707351
9.1200,86.7597809,49.70882452,1275.919202
9.1250,86.35852878,49.76861089,1276.13036
9.1300,85.95366197,49.81914586,1276.340863
9.1350,85.54494138,49.86132475,1276.551169
9.1400,85.13210985,49.89537417,1276.761524
9.1450,84.71515631,49.92207064,1276.97218
9.1500,84.29446011,49.94145278,1277.182984
9.1550,83.86997802,49.95483249,1277.39444
9.1600,83.44267402,49.96413414,1277.606791
9.1650,83.0128369,49.97029223,1277.820235
9.1700,82.58053547,49.97390411,1278.03493
9.1750,82.14727645,49.97649448,1278.25069
9.1800,81.71299716,49.97893199,1278.46788
9.1850,81.27860804,49.98355486,1278.686901
9.1900,80.8463916,49.99126077,1278.906933
9.1950,80.41652862,50.00335995,1279.128352
9.2000,79.99002772,50.0213712,1279.351173
9.2050,79.56767942,50.04558766,1279.575147
9.2100,79.15099579,50.07800681,1279.800196
9.2150,78.73903708,50.11957427,1280.027122
9.2200,78.33320775,50.17165722,1280.255669
9.2250,77.93366071,50.23508104,1280.486066
9.2300,77.53974968,50.3099018,1280.71864
9.2350,77.15259103,50.39661989,1280.952976
9.2400,76.77102058,50.49559115,1281.18977
9.2450,76.39618243,50.60693824,1281.428503
9.2500,76.02813978,50.73040082,1281.669094
9.2550,75.66641128,50.8660602,1281.911829
9.2600,75.31111052,51.01373286,1282.156598
9.2650,74.96133634,51.17294285,1282.403685
9.2700,74.61654451,51.34310752,1282.653164
9.2750,74.275852,51.52382692,1282.905385
9.2800,73.93870685,51.71266488,1283.15976
9.2850,73.60489777,51.91015684,1283.416571
9.2900,73.27347649,52.11532083,1283.675935
9.2950,72.94311616,52.32759915,1283.938384
9.3000,72.61509816,52.54466719,1284.202327
9.3050,72.28691497,52.7650673,1284.468572
9.3100,71.95846525,52.98721834,1284.736548
9.3150,71.62880633,53.21092299,1285.006693
9.3200,71.29870528,53.43539853,1285.27828
9.3250,70.96705885,53.65849007,1285.551096
9.3300,70.63438745,53.88192888,1285.825504
9.3350,70.29899826,54.10390882,1286.101736
9.3400,69.96152022,54.32410366,1286.379307
9.3450,69.62151825,54.54334759,1286.658796
9.3500,69.27907496,54.76041204,1286.939672
9.3550,68.93466659,54.97458921,1287.221373
9.3600,68.58742551,55.18678066,1287.504698
9.3650,68.23876201,55.39648322,1287.788664
9.3700,67.88786684,55.60220018,1288.073149
9.3750,67.53509,55.80411477,1288.358008
9.3800,67.18136987,56.00194119,1288.642586
9.3850,66.8256887,56.19547441,1288.927357
9.3900,66.46916274,56.38506265,1289.211827
9.3950,66.11283759,56.5705352,1289.495334
9.4000,65.75746787,56.75110994,1289.777098
9.4050,65.40335636,56.92770199,1290.057259
9.4100,65.05113609,57.10088066,1290.335674
9.4150,64.70233805,57.27054333,1290.611428
9.4200,64.35763847,57.43674758,1290.884119
9.4250,64.01745364,57.59962066,1291.153524
9.4300,63.68121324,57.75884914,1291.41978
9.4350,63.34982325,57.91394504,1291.682141
9.4400,63.02367005,58.06548805,1291.940535
9.4450,62.70415056,58.21457432,1292.19456
9.4500,62.3922447,58.36213975,1292.44393
9.4550,62.08926481,58.50590554,1292.686904
9.4600,61.79395306,58.64608675,1292.924236
9.4650,61.50767225,58.78216425,1293.154881
9.4700,61.23086522,58.91486722,1293.378796
9.4750,60.96313142,59.04420755,1293.596194
9.4800,60.70577516,59.17112193,1293.806608
9.4850,60.45881323,59.29585962,1294.010121
9.4900,60.22180168,59.41820913,1294.206863
9.4950,59.99469219,59.53740481,1294.396509
9.5000,59.77756575,59.65350651,1294.579063
9.5050,59.5702505,59.76636891,1294.754477
9.5100,59.3715388,59.87543275,1294.923238
9.5150,59.18077415,59.98078943,1295.085776
9.5200,58.99733568,60.08191834,1295.242244
9.5250,58.82207271,60.1785792,1295.392042
9.5300,58.65452029,60.27054169,1295.535302
9.5350,58.49412421,60.35770675,1295.672353
9.5400,58.34064783,60.4401172,1295.803344
9.5450,58.19335293,60.51837887,1295.928967
9.5500,58.05088242,60.59254327,1296.050012
9.5550,57.91305597,60.66158846,1296.16621
9.5600,57.77908619,60.72657275,1296.278464
9.5650,57.6498987,60.78783763,1296.386361
9.5700,57.52521238,60.8461136,1296.490361
9.5750,57.40458215,60.9011427,1296.59064
9.5800,57.28709219,60.95320276,1296.68782
9.5850,57.17283066,61.00261527,1296.782008
9.5900,57.06179174,61.05063879,1296.873763
9.5950,56.95369716,61.09694757,1296.963075
9.6000,56.84674157,61.14234439,1297.051432
9.6050,56.7420498,61.18682546,1297.138127
9.6100,56.6390772,61.23099997,1297.223746
9.6150,56.53776998,61.27671687,1297.309144
9.6200,56.43721062,61.32350855,1297.394715
9.6250,56.33790326,61.37226959,1297.480499
9.6300,56.23864103,61.42224398,1297.566933
9.6350,56.14057288,61.47442462,1297.653707
9.6400,56.0426284,61.52891336,1297.741533
9.6450,55.94453311,61.58501959,1297.830298
9.6500,55.84687596,61.64398179,1297.920159
9.6550,55.7493887,61.70644647,1298.011562
9.6600,55.65200474,61.77122508,1298.104051
9.6650,55.55402059,61.83851783,1298.198141
9.6700,55.45593443,61.90909278,1298.293852
9.6750,55.35806715,61.98296953,1298.391005
9.6800,55.2597239,62.05994204,1298.489981
9.6850,55.16153365,62.13949453,1298.590162
9.6900,55.06265659,62.22165134,1298.692086
9.6950,54.96254884,62.30578564,1298.795803
9.7000,54.86076433,62.39203751,1298.90169
9.7050,54.7572846,62.48070431,1299.009914
9.7100,54.65103957,62.57042106,1299.120511
9.7150,54.54237629,62.66216037,1299.233646
9.7200,54.42991592,62.75535448,1299.349923
9.7250,54.31363872,62.8496768,1299.469189
9.7300,54.19449801,62.94552004,1299.591038
9.7350,54.07241325,63.04297279,1299.715504
9.7400,53.94765528,63.14162744,1299.842265
9.7450,53.82006183,63.24078915,1299.971126
9.7500,53.68929562,63.33986722,1300.10205
9.7550,53.55563976,63.44012483,1300.23539
9.7600,53.42078142,63.54135178,1300.370037
9.7650,53.28487291,63.64345244,1300.505777
9.7700,53.14872997,63.74641245,1300.642116
9.7750,53.01327283,63.85039372,1300.778537
9.7800,52.87850265,63.95408576,1300.91445
9.7850,52.74560862,64.05664472,1301.048709
9.7900,52.61492453,64.15827032,1301.181179
9.7950,52.48683791,64.25823053,1301.311316
9.8000,52.36194507,64.35681566,1301.438789
9.8050,52.24167055,64.4530866,1301.562257
9.8100,52.12644078,64.54790615,1301.681811
9.8150,52.01784234,64.6404818,1301.796055
9.8200,51.91666772,64.73157327,1301.904834
9.8250,51.82352747,64.81987545,1302.007136
9.8300,51.73868337,64.90554614,1302.102866
9.8350,51.66193985,64.98882094,1302.192209
9.8400,51.59292593,65.06921394,1302.275197
9.8450,51.5313001,65.14593565,1302.351671
9.8500,51.47907649,65.21965756,1302.420647
9.8550,51.43625078,65.29113992,1302.482417
9.8600,51.40238274,65.35983485,1302.536982
9.8650,51.37782537,65.42604378,1302.584252
9.8700,51.36236145,65.48911676,1302.624075
9.8750,51.35565151,65.54808327,1302.656207
9.8800,51.35857291,65.6037895,1302.680477
9.8850,51.37158609,65.65597299,1302.696442
9.8900,51.39389797,65.70350109,1302.704125
9.8950,51.42668512,65.74662091,1302.702894
9.9000,51.4701444,65.785052,1302.692474
9.9050,51.52348776,65.81863332,1302.673335
9.9100,51.5873589,65.84791908,1302.645336
9.9150,51.66069812,65.87062095,1302.608095
9.9200,51.74422657,65.88923438,1302.562286
9.9250,51.83681517,65.90148153,1302.507658
9.9300,51.9393344,65.90823836,1302.444017
9.9350,52.05027298,65.90941843,1302.372346
9.9400,52.17018141,65.90429257,1302.291976
9.9450,52.29894562,65.89337804,1302.203169
9.9500,52.43458545,65.87450093,1302.106265
9.9550,52.57702344,65.84794612,1302.001453
9.9600,52.72608624,65.81371319,1301.888845
9.9650,52.88020299,65.77194984,1301.769592
9.9700,53.03985277,65.72334586,1301.643685
9.9750,53.20365195,65.66683356,1301.511576
9.9800,53.37170357,65.60256216,1301.37327
9.9850,53.54279628,65.53122916,1301.229893
9.9900,53.71719686,65.45292603,1301.08131
9.9950,53.89409834,65.36801044,1300.928184
10.0000,54.07357645,65.27589581,1300.770258
10.0050,54.2544875,65.17570125,1300.607885
10.0100,54.43786239,65.06856155,1300.440927
10.0150,54.62218551,64.95334058,1300.269903
10.0200,54.80883857,64.83048896,1300.094166
10.0250,54.99706659,64.70039405,1299.914391
10.0300,55.18654267,64.56386919,1299.731124
10.0350,55.3765796,64.4215599,1299.545132
10.0400,55.56813357,64.2746162,1299.356329
10.0450,55.7611643,64.1240184,1299.165167
10.0500,55.95574564,63.96948302,1298.971511
10.0550,56.15109952,63.8123281,1298.776424
10.0600,56.34743793,63.65154293,1298.579302
10.0650,56.54427073,63.48799227,1298.38091
10.0700,56.74183695,63.32203249,1298.181246
10.0750,56.93928538,63.15210822,1297.980162
10.0800,57.13705214,62.97904707,1297.777756
10.0850,57.33408607,62.80336117,1297.574867
10.0900,57.53014438,62.62455179,1297.371458
10.0950,57.72419183,62.44341437,1297.168485
10.1000,57.91626651,62.25989162,1296.96592
10.1050,58.10648917,62.07469317,1296.764035
10.1100,58.29417371,61.88741582,1296.56309
10.1150,58.47989807,61.69855069,1296.362926
10.1200,58.66351939,61.5079294,1296.163555
10.1250,58.84432114,61.31687476,1295.965972
10.1300,59.02302109,61.125096,1295.7696
10.1350,59.19827382,60.93161182,1295.574868
10.1400,59.37050173,60.73610314,1295.381383
10.1450,59.53986442,60.54020057,1295.189722
10.1500,59.70539333,60.34291111,1295.000039
10.1550,59.86645133,60.14520435,1294.813148
10.1600,60.02331697,59.9468372,1294.628801
10.1650,60.17628608,59.74785774,1294.446831
10.1700,60.32560959,59.54865862,1294.26723
10.1750,60.47088456,59.35057825,1294.09082
10.1800,60.61324489,59.15319985,1293.916727
10.1850,60.75270821,58.9577701,1293.745444
10.1900,60.89051238,58.76426097,1293.576179
10.1950,61.02618351,58.57278687,1293.409249
10.2000,61.16040432,58.38316001,1293.244169
10.2050,61.29439515,58.19547135,1293.080218
10.2100,61.42701996,58.00835174,1292.917486
10.2150,61.55993418,57.82321003,1292.755607
10.2200,61.69261759,57.63700443,1292.593634
10.2250,61.82529748,57.45080936,1292.431878
10.2300,61.95736113,57.26296264,1292.270067
10.2350,62.09007815,57.07420215,1292.107725
10.2400,62.22333845,56.88511356,1291.945183
10.2450,62.35798595,56.69551699,1291.781897
10.2500,62.49560971,56.50632724,1291.617299
10.2550,62.63617578,56.31719985,1291.451286
10.2600,62.78034113,56.12736226,1291.283186
10.2650,62.92999062,55.93810527,1291.112392
10.2700,63.08462192,55.74803124,1290.938718
10.2750,63.2449519,55.55832966,1290.762182
10.2800,63.41054257,55.36778111,1290.582605
10.2850,63.58194184,55.17682884,1290.399852
10.2900,63.75904204,54.98561287,1290.214085
10.2950,63.94265625,54.79325961,1290.024519
10.3000,64.13241621,54.60095602,1289.831834
10.3050,64.33053642,54.40920998,1289.634956
10.3100,64.53682019,54.21860134,1289.434273
10.3150,64.75167169,54.02905099,1289.229513
10.3200,64.97572378,53.84095671,1289.020508
10.3250,65.20890558,53.65382388,1288.80711
10.3300,65.45203453,53.4672545,1288.588735
10.3350,65.70675358,53.28064226,1288.36425
10.3400,65.97181859,53.09320541,1288.134136
10.3450,66.24754789,52.90367586,1287.897737
10.3500,66.53324964,52.71240585,1287.655673
10.3550,66.82948432,52.51796771,1287.407103
10.3600,67.13561115,52.32162155,1287.152954
10.3650,67.45181195,52.12316882,1286.893107
10.3700,67.77772984,51.92248031,1286.627727
10.3750,68.11407095,51.72079079,1286.356958
10.3800,68.46082793,51.51888126,1286.081183
10.3850,68.81799203,51.31694891,1285.800583
10.3900,69.18612159,51.11508662,1285.514905
10.3950,69.56547777,50.91375096,1285.22424
10.4000,69.95502732,50.71198922,1284.928858
10.4050,70.35397984,50.5099042,1284.629259
10.4100,70.76260331,50.30736832,1284.325313
10.4150,71.17934893,50.10442573,1284.017974
10.4200,71.60488253,49.90215299,1283.707323
10.4250,72.03905683,49.69910291,1283.392947
10.4300,72.48105375,49.4961099,1283.075685
10.4350,72.93183402,49.29317212,1282.755083
10.4400,73.39058676,49.09116389,1282.43193
10.4450,73.85803912,48.88896386,1282.105491
10.4500,74.33371979,48.68746169,1281.776399
10.4550,74.81759716,48.48553142,1281.444293
10.4600,75.30938292,48.28381422,1281.109622
10.4650,75.807858,48.08166801,1280.772838
10.4700,76.31293127,47.87931248,1280.434085
10.4750,76.82566444,47.67632627,1280.092687
10.4800,77.34463022,47.47224046,1279.749262
10.4850,77.86948892,47.26571561,1279.403557
10.4900,78.39953933,47.05639512,1279.05583
10.4950,78.9345673,46.84358111,1278.706013
10.5000,79.47296527,46.62694764,1278.354807
10.5050,80.01415632,46.40588147,1278.002339
10.5100,80.55857188,46.1809856,1277.648599
10.5150,81.1052863,45.95161896,1277.293863
10.5200,81.65468314,45.71882823,1276.938314
10.5250,82.20605114,45.48144791,1276.581921
10.5300,82.75863044,45.24033677,1276.225387
10.5350,83.31215006,44.99232793,1275.867787
10.5400,83.86543633,44.7376582,1275.509786
10.5450,84.41738784,44.47569557,1275.151711
10.5500,84.96717964,44.20670123,1274.79409
10.5550,85.51396285,43.92983971,1274.437031
10.5600,86.05683417,43.6459539,1274.081266
10.5650,86.59455082,43.35281846,1273.726632
10.5700,87.12682889,43.05175111,1273.373698
10.5750,87.65325764,42.74272353,1273.022646
10.5800,88.1741201,42.42605566,1272.673446
10.5850,88.68935295,42.10149862,1272.326025
10.5900,89.19843343,41.76973685,1271.980854
10.5950,89.70073616,41.4321675,1271.638682
10.6000,90.19704171,41.0888628,1271.299141
10.6050,90.68695798,40.74026405,1270.962544
10.6100,91.17037057,40.38653587,1270.62896
10.6150,91.64816388,40.02990125,1270.298675
10.6200,92.12079528,39.67002286,1269.971311
10.6250,92.58851916,39.30869008,1269.647327
10.6300,93.05239913,38.94595295,1269.326223
10.6350,93.51173478,38.58334053,1269.008774
10.6400,93.96704337,38.2197773,1268.694342
10.6450,94.41758801,37.85698971,1268.383818
10.6500,94.86508065,37.49484553,1268.07633
10.6550,95.30865294,37.13445182,1267.7726
10.6600,95.75018399,36.77620317,1267.471885
10.6650,96.18885942,36.42104968,1267.174771
10.6700,96.62502957,36.06860203,1266.881023
10.6750,97.05903131,35.71936559,1266.590593
10.6800,97.49057671,35.37410588,1266.3038
10.6850,97.92106666,35.03291033,1266.020059
10.6900,98.34925303,34.69699318,1265.740253
10.6950,98.7759288,34.36565592,1265.463821
10.7000,99.2023508,34.04024823,1265.19062
10.7050,99.62899445,33.72141524,1264.920655
10.7100,100.0562898,33.40899869,1264.653626
10.7150,100.4861321,33.1034579,1264.388846
10.7200,100.9167159,32.80356584,1264.126695
10.7250,101.3492345,32.5095589,1263.86673
10.7300,101.7837579,32.2195587,1263.608319
10.7350,102.2199624,31.93389874,1263.351658
10.7400,102.6588901,31.65246791,1263.096289
10.7450,103.0993496,31.37411993,1262.842334
10.7500,103.5421936,31.09803551,1262.589192
10.7550,103.9870274,30.82415806,1262.336997
10.7600,104.434888,30.55117862,1262.084952
10.7650,104.8855676,30.2786322,1261.832999
10.7700,105.3385151,30.00669117,1261.581453
10.7750,105.7935418,29.73441955,1261.330122
10.7800,106.2500544,29.46054904,1261.078922
10.7850,106.707732,29.18450458,1260.827809
10.7900,107.1660499,28.90500761,1260.576692
10.7950,107.6246388,28.62210127,1260.325702
10.8000,108.084352,28.33404467,1260.074061
10.8050,108.5437073,28.04109494,1259.822429
10.8100,109.0033224,27.74316705,1259.570583
10.8150,109.4628459,27.43881939,1259.318282
10.8200,109.9221016,27.12941199,1259.066027
10.8250,110.3830075,26.81650712,1258.8135
10.8300,110.8451327,26.50028077,1258.560981
10.8350,111.3088611,26.18313399,1258.309006
10.8400,111.7751824,25.86494878,1258.057203
10.8450,112.2441304,25.54611552,1257.805703
10.8500,112.7158404,25.22642614,1257.554405
10.8550,113.1915637,24.9074009,1257.303293
10.8600,113.6716227,24.58888283,1257.052217
10.8650,114.157059,24.27180454,1256.801062
10.8700,114.6475919,23.95479463,1256.549548
10.8750,115.1427877,23.63754415,1256.297816
10.8800,115.6424389,23.32108645,1256.046155
10.8850,116.1456728,23.00476603,1255.79475
10.8900,116.6519451,22.68769557,1255.543547
10.8950,117.1609079,22.36939241,1255.292541
10.9000,117.6709881,22.05004976,1255.042381
10.9050,118.1812761,21.7291465,1254.79325
10.9100,118.6917255,21.40666363,1254.545176
10.9150,119.2016293,21.08245962,1254.29839
10.9200,119.7103673,20.75826397,1254.05356
10.9250,120.2182358,20.43269574,1253.810232
10.9300,120.724079,20.10672365,1253.569069
10.9350,121.2277499,19.78048472,1253.330125
10.9400,121.7303147,19.45597404,1253.093548
10.9450,122.2324569,19.13273654,1252.858967
10.9500,122.7330988,18.81170505,1252.626957
10.9550,123.2333528,18.49426194,1252.397484
10.9600,123.7305235,18.1800233,1252.17134
10.9650,124.2254,17.86894792,1251.948237
10.9700,124.7174017,17.56203038,1251.728569
10.9750,125.206271,17.26020499,1251.512623
10.9800,125.6920201,16.96262183,1251.300196
10.9850,126.1742327,16.66979727,1251.091465
10.9900,126.6534556,16.38111937,1250.886118
10.9950,127.1297961,16.09681198,1250.68411
11.0000,127.6021973,15.81622325,1250.48562
11.0050,128.0702948,15.53889744,1250.290623
11.0100,128.5336463,15.26392233,1250.099074
11.0150,128.9911977,14.9912123,1249.911252
11.0200,129.4450563,14.72061394,1249.726447
11.0250,129.895064,14.45173446,1249.54463
11.0300,130.3419748,14.18685837,1249.36608
11.0350,130.7863524,13.92540405,1249.190449
11.0400,131.2277045,13.66682343,1249.01771
11.0450,131.665802,13.4101859,1248.847705
11.0500,132.0997052,13.15576503,1248.680762
11.0550,132.5295682,12.90172954,1248.516369
11.0600,132.9546448,12.6484788,1248.354807
11.0650,133.3740647,12.39537406,1248.196202
11.0700,133.7889258,12.14128333,1248.039924
11.0750,134.1977342,11.88543412,1247.886257
11.0800,134.6018195,11.62771888,1247.734774
11.0850,135.0012237,11.36854284,1247.585586
11.0900,135.3954031,11.10692575,1247.438653
11.0950,135.7841505,10.84306519,1247.294131
11.1000,136.1673392,10.57784327,1247.152288
11.1050,136.5461943,10.31149558,1247.012821
11.1100,136.9211704,10.04315381,1246.875417
11.1150,137.2932452,9.775406828,1246.740367
11.1200,137.6629114,9.506791441,1246.607227
11.1250,138.0306072,9.237023966,1246.475811
11.1300,138.3970325,8.966890569,1246.346074
11.1350,138.7628556,8.697894173,1246.218118
11.1400,139.1304467,8.430027947,1246.091233
11.1450,139.5008702,8.16480476,1245.965431
11.1500,139.8750465,7.902983183,1245.84055
11.1550,140.2554791,7.645107315,1245.715961
11.1600,140.6425964,7.392200796,1245.591733
11.1650,141.0375717,7.144792217,1245.467601
11.1700,141.4419579,6.90439141,1245.343423
11.1750,141.8569446,6.67011582,1245.218589
11.1800,142.2816426,6.44261781,1245.093469
11.1850,142.7171821,6.222139876,1244.967734
11.1900,143.1634337,6.009473567,1244.841527
11.1950,143.6202254,5.803760287,1244.714676
11.2000,144.0879444,5.604539284,1244.586918
11.2050,144.5654087,5.411486261,1244.458491
11.2100,145.0526765,5.223429398,1244.329119
11.2150,145.5493316,5.038489873,1244.198519
11.2200,146.0531731,4.855562156,1244.067049
11.2250,146.5640929,4.674291659,1243.934671
11.2300,147.0807008,4.492632998,1243.801362
11.2350,147.6022723,4.309706393,1243.667184
11.2400,148.1268877,4.123589037,1243.532274
11.2450,148.6536086,3.934891617,1243.397037
11.2500,149.1808817,3.742761876,1243.261761
11.2550,149.7074319,3.545371796,1243.126431
11.2600,150.2329408,3.343573081,1242.991319
11.2650,150.7563176,3.136623176,1242.856586
11.2700,151.2760378,2.924671301,1242.722646
11.2750,151.7919782,2.706785144,1242.58935
11.2800,152.3028075,2.482615207,1242.45695
11.2850,152.8080029,2.251175419,1242.325396
11.2900,153.3086569,2.013631133,1242.194645
11.2950,153.8041611,1.769013542,1242.064637
11.3000,154.2945403,1.517326102,1241.935349
11.3050,154.7800982,1.258825133,1241.806703
11.3100,155.2607387,0.9936868347,1241.678702
11.3150,155.7360823,0.721209168,1241.551287
11.3200,156.2049337,0.4412539778,1241.424647
11.3250,156.6666047,0.1543120832,1241.298965
11.3300,157.1190176,-0.1408205857,1241.174459
11.3350,157.5621389,-0.4441796058,1241.051124
11.3400,157.9956315,-0.7554280517,1240.929081
11.3450,158.4194909,-1.073648503,1240.808465
11.3500,158.8335986,-1.398688596,1240.689332
11.3550,159.2379958,-1.728652182,1240.572017
11.3600,159.6338274,-2.063270221,1240.456296
11.3650,160.0219362,-2.401939711,1240.342063
11.3700,160.4014517,-2.744122461,1240.229626
11.3750,160.7720956,-3.089356551,1240.119116
11.3800,161.1338599,-3.436723549,1240.010701
11.3850,161.4859762,-3.786731105,1239.904405
11.3900,161.829501,-4.13815776,1239.800192
11.3950,162.1641609,-4.490978936,1239.698103
11.4000,162.490363,-4.844115163,1239.5982
11.4050,162.8068833,-5.198184442,1239.500635
11.4100,163.1141488,-5.55102662,1239.405705
11.4150,163.4124568,-5.902602956,1239.313345
11.4200,163.7020859,-6.251887986,1239.223634
11.4250,163.9826597,-6.596621058,1239.137016
11.4300,164.2567761,-6.93644026,1239.053003
11.4350,164.5244474,-7.270495401,1238.971713
11.4400,164.785286,-7.597673802,1238.893365
11.4450,165.0407771,-7.917442361,1238.817676
11.4500,165.2918736,-8.229018364,1238.744563
11.4550,165.5366527,-8.532275143,1238.674352
11.4600,165.7761263,-8.827982254,1238.606661
11.4650,166.0095298,-9.115384636,1238.54171
11.4700,166.2353026,-9.39540083,1238.479577
11.4750,166.4528835,-9.666823959,1238.420552
11.4800,166.6624744,-9.929321389,1238.364589
11.4850,166.8640196,-10.18366329,1238.311522
11.4900,167.0573625,-10.42969423,1238.261396
11.4950,167.2406845,-10.66615775,1238.214713
11.5000,167.4145607,-10.8943235,1238.171162
11.5050,167.5780321,-11.11375641,1238.130975
11.5100,167.7297987,-11.32418241,1238.094452
11.5150,167.8687853,-11.52562517,1238.061787
11.5200,167.9955972,-11.7188118,1238.032752
11.5250,168.1095921,-11.90400076,1238.007425
11.5300,168.2104489,-12.08041111,1237.985948
11.5350,168.2974621,-12.24844892,1237.968378
11.5400,168.3695918,-12.40810725,1237.954896
11.5450,168.4253664,-12.55917293,1237.94579
11.5500,168.46438,-12.70115164,1237.941175
11.5550,168.4844233,-12.83423472,1237.941426
11.5600,168.4855081,-12.95814312,1237.946575
11.5650,168.4663512,-13.07228113,1237.956922
11.5700,168.4278208,-13.17664768,1237.972298
11.5750,168.3693079,-13.27063639,1237.992918
11.5800,168.2910248,-13.35353014,1238.018841
11.5850,168.191817,-13.424902,1238.050361
11.5900,168.071038,-13.48546029,1238.087496
11.5950,167.928639,-13.53517035,1238.130303
11.6000,167.7654471,-13.57294445,1238.178799
11.6050,167.5801651,-13.60009754,1238.233102
11.6100,167.3738504,-13.61549629,1238.293222
11.6150,167.1469584,-13.61914227,1238.359131
11.6200,166.9001637,-13.6110682,1238.430748
11.6250,166.6350722,-13.59015931,1238.508006
11.6300,166.3529434,-13.55690472,1238.590637
11.6350,166.0548386,-13.51112118,1238.678506
11.6400,165.7431201,-13.45345869,1238.771101
11.6450,165.4192532,-13.38357598,1238.868235
11.6500,165.0851846,-13.30375054,1238.969201
11.6550,164.7442295,-13.21470746,1239.07326
11.6600,164.3967313,-13.11799305,1239.180113
11.6650,164.0447829,-13.01446174,1239.289223
11.6700,163.6901918,-12.90630556,1239.399875
11.6750,163.3360681,-12.79514161,1239.511171
11.6800,162.9835936,-12.682425,1239.622595
11.6850,162.6342643,-12.5690927,1239.733676
11.6900,162.2894742,-12.45654728,1239.843864
11.6950,161.9507725,-12.34517888,1239.952737
11.7000,161.6185669,-12.23690869,1240.059865
11.7050,161.2952332,-12.13124148,1240.164772
11.7100,160.9806522,-12.02992833,1240.267169
11.7150,160.6749048,-11.93458829,1240.36673
11.7200,160.3788575,-11.84592297,1240.463141
11.7250,160.0927536,-11.76561593,1240.556056
11.7300,159.8158733,-11.69520325,1240.645348
11.7350,159.5474745,-11.63620457,1240.730919
11.7400,159.2879104,-11.58823063,1240.812735
11.7450,159.0362197,-11.55341359,1240.890675
11.7500,158.7911447,-11.53142486,1240.965046
11.7550,158.5510054,-11.52261151,1241.036172
11.7600,158.3148813,-11.52532815,1241.104516
11.7650,158.08125,-11.54018767,1241.170338
11.7700,157.8508202,-11.56608248,1241.233686
11.7750,157.6223634,-11.60211205,1241.29497
11.7800,157.3947226,-11.64883449,1241.354372
11.7850,157.1651835,-11.70499014,1241.412722
11.7900,156.9338206,-11.77083672,1241.469991
11.7950,156.7005395,-11.84754289,1241.526039
11.8000,156.4635286,-11.93448264,1241.581376
11.8050,156.223486,-12.03119015,1241.635937
11.8100,155.9806462,-12.13817508,1241.689601
11.8150,155.7358419,-12.25476901,1241.742296
11.8200,155.4884913,-12.38008919,1241.7943
11.8250,155.2379952,-12.51327104,1241.845889
11.8300,154.9844575,-12.65390921,1241.897126
11.8350,154.7284168,-12.80060063,1241.948112
11.8400,154.4715828,-12.95129107,1241.998778
11.8450,154.2153513,-13.10747469,1242.048589
11.8500,153.9600999,-13.26753049,1242.09772
11.8550,153.7082938,-13.42910196,1242.145955
11.8600,153.4607917,-13.59262774,1242.193026
11.8650,153.2192518,-13.75767265,1242.238604
11.8700,152.9830236,-13.9237733,1242.282912
11.8750,152.7530417,-14.09128938,1242.32567
11.8800,152.5299463,-14.25908356,1242.366879
11.8850,152.314896,-14.42668787,1242.406323
11.8900,152.1075423,-14.59559568,1242.443839
11.8950,151.9092134,-14.76391853,1242.479378
11.9000,151.7192693,-14.93240998,1242.512959
11.9050,151.5382432,-15.10078813,1242.544465
11.9100,151.36569,-15.26997808,1242.573852
11.9150,151.2037254,-15.44009936,1242.600576
11.9200,151.0515865,-15.61224942,1242.624645
11.9250,150.9085121,-15.78668522,1242.646182
11.9300,150.7754198,-15.96339144,1242.664951
11.9350,150.652134,-16.14294677,1242.680912
11.9400,150.5382697,-16.32606666,1242.694052
11.9450,150.4348191,-16.51307356,1242.704078
11.9500,150.3416669,-16.7030671,1242.711143
11.9550,150.2595555,-16.89693781,1242.714928
11.9600,150.1878371,-17.09412973,1242.715681
11.9650,150.1259516,-17.29518003,1242.713462
11.9700,150.0729726,-17.50053392,1242.708438
11.9750,150.0277778,-17.71009959,1242.700906
11.9800,149.9893951,-17.92422954,1242.69106
11.9850,149.9566484,-18.14274459,1242.679225
11.9900,149.9296485,-18.36575534,1242.665369
11.9950,149.9074599,-18.59488586,1242.649511
12.0000,149.8894212,-18.82920414,1242.631967
12.0050,149.8751435,-19.06919688,1242.612784
12.0100,149.8640903,-19.31534954,1242.592033
12.0150,149.8565834,-19.56780395,1242.569661
12.0200,149.850846,-19.82568853,1242.546217
12.0250,149.8476441,-20.08896286,1242.521539
12.0300,149.8460292,-20.35714054,1242.495952
12.0350,149.8473828,-20.6291613,1242.469272
12.0400,149.8507538,-20.90582501,1242.441642
12.0450,149.8552665,-21.18497536,1242.413564
12.0500,149.8618177,-21.46764746,1242.384712
12.0550,149.8710963,-21.75262343,1242.355085
12.0600,149.8831858,-22.04008561,1242.32464
12.0650,149.8980277,-22.32943783,1242.293483
12.0700,149.9142482,-22.62060001,1242.261951
12.0750,149.932276,-22.91385828,1242.229918
12.0800,149.9517981,-23.20899836,1242.197498
12.0850,149.9744633,-23.5055618,1242.16435
12.0900,149.9983951,-23.80319889,1242.130962
12.0950,150.0237872,-24.10115305,1242.097386
12.1000,150.0509018,-24.3993559,1242.063569
12.1050,150.0783055,-24.69829558,1242.029796
12.1100,150.1055218,-24.99644803,1241.996351
12.1150,150.1319689,-25.29338998,1241.963426
12.1200,150.1581391,-25.58951117,1241.930854
12.1250,150.1850735,-25.88462481,1241.898396
12.1300,150.2120628,-26.17863862,1241.866231
12.1350,150.239741,-26.47147255,1241.834209
12.1400,150.267646,-26.76405194,1241.802345
12.1450,150.2953962,-27.05446556,1241.770933
12.1500,150.3239019,-27.34293258,1241.739731
12.1550,150.3534788,-27.63036768,1241.708553
12.1600,150.3840765,-27.91676873,1241.677415
12.1650,150.415814,-28.20095227,1241.646425
12.1700,150.4491136,-28.48322837,1241.615437
12.1750,150.4836355,-28.76346687,1241.584554
12.1800,150.5194965,-29.04218511,1241.553682
12.1850,150.5567394,-29.31921258,1241.522843
12.1900,150.5954261,-29.59263392,1241.492215
12.1950,150.6339892,-29.86365535,1241.462045
12.2000,150.673154,-30.13231875,1241.432157
12.2050,150.7137992,-30.39853188,1241.402361
12.2100,150.7557584,-30.66093879,1241.372822
12.2150,150.797848,-30.91982428,1241.343792
12.2200,150.8406465,-31.17471862,1241.315175
12.2250,150.8845606,-31.42566501,1241.286863
12.2300,150.9287553,-31.67387705,1241.258933
12.2350,150.9748088,-31.91930671,1241.231014
12.2400,151.0228555,-32.16108238,1241.203138
12.2450,151.0731274,-32.39982581,1241.175186
12.2500,151.1270632,-32.63599458,1241.146763
12.2550,151.1838881,-32.86984194,1241.118025
12.2600,151.2455683,-33.10134418,1241.088503
12.2650,151.312702,-33.33162392,1241.057944
12.2700,151.3876413,-33.56011851,1241.025835
12.2750,151.4730675,-33.78663894,1240.991561
12.2800,151.5686946,-34.01142278,1240.955166
12.2850,151.6759459,-34.23497188,1240.916272
12.2900,151.7946143,-34.45640613,1240.875013
12.2950,151.9247013,-34.67622505,1240.831357
12.3000,152.0664021,-34.89483478,1240.785224
12.3050,152.2189433,-35.11219248,1240.736816
12.3100,152.3810852,-35.32874452,1240.686395
12.3150,152.5517543,-35.54386094,1240.63427
12.3200,152.7303963,-35.75786184,1240.580561
12.3250,152.9153948,-35.97075986,1240.52565
12.3300,153.1074714,-36.18114934,1240.469491
12.3350,153.3046518,-36.39114568,1240.412385
12.3400,153.5061185,-36.59980004,1240.354599
12.3450,153.7117186,-36.80754161,1240.296142
12.3500,153.9194411,-37.01431187,1240.237481
12.3550,154.1287631,-37.21976341,1240.178762
12.3600,154.3386037,-37.42531858,1240.120131
12.3650,154.5483027,-37.63094268,1240.061722
12.3700,154.7575869,-37.83706035,1240.003577
12.3750,154.9656685,-38.04368678,1239.94587
12.3800,155.1728959,-38.25080167,1239.888519
12.3850,155.3787715,-38.46053769,1239.831469
12.3900,155.5840113,-38.67185124,1239.774642
12.3950,155.789417,-38.88622606,1239.717754
12.4000,155.9932085,-39.10338722,1239.661224
12.4050,156.1974171,-39.32410703,1239.604553
12.4100,156.4013677,-39.54952519,1239.547817
12.4150,156.6048476,-39.78009938,1239.491028
12.4200,156.8075092,-40.01623791,1239.434249
12.4250,157.0083392,-40.25839174,1239.377687
12.4300,157.2057762,-40.50615336,1239.321723
12.4350,157.3985055,-40.7603441,1239.26659
12.4400,157.5856453,-41.02026744,1239.212537
12.4450,157.7665086,-41.28655456,1239.159677
12.4500,157.9401784,-41.55833705,1239.108275
12.4550,158.105182,-41.83569437,1239.058651
12.4600,158.2618502,-42.11690731,1239.010848
12.4650,158.4088211,-42.401928,1238.965162
12.4700,158.5458558,-42.6895193,1238.921717
12.4750,158.6730834,-42.97880361,1238.880537
12.4800,158.7896609,-43.26947544,1238.84182
12.4850,158.894832,-43.56126589,1238.805725
12.4900,158.9888083,-43.85469893,1238.772179
12.4950,159.0713733,-44.14838366,1238.741303
12.5000,159.1424657,-44.44232123,1238.713107
12.5050,159.2019601,-44.73510639,1238.687676
12.5100,159.2509054,-45.02717609,1238.664765
12.5150,159.2893527,-45.3176501,1238.644394
12.5200,159.3194339,-45.6043631,1238.62623
12.5250,159.3416851,-45.88736674,1238.610129
12.5300,159.3577677,-46.16559484,1238.595793
12.5350,159.3677583,-46.43820127,1238.58323
12.5400,159.3729611,-46.70410296,1238.572202
12.5450,159.3742658,-46.96283405,1238.562526
12.5500,159.3724736,-47.21276919,1238.5541
12.5550,159.3688036,-47.45325742,1238.54667
12.5600,159.3636965,-47.6841285,1238.540134
12.5650,159.3591999,-47.90292477,1238.534145
12.5700,159.3551066,-48.10994635,1238.528713
12.5750,159.3498209,-48.30422151,1238.524172
12.5800,159.3446764,-48.48632409,1238.520201
12.5850,159.3398458,-48.6549166,1238.516812
12.5900,159.3356341,-48.80970307,1238.513915
12.5950,159.3332109,-48.94931688,1238.511298
12.6000,159.3320816,-49.07363679,1238.50905
12.6050,159.3330546,-49.18196819,1238.506996
12.6100,159.3363658,-49.27329385,1238.505111
12.6150,159.3417141,-49.34774809,1238.503437
12.6200,159.3500038,-49.40433974,1238.501795
12.6250,159.3610152,-49.44330611,1238.500216
12.6300,159.3733299,-49.46565823,1238.498939
12.6350,159.3864178,-49.46980753,1238.498122
12.6400,159.4012746,-49.4570106,1238.497507
12.6450,159.4164554,-49.42653964,1238.49743
12.6500,159.4323717,-49.37786964,1238.49781
12.6550,159.4486583,-49.31331915,1238.498653
12.6600,159.4651704,-49.23177898,1238.500022
12.6650,159.482103,-49.13473241,1238.50185
12.6700,159.4999767,-49.02278007,1238.504008
12.6750,159.5191242,-48.89665523,1238.506411
12.6800,159.5397173,-48.75826184,1238.508959
12.6850,159.562012,-48.60707595,1238.511646
12.6900,159.5854897,-48.44678428,1238.514432
12.6950,159.6094253,-48.27763881,1238.517486
12.7000,159.6361856,-48.10208881,1238.520215
12.7050,159.6640898,-47.92109734,1238.522945
12.7100,159.6939724,-47.73627313,1238.525442
12.7150,159.7270588,-47.55015785,1238.527348
12.7200,159.761836,-47.36352544,1238.528957
12.7250,159.7989535,-47.17874462,1238.530027
12.7300,159.8391185,-46.99605764,1238.530404
12.7350,159.8811076,-46.81681873,1238.530278
12.7400,159.9244675,-46.6422,1238.529685
12.7450,159.9676157,-46.47283329,1238.528921
12.7500,160.0098547,-46.31016736,1238.528062
12.7550,160.0499533,-46.15423818,1238.527348
12.7600,160.0868215,-46.00736935,1238.526889
12.7650,160.1194405,-45.86937958,1238.526895
12.7700,160.1466886,-45.74149598,1238.527527
12.7750,160.1668883,-45.62404669,1238.529104
12.7800,160.180132,-45.51711783,1238.531595
12.7850,160.1844828,-45.42099936,1238.535377
12.7900,160.1801198,-45.33478383,1238.540453
12.7950,160.1669077,-45.2600786,1238.546763
12.8000,160.1449653,-45.1961002,1238.554312
12.8050,160.1148564,-45.14348018,1238.562962
12.8100,160.0763752,-45.1030532,1238.572689
12.8150,160.029103,-45.07520053,1238.583565
12.8200,159.9723146,-45.06089409,1238.595674
12.8250,159.9068316,-45.06090187,1238.60882
12.8300,159.8337794,-45.07444555,1238.622799
12.8350,159.7541786,-45.10220343,1238.637368
12.8400,159.6687525,-45.14535156,1238.652316
12.8450,159.57884,-45.20335696,1238.667409
12.8500,159.4850932,-45.27716676,1238.682461
12.8550,159.3885621,-45.36554479,1238.697329
12.8600,159.2910079,-45.46800254,1238.711674
12.8650,159.1917691,-45.58421007,1238.725674
12.8700,159.0919223,-45.71350165,1238.739146
12.8750,158.9938427,-45.85485994,1238.751669
12.8800,158.8974857,-46.0054726,1238.763404
12.8850,158.804666,-46.16421523,1238.774024
12.8900,158.715844,-46.33097719,1238.783452
12.8950,158.6309956,-46.50316337,1238.791832
12.9000,158.5523457,-46.67881156,1238.79879
12.9050,158.4795388,-46.85722757,1238.804446
12.9100,158.4138769,-47.03642158,1238.808608
12.9150,158.3556741,-47.21457293,1238.811295
12.9200,158.3056363,-47.39128801,1238.812372
12.9250,158.26436,-47.56376078,1238.811829
12.9300,158.2316334,-47.73078268,1238.809748
12.9350,158.2079425,-47.89117542,1238.806083
12.9400,158.1922497,-48.04353334,1238.801097
12.9450,158.1854639,-48.18831105,1238.794549
12.9500,158.1875739,-48.32424065,1238.786502
12.9550,158.1975977,-48.45024257,1238.777185
12.9600,158.215647,-48.56679,1238.76655
12.9650,158.2403491,-48.67370287,1238.754871
12.9700,158.2709044,-48.76942039,1238.742382
12.9750,158.3063663,-48.85551005,1238.7292
12.9800,158.3453818,-48.93123877,1238.71564
12.9850,158.3873739,-48.99686717,1238.701806
12.9900,158.4301837,-49.05247833,1238.688142
12.9950,158.4747983,-49.0978639,1238.674432
13.0000,158.5187185,-49.13333798,1238.661185
13.0050,158.5618892,-49.15957572,1238.648376
13.0100,158.6020323,-49.17748666,1238.636439
13.0150,158.6384104,-49.18688362,1238.625537
13.0200,158.6705921,-49.18858115,1238.615705
13.0250,158.6981659,-49.18190661,1238.607058
13.0300,158.7212467,-49.1691785,1238.599467
13.0350,158.7399642,-49.15122118,1238.592862
13.0400,158.7544412,-49.12735514,1238.587231
13.0450,158.7656909,-49.09828989,1238.582336
13.0500,158.7736576,-49.06444332,1238.578158
13.0550,158.7796581,-49.02630871,1238.574406
13.0600,158.7822849,-48.9839053,1238.571372
13.0650,158.7827167,-48.93928166,1238.56871
13.0700,158.7811545,-48.89209044,1238.56639
13.0750,158.7787854,-48.84231327,1238.564165
13.0800,158.7746716,-48.79163562,1238.562158
13.0850,158.7709917,-48.73924153,1238.559939
13.0900,158.7670856,-48.68659976,1238.557588
13.0950,158.7629394,-48.63352936,1238.555104
13.1000,158.7593369,-48.58111393,1238.552285
13.1050,158.7554927,-48.52904583,1238.549288
13.1100,158.7503091,-48.47749089,1238.546356
13.1150,158.7452809,-48.42670109,1238.543144
13.1200,158.7400085,-48.37713424,1238.539726
13.1250,158.7345859,-48.32817446,1238.536099
13.1300,158.7272998,-48.28083434,1238.532581
13.1350,158.7181014,-48.23386526,1238.529245
13.1400,158.7063869,-48.18710241,1238.526226
13.1450,158.6923048,-48.14012857,1238.523491
13.1500,158.6752603,-48.09268262,1238.521184
13.1550,158.6540645,-48.04453132,1238.519573
13.1600,158.6279137,-47.99627865,1238.518805
13.1650,158.5969511,-47.94741796,1238.518868
13.1700,158.5599534,-47.89704476,1238.520067
13.1750,158.5162693,-47.84511209,1238.522546
13.1800,158.4671569,-47.79134157,1238.526054
13.1850,158.4107763,-47.73639179,1238.530954
13.1900,158.3468383,-47.67878706,1238.537388
13.1950,158.2764668,-47.61895033,1238.545091
13.2000,158.1987621,-47.55655846,1238.554279
13.2050,158.1146331,-47.49161709,1238.564764
13.2100,158.0238311,-47.42437717,1238.576605
13.2150,157.9273558,-47.35400317,1238.589616
13.2200,157.82463,-47.27934732,1238.603996
13.2250,157.7160641,-47.2022835,1238.619575
13.2300,157.6018384,-47.12231446,1238.636351
13.2350,157.4827816,-47.03980555,1238.654122
13.2400,157.3584402,-46.95447681,1238.673009
13.2450,157.2289957,-46.86489235,1238.693066
13.2500,157.094999,-46.77113999,1238.714161
13.2550,156.9576646,-46.67378456,1238.736012
13.2600,156.8164187,-46.57218049,1238.758787
13.2650,156.673533,-46.46581723,1238.782019
13.2700,156.5288327,-46.35652379,1238.805656
13.2750,156.3824045,-46.24421216,1238.829695
13.2800,156.2350266,-46.12884217,1238.853962
13.2850,156.0865916,-46.01197597,1238.878414
13.2900,155.9390907,-45.89397557,1238.902586
13.2950,155.7914736,-45.77624412,1238.926633
13.3000,155.646533,-45.65797183,1238.949982
13.3050,155.5033441,-45.54001331,1238.972796
13.3100,155.3633526,-45.42132378,1238.994801
13.3150,155.228984,-45.30268789,1239.015389
13.3200,155.1007271,-45.18510511,1239.034416
13.3250,154.9778394,-45.06821197,1239.052034
13.3300,154.8609434,-44.95173828,1239.068115
13.3350,154.7501471,-44.83542355,1239.082655
13.3400,154.6460958,-44.71928605,1239.095498
13.3450,154.5498541,-44.60413707,1239.106352
13.3500,154.4607307,-44.48936758,1239.115372
13.3550,154.3781378,-44.37538963,1239.122672
13.3600,154.3026958,-44.26115839,1239.128158
13.3650,154.2331011,-44.14642334,1239.132142
13.3700,154.1690371,-44.03116598,1239.134715
13.3750,154.1091822,-43.91494926,1239.136185
13.3800,154.0537933,-43.79757329,1239.136517
13.3850,154.0023723,-43.67844954,1239.135859
13.3900,153.9557275,-43.55682074,1239.134074
13.3950,153.9145218,-43.43142759,1239.131097
13.4000,153.8760572,-43.30166566,1239.12758
13.4050,153.8409551,-43.16840976,1239.12334
13.4100,153.809697,-43.02956613,1239.1184
13.4150,153.7814317,-42.88483958,1239.112976
13.4200,153.7574421,-42.73297845,1239.106867
13.4250,153.7373373,-42.57452144,1239.10014
13.4300,153.7212927,-42.40902583,1239.092795
13.4350,153.7089335,-42.23705597,1239.08488
13.4400,153.7001534,-42.05810234,1239.076469
13.4450,153.6942658,-41.87196657,1239.067748
13.4500,153.6912946,-41.67723471,1239.058809
13.4550,153.6909173,-41.47516081,1239.049661
13.4600,153.6927642,-41.26520996,1239.040438
13.4650,153.6965613,-41.04782602,1239.031176
13.4700,153.7022432,-40.82212156,1239.021967
13.4750,153.7081767,-40.58855124,1239.013167
13.4800,153.7129272,-40.34722071,1239.005123
13.4850,153.7172265,-40.09838369,1238.997663
13.4900,153.7198204,-39.84223331,1238.991082
13.4950,153.7188039,-39.57956749,1238.985775
13.5000,153.7139549,-39.31100162,1238.981772
13.5050,153.7036466,-39.03642576,1238.979463
13.5100,153.6880226,-38.75628407,1238.978796
13.5150,153.6655248,-38.47092657,1238.980124
13.5200,153.637472,-38.18104281,1238.98311
13.5250,153.6018072,-37.88741191,1238.988188
13.5300,153.5601629,-37.58906533,1238.995059
13.5350,153.5111923,-37.28703365,1239.003978
13.5400,153.4561826,-36.98131035,1239.014685
13.5450,153.3952074,-36.67312972,1239.027052
13.5500,153.3284073,-36.36270182,1239.041056
13.5550,153.2561135,-36.0496042,1239.056666
13.5600,153.1789769,-35.73435653,1239.073698
13.5650,153.0949239,-35.41690921,1239.092652
13.5700,153.0055543,-35.09752105,1239.113169
13.5750,152.9105766,-34.77580614,1239.135345
13.5800,152.8099087,-34.4525922,1239.159169
13.5850,152.7036755,-34.12733516,1239.184652
13.5900,152.5928647,-33.79916656,1239.211669
13.5950,152.4774133,-33.46735883,1239.24031
13.6000,152.356361,-33.13341527,1239.270683
13.6050,152.2313226,-32.79609343,1239.302538
13.6100,152.1019264,-32.45661801,1239.335875
13.6150,151.9676013,-32.11416435,1239.370951
13.6200,151.8287561,-31.76774817,1239.407752
13.6250,151.6856287,-31.41804951,1239.446197
13.6300,151.5386047,-31.06461838,1239.486263
13.6350,151.3887662,-30.70643686,1239.527796
13.6400,151.23665,-30.34518177,1239.570548
13.6450,151.081585,-29.97977817,1239.614787
13.6500,150.9248229,-29.61039336,1239.660237
13.6550,150.7680564,-29.23701544,1239.706513
13.6600,150.6100482,-28.86036182,1239.75386
13.6650,150.4527024,-28.47999021,1239.80189
13.6700,150.2972476,-28.09571362,1239.850329
13.6750,150.1445137,-27.70795102,1239.898947
13.6800,149.9955675,-27.31568812,1239.947612
13.6850,149.8496931,-26.91918353,1239.996491
13.6900,149.7064092,-26.51815053,1240.045728
13.6950,149.5654427,-26.11390002,1240.095265
13.7000,149.4288578,-25.70518647,1240.144726
13.7050,149.2954506,-25.29261413,1240.194368
13.7100,149.1663082,-24.87771246,1240.243726
13.7150,149.0400536,-24.46100631,1240.293128
13.7200,148.9158789,-24.04334681,1240.342655
13.7250,148.793748,-23.62508097,1240.392289
13.7300,148.673856,-23.20573696,1240.442045
13.7350,148.5547694,-22.7868832,1240.492093
13.7400,148.4369087,-22.36810643,1240.542373
13.7450,148.3201125,-21.95064726,1240.592785
13.7500,148.2036275,-21.53496262,1240.643445
13.7550,148.0872649,-21.12079057,1240.694423
13.7600,147.9709065,-20.70776553,1240.745791
13.7650,147.853708,-20.2963191,1240.797716
