type,name,time_units,begin_time,frequency,count,units
signal_3d,"Noraxon MyoMotion-Trajectories-Body center of mass","s",0.0000,200,5008,"mm"

time,x,y,z
0.0000,0.3855019232,16.81072747,1075.234635
0.0050,0.3862601713,16.81057673,1075.234495
0.0100,0.387018412,16.81042593,1075.234354
0.0150,0.3877766453,16.81027507,1075.234214
0.0200,0.3885798569,16.81011203,1075.234065
0.0250,0.3894208449,16.80993781,1075.233908
0.0300,0.3902916042,16.80975326,1075.233746
0.0350,0.3911836188,16.8095588,1075.23358
0.0400,0.3920883078,16.80935444,1075.23341
0.0450,0.3929974589,16.80914001,1075.233238
0.0500,0.3939034681,16.80891549,1075.233066
0.0550,0.3947993527,16.80868103,1075.232895
0.0600,0.3956786889,16.80843704,1075.232725
0.0650,0.3965355973,16.80818446,1075.232558
0.0700,0.3973648329,16.80792499,1075.232396
0.0750,0.3981619293,16.80766096,1075.232238
0.0800,0.3989231433,16.80739505,1075.232087
0.0850,0.3996452014,16.80713002,1075.231942
0.0900,0.4003251943,16.80686846,1075.231805
0.0950,0.4009606764,16.80661254,1075.231676
0.1000,0.4015496808,16.80636382,1075.231556
0.1050,0.4020906115,16.80612336,1075.231444
0.1100,0.4025822458,16.80589175,1075.231342
0.1150,0.4030238051,16.8056692,1075.231249
0.1200,0.4034148677,16.80545555,1075.231166
0.1250,0.4037552279,16.80525044,1075.231092
0.1300,0.404044893,16.80505355,1075.231027
0.1350,0.4042841538,16.80486464,1075.230971
0.1400,0.4044736908,16.80468365,1075.230925
0.1450,0.404614862,16.80451081,1075.230887
0.1500,0.4047102033,16.80434675,1075.230857
0.1550,0.4053240205,16.80431083,1075.230746
0.1600,0.4058814071,16.80428551,1075.230646
0.1650,0.4064049298,16.80428394,1075.230554
0.1700,0.4068848078,16.8043138,1075.230471
0.1750,0.4073819932,16.80443255,1075.23039
0.1800,0.4078407237,16.80459838,1075.230321
0.1850,0.4082803086,16.80482131,1075.230257
0.1900,0.4086984554,16.80506554,1075.230198
0.1950,0.4091002662,16.80534319,1075.230144
0.2000,0.4095089538,16.8056636,1075.230094
0.2050,0.4099393739,16.80602222,1075.230044
0.2100,0.4103313874,16.80641538,1075.230003
0.2150,0.4107448069,16.80683269,1075.229959
0.2200,0.4111351986,16.80730491,1075.229924
0.2250,0.4115666329,16.80781644,1075.229887
0.2300,0.4120093297,16.80837459,1075.229851
0.2350,0.4124590385,16.8089574,1075.229816
0.2400,0.4128718394,16.80957409,1075.22979
0.2450,0.4132733403,16.81021122,1075.229768
0.2500,0.4136679478,16.81090709,1075.229754
0.2550,0.4140749942,16.8115858,1075.229734
0.2600,0.4144035419,16.81228651,1075.229729
0.2650,0.4147187047,16.81299956,1075.22973
0.2700,0.4150133668,16.8137171,1075.229734
0.2750,0.4152812579,16.81442069,1075.229744
0.2800,0.4155117515,16.81515906,1075.229763
0.2850,0.4157149211,16.81589155,1075.229786
0.2900,0.4158800536,16.81663064,1075.229815
0.2950,0.4159552469,16.81734291,1075.229861
0.3000,0.4159756743,16.8180823,1075.229918
0.3050,0.4159401969,16.81879345,1075.229986
0.3100,0.415861241,16.8194893,1075.230062
0.3150,0.4157145433,16.82017132,1075.230148
0.3200,0.4155374172,16.82085055,1075.23024
0.3250,0.4153765155,16.82151357,1075.230332
0.3300,0.4152065723,16.82214619,1075.230424
0.3350,0.4149756683,16.82277539,1075.230527
0.3400,0.4147071492,16.82337489,1075.230636
0.3450,0.4143676631,16.82395092,1075.230756
0.3500,0.414032436,16.82447801,1075.230872
0.3550,0.4136680234,16.8249846,1075.230991
0.3600,0.4132836063,16.82544278,1075.231111
0.3650,0.4128985088,16.82587434,1075.231229
0.3700,0.4124915444,16.82628158,1075.231348
0.3750,0.4120371762,16.82664041,1075.23147
0.3800,0.4115482163,16.82697042,1075.231597
0.3850,0.4110433156,16.8272695,1075.231724
0.3900,0.4105412535,16.82757161,1075.231852
0.3950,0.4100372593,16.82781443,1075.231976
0.4000,0.4095352602,16.82807435,1075.2321
0.4050,0.4090452717,16.82830101,1075.232219
0.4100,0.4085776499,16.82851492,1075.232333
0.4150,0.4081265228,16.82875704,1075.232446
0.4200,0.4077177151,16.82899281,1075.232551
0.4250,0.4072920644,16.82922799,1075.232658
0.4300,0.4069063273,16.82945355,1075.23276
0.4350,0.4065596933,16.82970716,1075.232856
0.4400,0.4062125483,16.82995932,1075.232955
0.4450,0.405882288,16.8302123,1075.233049
0.4500,0.40560098,16.83050012,1075.233138
0.4550,0.4053678222,16.83075882,1075.233217
0.4600,0.4051640935,16.83101757,1075.233288
0.4650,0.4049310242,16.83127611,1075.233364
0.4700,0.4047501095,16.83152217,1075.23343
0.4750,0.4045501883,16.83173104,1075.233495
0.4800,0.4043866445,16.83192556,1075.233553
0.4850,0.4042223754,16.83211183,1075.233608
0.4900,0.4040706056,16.83233738,1075.233664
0.4950,0.4039349057,16.83251853,1075.233712
0.5000,0.4038113511,16.83273813,1075.233761
0.5050,0.4037217106,16.83293858,1075.233801
0.5100,0.4037011947,16.83314835,1075.23383
0.5150,0.4037060667,16.83336044,1075.233858
0.5200,0.4037384105,16.83357104,1075.233881
0.5250,0.4037729944,16.83379547,1075.233905
0.5300,0.403853716,16.83402045,1075.233923
0.5350,0.4039749736,16.83426597,1075.23394
0.5400,0.4041472564,16.83452182,1075.233951
0.5450,0.4043813818,16.83479939,1075.233954
0.5500,0.4046291843,16.83508627,1075.233959
0.5550,0.4048858106,16.83540986,1075.233968
0.5600,0.4051888376,16.83576721,1075.233978
0.5650,0.4055159533,16.83615969,1075.23399
0.5700,0.405857353,16.83659843,1075.234008
0.5750,0.4061613652,16.83709759,1075.234044
0.5800,0.4064365946,16.83764985,1075.234094
0.5850,0.4066847222,16.83823969,1075.234158
0.5900,0.4068843866,16.83883991,1075.234239
0.5950,0.4070480153,16.83953843,1075.23434
0.6000,0.4071615878,16.84025816,1075.234455
0.6050,0.4072185302,16.84100086,1075.234589
0.6100,0.4072204957,16.84177759,1075.234741
0.6150,0.4071700193,16.84257125,1075.234912
0.6200,0.4070280148,16.84336044,1075.235104
0.6250,0.40677594,16.84416519,1075.235325
0.6300,0.4064368583,16.84497653,1075.235568
0.6350,0.406013229,16.84576208,1075.23583
0.6400,0.4054855325,16.84649756,1075.236112
0.6450,0.404870693,16.84719536,1075.236411
0.6500,0.4040999208,16.84784725,1075.236738
0.6550,0.4032013159,16.8484296,1075.237088
0.6600,0.4021440529,16.84895101,1075.237465
0.6650,0.4009182116,16.84937466,1075.237867
0.6700,0.3995556508,16.84977546,1075.238296
0.6750,0.398072258,16.85012623,1075.238746
0.6800,0.3964123732,16.85042238,1075.239225
0.6850,0.394595741,16.85068923,1075.239732
0.6900,0.3926247013,16.85093761,1075.240268
0.6950,0.3904903351,16.85119186,1075.240832
0.7000,0.3881602198,16.85144175,1075.241431
0.7050,0.3856469826,16.85172545,1075.242065
0.7100,0.3829748551,16.85202865,1075.242727
0.7150,0.3801273262,16.8523765,1075.243421
0.7200,0.3771210689,16.8527545,1075.244143
0.7250,0.3739821091,16.85319196,1075.244892
0.7300,0.3706699255,16.8537008,1075.245671
0.7350,0.3671903908,16.85421081,1075.246475
0.7400,0.3635553,16.85476569,1075.247304
0.7450,0.3597965304,16.85531565,1075.248151
0.7500,0.3558678711,16.85582409,1075.249019
0.7550,0.3518199602,16.85631015,1075.249901
0.7600,0.3476542591,16.85675164,1075.250796
0.7650,0.3433981811,16.85713583,1075.251697
0.7700,0.3390229327,16.85744036,1075.252608
0.7750,0.3345750437,16.85763598,1075.253517
0.7800,0.3300430681,16.85773266,1075.25443
0.7850,0.3254821618,16.85765868,1075.255329
0.7900,0.3208795551,16.85740904,1075.256219
0.7950,0.3162690448,16.85700475,1075.257092
0.8000,0.3116500032,16.85641693,1075.257947
0.8050,0.3070344853,16.85567983,1075.258784
0.8100,0.3024138681,16.85476685,1075.259605
0.8150,0.2978624562,16.85371571,1075.2604
0.8200,0.2933448871,16.85253275,1075.261176
0.8250,0.2889111872,16.85122643,1075.261926
0.8300,0.2845256246,16.84978337,1075.262652
0.8350,0.2802279561,16.84825714,1075.263353
0.8400,0.2759851325,16.84665589,1075.264037
0.8450,0.2718120554,16.84497218,1075.264704
0.8500,0.2677489461,16.84317355,1075.26534
0.8550,0.2637660684,16.84128627,1075.265955
0.8600,0.259863926,16.83933734,1075.26655
0.8650,0.2560541746,16.83729181,1075.267123
0.8700,0.2523114919,16.8351172,1075.267674
0.8750,0.2486893446,16.83278093,1075.268191
0.8800,0.2451988049,16.83029023,1075.268674
0.8850,0.241820176,16.82767142,1075.26913
0.8900,0.2385602788,16.82492241,1075.269559
0.8950,0.2354462734,16.82195702,1075.269948
0.9000,0.2324623355,16.81882373,1075.270307
0.9050,0.2296233021,16.8155487,1075.270633
0.9100,0.2269726607,16.81210586,1075.270919
0.9150,0.2244885887,16.80855792,1075.271175
0.9200,0.2221729732,16.80485993,1075.271395
0.9250,0.2200266315,16.80104376,1075.271582
0.9300,0.2180385829,16.79710036,1075.271738
0.9350,0.2162068347,16.79309661,1075.271873
0.9400,0.2144936928,16.78905354,1075.271993
0.9450,0.2129101883,16.78495002,1075.272095
0.9500,0.2114317013,16.78082883,1075.272188
0.9550,0.2100313635,16.77674375,1075.272279
0.9600,0.2086564533,16.77269534,1075.272379
0.9650,0.2072757017,16.76870114,1075.272495
0.9700,0.2058773316,16.76472485,1075.272624
0.9750,0.2043642862,16.76082828,1075.272789
0.9800,0.2027653695,16.75703701,1075.272988
0.9850,0.2010087794,16.75331405,1075.273231
0.9900,0.1990394336,16.74967725,1075.273526
0.9950,0.1968550838,16.74612125,1075.273875
1.0000,0.1944766166,16.74265492,1075.274278
1.0050,0.1918482472,16.73930738,1075.274745
1.0100,0.1889590462,16.73605172,1075.275275
1.0150,0.1858307855,16.73290003,1075.275865
1.0200,0.1824399373,16.72985182,1075.276519
1.0250,0.1788023842,16.72690615,1075.277232
1.0300,0.1749033237,16.7240863,1075.278008
1.0350,0.1707976209,16.72143006,1075.278841
1.0400,0.1664660735,16.71892025,1075.279731
1.0450,0.1619157967,16.71656282,1075.280676
1.0500,0.1571749916,16.71436294,1075.28167
1.0550,0.1521718792,16.71230497,1075.282725
1.0600,0.1469362779,16.71040721,1075.283836
1.0650,0.1414537912,16.70866969,1075.285004
1.0700,0.1357511561,16.70705817,1075.286226
1.0750,0.1297794915,16.7055734,1075.287506
1.0800,0.1235828405,16.70415951,1075.288836
1.0850,0.1171105333,16.70286081,1075.290227
1.0900,0.1103713743,16.70163999,1075.291677
1.0950,0.1033671603,16.7005092,1075.293187
1.1000,0.0961046994,16.69944802,1075.294758
1.1050,0.08863265401,16.6983778,1075.296376
1.1100,0.08099990929,16.69729947,1075.29803
1.1150,0.07321751946,16.69617119,1075.299721
1.1200,0.0653301317,16.69499294,1075.301442
1.1250,0.05737654464,16.69374011,1075.303186
1.1300,0.04943545829,16.69241253,1075.304943
1.1350,0.04148892273,16.69098239,1075.306716
1.1400,0.03362396625,16.68938527,1075.308486
1.1450,0.0258487927,16.68763559,1075.310259
1.1500,0.0181854058,16.68573886,1075.312036
1.1550,0.01062575564,16.68367384,1075.313817
1.1600,0.003251712889,16.68141212,1075.315593
1.1650,-0.00397099701,16.67893891,1075.317369
1.1700,-0.0110034129,16.67625055,1075.319145
1.1750,-0.01788725853,16.67336271,1075.320934
1.1800,-0.02459947917,16.67024849,1075.322738
1.1850,-0.03112375554,16.6668834,1075.324557
1.1900,-0.0374274977,16.66329663,1075.326394
1.1950,-0.04350336162,16.65946826,1075.328253
1.2000,-0.04934663529,16.65540905,1075.330143
1.2050,-0.05492316076,16.65108947,1075.332062
1.2100,-0.06031672014,16.6465124,1075.334034
1.2150,-0.06542165908,16.64163505,1075.336044
1.2200,-0.07025396703,16.63650773,1075.338106
1.2250,-0.07477693221,16.63109143,1075.340218
1.2300,-0.07899228665,16.62539114,1075.342391
1.2350,-0.08287608138,16.61940981,1075.344628
1.2400,-0.08638017232,16.61317293,1075.346929
1.2450,-0.08953598757,16.60666542,1075.349313
1.2500,-0.09237733681,16.59992816,1075.351795
1.2550,-0.09489157911,16.59293728,1075.35438
1.2600,-0.09706179604,16.58578722,1075.357081
1.2650,-0.09895768683,16.57848253,1075.359916
1.2700,-0.1006613634,16.57107584,1075.362913
1.2750,-0.1022009483,16.56361546,1075.366086
1.2800,-0.1036259037,16.55609508,1075.369447
1.2850,-0.1050629024,16.54861695,1075.373031
1.2900,-0.1065505817,16.54115863,1075.376847
1.2950,-0.1082447126,16.53381351,1075.38093
1.3000,-0.1102405273,16.52658007,1075.385295
1.3050,-0.112613659,16.51951058,1075.389962
1.3100,-0.1154365278,16.51262654,1075.394941
1.3150,-0.1188110507,16.50598447,1075.400251
1.3200,-0.1227912423,16.49961601,1075.405907
1.3250,-0.1274577828,16.49353508,1075.411922
1.3300,-0.1328302432,16.48774527,1075.418298
1.3350,-0.1390026818,16.48226855,1075.425049
1.3400,-0.1459872383,16.47714515,1075.432184
1.3450,-0.1537932802,16.47238351,1075.439697
1.3500,-0.16246014,16.46801464,1075.447598
1.3550,-0.1719587535,16.46401864,1075.455883
1.3600,-0.1822664385,16.46044183,1075.464551
1.3650,-0.193423564,16.45724171,1075.473602
1.3700,-0.205441393,16.45447271,1075.483038
1.3750,-0.2182966368,16.45216028,1075.492856
1.3800,-0.2319924478,16.4503225,1075.503052
1.3850,-0.2465373416,16.44893727,1075.513623
1.3900,-0.2618746012,16.44804332,1075.524565
1.3950,-0.2780064671,16.44760352,1075.53587
1.4000,-0.2949536281,16.44762635,1075.547546
1.4050,-0.3127501967,16.44818965,1075.559601
1.4100,-0.331389153,16.44926114,1075.572028
1.4150,-0.3509483789,16.45084949,1075.58484
1.4200,-0.3713601763,16.45294924,1075.598024
1.4250,-0.3926836441,16.45559336,1075.611586
1.4300,-0.4149109575,16.45876305,1075.625522
1.4350,-0.4379919463,16.46244041,1075.639827
1.4400,-0.4619293148,16.46666744,1075.654499
1.4450,-0.4866839651,16.47138946,1075.669527
1.4500,-0.5122305356,16.47659136,1075.684901
1.4550,-0.5384820957,16.48226546,1075.70061
1.4600,-0.5654228916,16.48839018,1075.716641
1.4650,-0.5929536349,16.49496328,1075.73299
1.4700,-0.6210241654,16.50200244,1075.749639
1.4750,-0.6495441456,16.50945267,1075.766579
1.4800,-0.67844839,16.51727555,1075.783791
1.4850,-0.7076841162,16.52548984,1075.801267
1.4900,-0.7371645702,16.53405153,1075.818992
1.4950,-0.7668474769,16.54298116,1075.836959
1.5000,-0.7966311855,16.5522097,1075.855143
1.5050,-0.8264962551,16.56175006,1075.873548
1.5100,-0.8563665466,16.57162867,1075.892159
1.5150,-0.8862215986,16.58182552,1075.910958
1.5200,-0.9159881972,16.5923335,1075.929945
1.5250,-0.9456395327,16.60316209,1075.949105
1.5300,-0.9751116744,16.61430743,1075.968422
1.5350,-1.004401652,16.62574582,1075.987892
1.5400,-1.033476709,16.63748053,1076.007514
1.5450,-1.062298921,16.64952745,1076.027272
1.5500,-1.090808027,16.66182797,1076.04715
1.5550,-1.118991869,16.6743865,1076.067149
1.5600,-1.146859802,16.68712592,1076.087261
1.5650,-1.174376167,16.70007648,1076.107477
1.5700,-1.201554659,16.7131475,1076.127794
1.5750,-1.228357412,16.72632583,1076.148204
1.5800,-1.254797826,16.73959857,1076.168711
1.5850,-1.280826597,16.75292538,1076.189296
1.5900,-1.306482333,16.76629552,1076.209963
1.5950,-1.331675978,16.77964806,1076.230691
1.6000,-1.356392178,16.79300376,1076.251476
1.6050,-1.380603163,16.80628602,1076.272305
1.6100,-1.404369572,16.81952049,1076.293193
1.6150,-1.427642346,16.83268904,1076.31413
1.6200,-1.450387382,16.84575112,1076.335097
1.6250,-1.472632828,16.8587314,1076.356106
1.6300,-1.494326465,16.87159441,1076.377147
1.6350,-1.515490241,16.8843258,1076.398217
1.6400,-1.536131506,16.89690772,1076.419299
1.6450,-1.556261784,16.90932613,1076.440405
1.6500,-1.575894561,16.92154791,1076.461529
1.6550,-1.595053184,16.93361397,1076.482672
1.6600,-1.613776648,16.94542293,1076.503828
1.6650,-1.632040526,16.95703521,1076.525004
1.6700,-1.64992333,16.96839237,1076.546206
1.6750,-1.667394693,16.9794553,1076.567428
1.6800,-1.684505447,16.9902056,1076.588672
1.6850,-1.7012581,17.00065829,1076.609945
1.6900,-1.717661657,17.01079517,1076.631231
1.6950,-1.73376461,17.02063257,1076.652554
1.7000,-1.74954285,17.03015583,1076.673895
1.7050,-1.764982134,17.03934406,1076.695251
1.7100,-1.78014526,17.04822052,1076.716635
1.7150,-1.794982142,17.05682547,1076.738033
1.7200,-1.809541443,17.06514929,1076.759446
1.7250,-1.823807646,17.073196,1076.780873
1.7300,-1.837799255,17.08098093,1076.802315
1.7350,-1.851503105,17.08851722,1076.823767
1.7400,-1.864935167,17.09581623,1076.845226
1.7450,-1.878087142,17.10292604,1076.866692
1.7500,-1.890964257,17.10988978,1076.888171
1.7550,-1.903582379,17.11665722,1076.909663
1.7600,-1.91595343,17.1232536,1076.931176
1.7650,-1.928129647,17.1296922,1076.95271
1.7700,-1.940131804,17.13591837,1076.974273
1.7750,-1.951949049,17.14190026,1076.99585
1.7800,-1.963670755,17.14766842,1077.017461
1.7850,-1.975345407,17.15318851,1077.039116
1.7900,-1.987014941,17.15837139,1077.060809
1.7950,-1.998699721,17.16323405,1077.082542
1.8000,-2.010464682,17.1678039,1077.104324
1.8050,-2.022303661,17.17205557,1077.126135
1.8100,-2.034210407,17.1759608,1077.147968
1.8150,-2.046189795,17.17954917,1077.169836
1.8200,-2.058273849,17.18280934,1077.191737
1.8250,-2.070407076,17.18576455,1077.213655
1.8300,-2.082612031,17.18846318,1077.235603
1.8350,-2.094842579,17.1909103,1077.257563
1.8400,-2.10710291,17.19314594,1077.279541
1.8450,-2.119366185,17.1951974,1077.301533
1.8500,-2.131629009,17.19711903,1077.323529
1.8550,-2.143859901,17.19891212,1077.345532
1.8600,-2.156060463,17.20066575,1077.367544
1.8650,-2.168179394,17.20237775,1077.389561
1.8700,-2.180135194,17.20412947,1077.411568
1.8750,-2.19193398,17.20590944,1077.433559
1.8800,-2.203563009,17.20776428,1077.455533
1.8850,-2.214985858,17.20967084,1077.477484
1.8900,-2.226179527,17.2116614,1077.499409
1.8950,-2.23715359,17.21374965,1077.521309
1.9000,-2.247957333,17.21590239,1077.543197
1.9050,-2.258553298,17.21815503,1077.565058
1.9100,-2.26891187,17.22049495,1077.586876
1.9150,-2.279054585,17.22289342,1077.60866
1.9200,-2.289036084,17.22537978,1077.630419
1.9250,-2.298807116,17.22789616,1077.652126
1.9300,-2.308359591,17.23050094,1077.673783
1.9350,-2.31772246,17.23317459,1077.695399
1.9400,-2.326858034,17.23588941,1077.716974
1.9450,-2.335790109,17.23867908,1077.738505
1.9500,-2.344512718,17.24157768,1077.759995
1.9550,-2.353025584,17.24455867,1077.781447
1.9600,-2.361272723,17.24766774,1077.802859
1.9650,-2.369286808,17.25090489,1077.82423
1.9700,-2.376992771,17.25427808,1077.845559
1.9750,-2.384427929,17.25778412,1077.86685
1.9800,-2.391574985,17.26146195,1077.888107
1.9850,-2.398395806,17.26527159,1077.909338
1.9900,-2.404967931,17.26918711,1077.930565
1.9950,-2.411274623,17.27321738,1077.951773
2.0000,-2.417297379,17.27733707,1077.972977
2.0050,-2.423092367,17.28155328,1077.994184
2.0100,-2.428658848,17.28586134,1078.015392
2.0150,-2.433938211,17.2902437,1078.036587
2.0200,-2.43898123,17.2946868,1078.057792
2.0250,-2.443776313,17.29917365,1078.079002
2.0300,-2.448338953,17.30371807,1078.100219
2.0350,-2.452746315,17.30828324,1078.121464
2.0400,-2.456968865,17.31289978,1078.14272
2.0450,-2.461057337,17.31753788,1078.164004
2.0500,-2.46504445,17.32217858,1078.185308
2.0550,-2.468903243,17.32688334,1078.206631
2.0600,-2.472655789,17.33162128,1078.227973
2.0650,-2.476293653,17.33642343,1078.249335
2.0700,-2.479814082,17.34130963,1078.270718
2.0750,-2.483288895,17.34630116,1078.292138
2.0800,-2.486678499,17.35141757,1078.313571
2.0850,-2.490041835,17.35661445,1078.335037
2.0900,-2.493378973,17.36195019,1078.356525
2.0950,-2.496729309,17.36741977,1078.378044
2.1000,-2.500064593,17.37299958,1078.399587
2.1050,-2.503460283,17.3786574,1078.421178
2.1100,-2.506924931,17.38438891,1078.442816
2.1150,-2.51051192,17.39011858,1078.464502
2.1200,-2.514253526,17.39589227,1078.486245
2.1250,-2.51820767,17.40166552,1078.508053
2.1300,-2.522407808,17.40742446,1078.529932
2.1350,-2.526857756,17.41315388,1078.551889
2.1400,-2.531577706,17.41885939,1078.573924
2.1450,-2.536545581,17.42455512,1078.59604
2.1500,-2.541770127,17.43020978,1078.618238
2.1550,-2.547257288,17.4358607,1078.640522
2.1600,-2.552968966,17.44145422,1078.662879
2.1650,-2.558921588,17.44699845,1078.685317
2.1700,-2.565176143,17.45251452,1078.707842
2.1750,-2.571715281,17.45802176,1078.730458
2.1800,-2.578509374,17.46346626,1078.753149
2.1850,-2.585564654,17.46884893,1078.775911
2.1900,-2.592847761,17.47419524,1078.798753
2.1950,-2.600346939,17.47952495,1078.82168
2.2000,-2.608039966,17.48484401,1078.844689
2.2050,-2.615902207,17.49015172,1078.867771
2.2100,-2.623931515,17.49549245,1078.890941
2.2150,-2.63210552,17.50087125,1078.914196
2.2200,-2.640385088,17.50627519,1078.937536
2.2250,-2.648769389,17.51174544,1078.960964
2.2300,-2.657297489,17.51723953,1078.984494
2.2350,-2.665902974,17.52280713,1079.008123
2.2400,-2.674588403,17.52844819,1079.031858
2.2450,-2.683342657,17.53414791,1079.055699
2.2500,-2.692100201,17.53989079,1079.079647
2.2550,-2.700895476,17.54569374,1079.103715
2.2600,-2.70974081,17.55152774,1079.127915
2.2650,-2.718596838,17.55737841,1079.152237
2.2700,-2.727443666,17.56329125,1079.176689
2.2750,-2.736262132,17.56928137,1079.201281
2.2800,-2.745024393,17.5753247,1079.226016
2.2850,-2.753734203,17.58147358,1079.250891
2.2900,-2.762359017,17.58771472,1079.275898
2.2950,-2.770869508,17.59403416,1079.301038
2.3000,-2.779305058,17.60046071,1079.326308
2.3050,-2.787692505,17.60694418,1079.3517
2.3100,-2.79600415,17.61352217,1079.377209
2.3150,-2.804318694,17.62014137,1079.402861
2.3200,-2.812632471,17.62684662,1079.428641
2.3250,-2.820973755,17.63362988,1079.454549
2.3300,-2.829322755,17.64050549,1079.480585
2.3350,-2.837670618,17.64753868,1079.506734
2.3400,-2.846079673,17.65472381,1079.533025
2.3450,-2.854522066,17.66204557,1079.559438
2.3500,-2.86300807,17.66950638,1079.585967
2.3550,-2.87154626,17.67709874,1079.612608
2.3600,-2.880192825,17.68483121,1079.639369
2.3650,-2.888992733,17.69263632,1079.666244
2.3700,-2.897949433,17.70053711,1079.693231
2.3750,-2.907088146,17.70852911,1079.72033
2.3800,-2.916466633,17.71652593,1079.747558
2.3850,-2.926067256,17.72455315,1079.774906
2.3900,-2.935898831,17.73260042,1079.802368
2.3950,-2.94593273,17.74061461,1079.829931
2.4000,-2.956226809,17.7485992,1079.85761
2.4050,-2.966771148,17.75653238,1079.885394
2.4100,-2.977594043,17.76443359,1079.913283
2.4150,-2.988652742,17.77234429,1079.941279
2.4200,-2.999914751,17.7802142,1079.969366
2.4250,-3.011392089,17.7880596,1079.997542
2.4300,-3.02307965,17.79585258,1080.025796
2.4350,-3.035020925,17.8036086,1080.054126
2.4400,-3.047194405,17.81125495,1080.082522
2.4450,-3.059678706,17.81879057,1080.110985
2.4500,-3.072483914,17.82622882,1080.139524
2.4550,-3.085633279,17.833572,1080.16813
2.4600,-3.099101451,17.84082672,1080.196795
2.4650,-3.11291272,17.8480386,1080.225529
2.4700,-3.127002417,17.85521908,1080.254321
2.4750,-3.141351221,17.86238962,1080.283171
2.4800,-3.15592613,17.86959626,1080.312088
2.4850,-3.170725759,17.87687359,1080.34108
2.4900,-3.185740781,17.88419162,1080.370129
2.4950,-3.20094684,17.89148856,1080.399213
2.5000,-3.216290772,17.8987452,1080.428298
2.5050,-3.231799243,17.90592192,1080.457395
2.5100,-3.247503686,17.91298465,1080.4865
2.5150,-3.263390791,17.91986762,1080.515594
2.5200,-3.279464099,17.92657676,1080.544666
2.5250,-3.295733768,17.93309945,1080.57372
2.5300,-3.312149096,17.93945366,1080.602742
2.5350,-3.328668376,17.9456153,1080.631712
2.5400,-3.345287193,17.95161474,1080.660625
2.5450,-3.361988098,17.95741234,1080.689477
2.5500,-3.378848502,17.96299612,1080.718269
2.5550,-3.395759061,17.96842086,1080.74698
2.5600,-3.412727711,17.97371959,1080.775623
2.5650,-3.42973811,17.97892187,1080.804194
2.5700,-3.446799642,17.98401425,1080.832686
2.5750,-3.463870709,17.98898785,1080.861075
2.5800,-3.480970519,17.99384497,1080.889372
2.5850,-3.498083194,17.99859549,1080.91757
2.5900,-3.515214131,18.00322877,1080.945668
2.5950,-3.532350021,18.00780841,1080.973663
2.6000,-3.549460797,18.01234947,1081.001562
2.6050,-3.566451737,18.01687901,1081.029349
2.6100,-3.583325444,18.02138326,1081.057023
2.6150,-3.600051363,18.02588507,1081.084567
2.6200,-3.616605123,18.03034301,1081.111965
2.6250,-3.632951215,18.03476811,1081.139227
2.6300,-3.649116368,18.03913318,1081.166336
2.6350,-3.665075572,18.04340288,1081.193293
2.6400,-3.680785182,18.04755794,1081.220063
2.6450,-3.69630983,18.05158914,1081.246666
2.6500,-3.711591435,18.0554829,1081.273085
2.6550,-3.72671425,18.05922665,1081.29935
2.6600,-3.741614447,18.06282351,1081.325431
2.6650,-3.756326833,18.0663209,1081.351352
2.6700,-3.770846345,18.06963679,1081.377098
2.6750,-3.785096834,18.07280274,1081.402655
2.6800,-3.799094116,18.07584946,1081.42802
2.6850,-3.812803313,18.0787446,1081.453171
2.6900,-3.826257638,18.08149001,1081.478133
2.6950,-3.839485607,18.08411214,1081.502905
2.7000,-3.852494851,18.0865694,1081.527475
2.7050,-3.865276348,18.08893811,1081.551867
2.7100,-3.877812213,18.09115002,1081.576069
2.7150,-3.89013954,18.0932013,1081.60008
2.7200,-3.902246508,18.09511143,1081.623907
2.7250,-3.914117245,18.09687604,1081.647561
2.7300,-3.925723355,18.09851788,1081.671024
2.7350,-3.937077183,18.10003469,1081.694311
2.7400,-3.948166327,18.10144148,1081.71742
2.7450,-3.958960563,18.1028008,1081.740367
2.7500,-3.969496168,18.10409625,1081.763155
2.7550,-3.979737571,18.10535065,1081.785795
2.7600,-3.989667896,18.10660357,1081.808309
2.7650,-3.999293832,18.10781257,1081.830678
2.7700,-4.008628424,18.10895448,1081.85291
2.7750,-4.01766203,18.10997314,1081.874979
2.7800,-4.026474035,18.11087824,1081.896913
2.7850,-4.03504021,18.11162183,1081.918684
2.7900,-4.04338182,18.11226644,1081.940309
2.7950,-4.051564146,18.11277362,1081.961816
2.8000,-4.059589421,18.11319983,1081.983217
2.8050,-4.06749523,18.11360487,1082.004545
2.8100,-4.075209158,18.11399426,1082.025771
2.8150,-4.082743262,18.1144258,1082.046912
2.8200,-4.090128691,18.11489965,1082.067968
2.8250,-4.097349404,18.11541153,1082.088945
2.8300,-4.104431038,18.11596069,1082.109844
2.8350,-4.111422229,18.11652874,1082.130663
2.8400,-4.118332159,18.11711476,1082.151426
2.8450,-4.125114948,18.11775287,1082.17212
2.8500,-4.131783769,18.11842011,1082.192744
2.8550,-4.138376563,18.11907218,1082.213312
2.8600,-4.144921508,18.11968169,1082.233806
2.8650,-4.151421673,18.12022786,1082.254244
2.8700,-4.157838339,18.1207112,1082.274608
2.8750,-4.164204949,18.12113214,1082.294925
2.8800,-4.170523554,18.12150689,1082.315191
2.8850,-4.176815493,18.12179377,1082.335399
2.8900,-4.183048914,18.12203987,1082.355541
2.8950,-4.189201926,18.12222305,1082.375632
2.9000,-4.195306543,18.1223369,1082.39565
2.9050,-4.2013945,18.12242092,1082.415616
2.9100,-4.207470287,18.12244209,1082.435519
2.9150,-4.21359361,18.1223991,1082.455393
2.9200,-4.219700317,18.12235995,1082.475226
2.9250,-4.225823112,18.12230278,1082.495011
2.9300,-4.231941401,18.12223411,1082.514734
2.9350,-4.23809921,18.122178,1082.534414
2.9400,-4.244303111,18.12210328,1082.554041
2.9450,-4.250509288,18.12203387,1082.573606
2.9500,-4.256743754,18.12199277,1082.593123
2.9550,-4.262976399,18.12200218,1082.61258
2.9600,-4.269237145,18.12204416,1082.631984
2.9650,-4.275512324,18.1221247,1082.651331
2.9700,-4.281789436,18.12229434,1082.670605
2.9750,-4.288142297,18.12253214,1082.689837
2.9800,-4.294509175,18.12283053,1082.709008
2.9850,-4.300917729,18.12324952,1082.728128
2.9900,-4.307342682,18.12378247,1082.747196
2.9950,-4.313781293,18.12440858,1082.766206
3.0000,-4.32017328,18.12515789,1082.785147
3.0050,-4.326548355,18.12597813,1082.804007
3.0100,-4.332915803,18.12690845,1082.822785
3.0150,-4.339274127,18.12790465,1082.841479
3.0200,-4.345648946,18.12899082,1082.860093
3.0250,-4.352042025,18.13013967,1082.878617
3.0300,-4.358505268,18.13137145,1082.897076
3.0350,-4.364982051,18.13269343,1082.915463
3.0400,-4.371466497,18.13417939,1082.933777
3.0450,-4.377964551,18.13579007,1082.952009
3.0500,-4.384412368,18.13752562,1082.970138
3.0550,-4.390819918,18.13943234,1082.988168
3.0600,-4.397238542,18.14151164,1083.006123
3.0650,-4.403606459,18.14379105,1083.023979
3.0700,-4.409940303,18.14627361,1083.041746
3.0750,-4.416219484,18.14899294,1083.059442
3.0800,-4.422415333,18.15192471,1083.077045
3.0850,-4.428502549,18.15509153,1083.094557
3.0900,-4.434483899,18.1584429,1083.111972
3.0950,-4.440325551,18.16202097,1083.129277
3.1000,-4.446034,18.1657743,1083.146472
3.1050,-4.451545361,18.16966572,1083.163506
3.1100,-4.4568737,18.17366016,1083.180387
3.1150,-4.462034275,18.17772148,1083.197121
3.1200,-4.466977863,18.18183985,1083.213689
3.1250,-4.471698959,18.18600474,1083.230086
3.1300,-4.476214981,18.19019392,1083.246307
3.1350,-4.480474944,18.19441585,1083.262344
3.1400,-4.484480179,18.19863495,1083.278189
3.1450,-4.488270853,18.20286248,1083.293848
3.1500,-4.491792057,18.20712482,1083.309323
3.1550,-4.495044224,18.21136274,1083.324587
3.1600,-4.498040099,18.21559046,1083.339659
3.1650,-4.500788327,18.2197932,1083.354521
3.1700,-4.503313036,18.2239351,1083.369188
3.1750,-4.505603732,18.22799876,1083.383647
3.1800,-4.507663693,18.23199926,1083.397903
3.1850,-4.509489605,18.23596482,1083.411976
3.1900,-4.511121496,18.23982597,1083.425868
3.1950,-4.512597497,18.24355149,1083.439571
3.2000,-4.513901205,18.24714895,1083.453099
3.2050,-4.515019138,18.25062016,1083.46645
3.2100,-4.515950438,18.25392976,1083.479619
3.2150,-4.516685664,18.25707234,1083.492583
3.2200,-4.517240307,18.26000795,1083.505348
3.2250,-4.517671684,18.26274538,1083.517926
3.2300,-4.517990291,18.26524839,1083.530336
3.2350,-4.518171386,18.2675282,1083.542567
3.2400,-4.51826113,18.26955629,1083.554631
3.2450,-4.518241439,18.27137962,1083.566527
3.2500,-4.518136329,18.27295574,1083.578251
3.2550,-4.517953301,18.27427665,1083.589804
3.2600,-4.517680347,18.27539984,1083.601199
3.2650,-4.517320229,18.27630091,1083.612424
3.2700,-4.51692469,18.27698564,1083.62352
3.2750,-4.516463037,18.2774439,1083.634469
3.2800,-4.515980816,18.27774395,1083.645302
3.2850,-4.515508906,18.27782357,1083.656015
3.2900,-4.515080497,18.27773189,1083.666634
3.2950,-4.514724488,18.2775022,1083.67719
3.3000,-4.514468621,18.27715422,1083.687685
3.3050,-4.514314819,18.27671025,1083.698134
3.3100,-4.514252831,18.27620773,1083.708558
3.3150,-4.514290793,18.27575042,1083.718982
3.3200,-4.514408847,18.2753034,1083.72939
3.3250,-4.514588233,18.27496716,1083.739811
3.3300,-4.51482071,18.27473007,1083.750239
3.3350,-4.515141336,18.27463251,1083.760685
3.3400,-4.515599977,18.27467095,1083.771177
3.3450,-4.5161524,18.27483946,1083.781703
3.3500,-4.516791441,18.27517666,1083.792267
3.3550,-4.517519046,18.27567555,1083.802877
3.3600,-4.518279117,18.27633866,1083.813492
3.3650,-4.519081699,18.27715316,1083.824138
3.3700,-4.519893124,18.27810908,1083.834782
3.3750,-4.52072727,18.27922503,1083.845429
3.3800,-4.521555138,18.28049023,1083.856067
3.3850,-4.522373733,18.28191428,1083.866689
3.3900,-4.523172088,18.28344955,1083.877281
3.3950,-4.52392563,18.28513347,1083.887835
3.4000,-4.524599316,18.28693695,1083.898327
3.4050,-4.525238829,18.28883032,1083.908765
3.4100,-4.525810934,18.29081023,1083.919132
3.4150,-4.526317026,18.29287089,1083.92941
3.4200,-4.526764042,18.29499164,1083.939587
3.4250,-4.527182103,18.29710498,1083.949654
3.4300,-4.527547649,18.29921638,1083.959608
3.4350,-4.527912578,18.30125905,1083.969439
3.4400,-4.528242571,18.30326401,1083.979131
3.4450,-4.528522662,18.30518814,1083.988671
3.4500,-4.5287413,18.30701777,1083.998031
3.4550,-4.528918069,18.30878293,1084.007232
3.4600,-4.52903137,18.31045424,1084.016255
3.4650,-4.529058375,18.31201014,1084.025077
3.4700,-4.529021964,18.31348672,1084.033722
3.4750,-4.528942228,18.31487621,1084.042199
3.4800,-4.528793332,18.3161624,1084.050483
3.4850,-4.528555448,18.31734034,1084.058568
3.4900,-4.528206551,18.31847199,1084.066455
3.4950,-4.527743967,18.3195313,1084.074149
3.5000,-4.527148596,18.32048552,1084.081627
3.5050,-4.5264603,18.32130544,1084.088906
3.5100,-4.525661819,18.32204048,1084.096001
3.5150,-4.524758013,18.32267479,1084.102916
3.5200,-4.52377795,18.32321839,1084.109667
3.5250,-4.522666167,18.32366425,1084.116246
3.5300,-4.521422422,18.32404051,1084.12265
3.5350,-4.520060302,18.32432466,1084.128887
3.5400,-4.518574336,18.32456276,1084.134979
3.5450,-4.516986911,18.32472453,1084.140947
3.5500,-4.515292833,18.32484956,1084.146807
3.5550,-4.513511365,18.32493649,1084.152571
3.5600,-4.511649404,18.32497988,1084.158254
3.5650,-4.509710461,18.32499076,1084.163859
3.5700,-4.507702537,18.32496695,1084.169404
3.5750,-4.5056443,18.32493264,1084.174909
3.5800,-4.50354541,18.32484172,1084.180373
3.5850,-4.501372042,18.3247353,1084.185817
3.5900,-4.49916531,18.32459764,1084.191252
3.5950,-4.496901914,18.32442899,1084.196676
3.6000,-4.494644312,18.32426262,1084.20214
3.6050,-4.492385531,18.32409311,1084.207638
3.6100,-4.490135163,18.32392977,1084.21318
3.6150,-4.487919285,18.32373175,1084.218777
3.6200,-4.485739909,18.3235415,1084.224447
3.6250,-4.483647154,18.32335016,1084.230198
3.6300,-4.481622184,18.32319673,1084.236058
3.6350,-4.479693655,18.32307118,1084.242028
3.6400,-4.477819084,18.32295806,1084.248088
3.6450,-4.476040261,18.32289301,1084.254254
3.6500,-4.474368251,18.32289967,1084.260537
3.6550,-4.472846515,18.3228945,1084.266934
3.6600,-4.471485927,18.32290621,1084.273456
3.6650,-4.470284792,18.32291202,1084.280083
3.6700,-4.46928632,18.3228969,1084.286827
3.6750,-4.468458443,18.32288464,1084.29368
3.6800,-4.467825572,18.32288721,1084.300642
3.6850,-4.467399805,18.32288134,1084.307716
3.6900,-4.467160945,18.32289459,1084.314878
3.6950,-4.467081679,18.32291476,1084.32212
3.7000,-4.467219841,18.32293504,1084.329451
3.7050,-4.467513334,18.32298361,1084.336848
3.7100,-4.468004575,18.32307616,1084.344326
3.7150,-4.468642965,18.32321079,1084.351851
3.7200,-4.469459977,18.32335758,1084.359437
3.7250,-4.470409129,18.32361014,1084.367063
3.7300,-4.471472724,18.32389798,1084.374701
3.7350,-4.472641411,18.32429207,1084.382359
3.7400,-4.473922357,18.32476508,1084.390019
3.7450,-4.475278709,18.3253329,1084.397668
3.7500,-4.476747808,18.32599798,1084.405326
3.7550,-4.47826156,18.32677671,1084.412945
3.7600,-4.47979982,18.32769114,1084.420522
3.7650,-4.48135943,18.3287698,1084.428058
3.7700,-4.482951371,18.32998094,1084.435548
3.7750,-4.484557302,18.33140432,1084.442996
3.7800,-4.486165266,18.33297563,1084.450391
3.7850,-4.487770723,18.33467263,1084.457708
3.7900,-4.489349174,18.33649013,1084.464945
3.7950,-4.490900737,18.33847651,1084.472107
3.8000,-4.492429721,18.3405721,1084.479184
3.8050,-4.493930032,18.34280917,1084.486177
3.8100,-4.495401198,18.34515009,1084.493067
3.8150,-4.496830836,18.34760577,1084.499854
3.8200,-4.49825256,18.35014554,1084.506559
3.8250,-4.499629128,18.35275878,1084.513155
3.8300,-4.500992542,18.35543633,1084.51966
3.8350,-4.502325707,18.35819085,1084.526068
3.8400,-4.503598731,18.36100341,1084.532364
3.8450,-4.504813955,18.36385802,1084.53854
3.8500,-4.505983601,18.36675251,1084.544615
3.8550,-4.507107489,18.36964882,1084.550574
3.8600,-4.508213682,18.37253701,1084.556435
3.8650,-4.509304439,18.37542797,1084.562196
3.8700,-4.510377678,18.37831834,1084.56786
3.8750,-4.511429523,18.38120592,1084.573423
3.8800,-4.512497424,18.38409725,1084.578909
3.8850,-4.513617981,18.38699771,1084.584334
3.8900,-4.51473037,18.38989797,1084.589661
3.8950,-4.515884444,18.39280186,1084.594918
3.9000,-4.517083919,18.39565257,1084.60009
3.9050,-4.518326869,18.39846232,1084.605189
3.9100,-4.519651018,18.4012107,1084.610215
3.9150,-4.521045456,18.40392559,1084.615176
3.9200,-4.522526616,18.4065957,1084.620065
3.9250,-4.524095245,18.40921323,1084.624895
3.9300,-4.525730848,18.41177031,1084.629629
3.9350,-4.527432797,18.41430337,1084.634289
3.9400,-4.529205345,18.4168196,1084.638871
3.9450,-4.531067493,18.41927362,1084.643378
3.9500,-4.533027831,18.42166509,1084.647798
3.9550,-4.535009428,18.42407255,1084.652117
3.9600,-4.537041879,18.42645956,1084.656339
3.9650,-4.539123476,18.42884493,1084.660462
3.9700,-4.541187667,18.43127969,1084.664459
3.9750,-4.543235176,18.43370201,1084.668306
3.9800,-4.545267252,18.43612366,1084.672003
3.9850,-4.54725416,18.43855972,1084.675536
3.9900,-4.549198858,18.44100684,1084.678901
3.9950,-4.551129974,18.44345239,1084.682101
4.0000,-4.553006019,18.44593599,1084.685118
4.0050,-4.554857572,18.44842361,1084.687959
4.0100,-4.55667056,18.45092369,1084.690608
4.0150,-4.558430107,18.45340427,1084.69305
4.0200,-4.560113747,18.45590273,1084.69528
4.0250,-4.561746205,18.45836925,1084.697307
4.0300,-4.56334394,18.46083379,1084.699134
4.0350,-4.56488046,18.4632947,1084.700749
4.0400,-4.566366533,18.46570272,1084.702142
4.0450,-4.567803729,18.4680639,1084.703322
4.0500,-4.569198743,18.47036005,1084.704274
4.0550,-4.57054968,18.47259935,1084.705021
4.0600,-4.571879377,18.47476254,1084.705566
4.0650,-4.573160458,18.47682414,1084.705901
4.0700,-4.574411889,18.47878551,1084.70603
4.0750,-4.575624769,18.48060064,1084.705937
4.0800,-4.576816835,18.48230917,1084.705645
4.0850,-4.577990525,18.48389552,1084.705152
4.0900,-4.579177874,18.4853357,1084.704467
4.0950,-4.580360214,18.486602,1084.703592
4.1000,-4.581562183,18.48776683,1084.702556
4.1050,-4.582778562,18.48876856,1084.70135
4.1100,-4.584029723,18.48962691,1084.699985
4.1150,-4.585293737,18.49036541,1084.69847
4.1200,-4.586553775,18.4909859,1084.69679
4.1250,-4.587836916,18.49147484,1084.694962
4.1300,-4.589140936,18.49185706,1084.693004
4.1350,-4.590485274,18.4920671,1084.690907
4.1400,-4.591884781,18.49213668,1084.688677
4.1450,-4.593356047,18.49205378,1084.686326
4.1500,-4.594902081,18.49182981,1084.683846
4.1550,-4.596486464,18.49153156,1084.681246
4.1600,-4.598106036,18.49111479,1084.678501
4.1650,-4.599753121,18.49059126,1084.675633
4.1700,-4.601390857,18.48997028,1084.672621
4.1750,-4.603064932,18.48926773,1084.669472
4.1800,-4.604757544,18.48846607,1084.666171
4.1850,-4.606441925,18.48758324,1084.662709
4.1900,-4.608189695,18.48659316,1084.65912
4.1950,-4.609939026,18.48553271,1084.655383
4.2000,-4.611692313,18.48440259,1084.651498
4.2050,-4.613453693,18.4832227,1084.64747
4.2100,-4.615183357,18.4820072,1084.643284
4.2150,-4.616911429,18.48072628,1084.638943
4.2200,-4.61865448,18.47939228,1084.634479
4.2250,-4.620375003,18.47802588,1084.62986
4.2300,-4.622105522,18.47663026,1084.625122
4.2350,-4.623850902,18.47516896,1084.620255
4.2400,-4.625617141,18.47365796,1084.615273
4.2450,-4.627380731,18.47214727,1084.610175
4.2500,-4.629123038,18.47068074,1084.604982
4.2550,-4.630891788,18.46919736,1084.599689
4.2600,-4.632660179,18.46774649,1084.594304
4.2650,-4.634411454,18.46632715,1084.588825
4.2700,-4.63620015,18.46492289,1084.583283
4.2750,-4.6380239,18.46354362,1084.577676
4.2800,-4.639863366,18.46220496,1084.572013
4.2850,-4.641770291,18.46085875,1084.566292
4.2900,-4.643709115,18.45954318,1084.560524
4.2950,-4.645673568,18.45824124,1084.554694
4.3000,-4.647654932,18.45697134,1084.548811
4.3050,-4.649670409,18.45573461,1084.542883
4.3100,-4.65168997,18.45451254,1084.536898
4.3150,-4.653750933,18.45332569,1084.530877
4.3200,-4.655866053,18.45218886,1084.524836
4.3250,-4.658014938,18.45108676,1084.518756
4.3300,-4.66024036,18.45003808,1084.512662
4.3350,-4.662527894,18.44899349,1084.506545
4.3400,-4.664922273,18.44800433,1084.50044
4.3450,-4.667409393,18.44708215,1084.494345
4.3500,-4.669968395,18.44619149,1084.488243
4.3550,-4.672636263,18.44531724,1084.482143
4.3600,-4.675360869,18.44446719,1084.476032
4.3650,-4.678190895,18.44364845,1084.469938
4.3700,-4.681068572,18.44287732,1084.463837
4.3750,-4.684029225,18.44214316,1084.457742
4.3800,-4.687050214,18.44147145,1084.451648
4.3850,-4.690136176,18.44085394,1084.445559
4.3900,-4.693275274,18.44030427,1084.439473
4.3950,-4.696475847,18.43981253,1084.433374
4.4000,-4.69972925,18.43937222,1084.427264
4.4050,-4.703036298,18.4389541,1084.421123
4.4100,-4.706402839,18.43856927,1084.414957
4.4150,-4.709755988,18.43818982,1084.408723
4.4200,-4.713126835,18.43779721,1084.402416
4.4250,-4.716515077,18.43743113,1084.396052
4.4300,-4.71989772,18.43702545,1084.389588
4.4350,-4.72325975,18.43662661,1084.383026
4.4400,-4.726601309,18.43624303,1084.37637
4.4450,-4.729903307,18.43588427,1084.36961
4.4500,-4.7331618,18.43554208,1084.362738
4.4550,-4.736385299,18.43518145,1084.355747
4.4600,-4.739588614,18.43479033,1084.34864
4.4650,-4.74271061,18.4344184,1084.341381
4.4700,-4.745808934,18.43400668,1084.333981
4.4750,-4.748865915,18.43356485,1084.326442
4.4800,-4.751830282,18.43305962,1084.318719
4.4850,-4.754727905,18.43251269,1084.310828
4.4900,-4.757529089,18.43188169,1084.302743
4.4950,-4.76027923,18.431131,1084.294485
4.5000,-4.7629561,18.43029351,1084.286054
4.5050,-4.765570064,18.42934388,1084.277435
4.5100,-4.768148542,18.42825078,1084.268638
4.5150,-4.770662878,18.42703885,1084.259666
4.5200,-4.773112053,18.42572041,1084.250505
4.5250,-4.775522448,18.42426732,1084.24118
4.5300,-4.777879143,18.42265579,1084.23167
4.5350,-4.780187962,18.420931,1084.221993
4.5400,-4.782440377,18.41905322,1084.212145
4.5450,-4.784665768,18.41701386,1084.202144
4.5500,-4.786836465,18.4147915,1084.191968
4.5550,-4.788983899,18.41238407,1084.181644
4.5600,-4.791117339,18.40983653,1084.171194
4.5650,-4.793231197,18.40713589,1084.160603
4.5700,-4.795287558,18.40426098,1084.149868
4.5750,-4.797311576,18.40127889,1084.139017
4.5800,-4.799299995,18.39816838,1084.128053
4.5850,-4.801225195,18.39496371,1084.116985
4.5900,-4.803113472,18.39163873,1084.10581
4.5950,-4.805002503,18.38821108,1084.094546
4.6000,-4.806877842,18.38466881,1084.083201
4.6050,-4.808711707,18.38104941,1084.071778
4.6100,-4.810569912,18.37736104,1084.0603
4.6150,-4.812432691,18.3736079,1084.048765
4.6200,-4.814282794,18.36980207,1084.037165
4.6250,-4.816128723,18.36595845,1084.02551
4.6300,-4.817931329,18.36208002,1084.013795
4.6350,-4.819717666,18.35820456,1084.002036
4.6400,-4.821458103,18.35434662,1083.99023
4.6450,-4.823175476,18.35047641,1083.978381
4.6500,-4.824867538,18.34668149,1083.966504
4.6550,-4.82654606,18.34293712,1083.954593
4.6600,-4.828209839,18.33929019,1083.942662
4.6650,-4.829830739,18.3357478,1083.930694
4.6700,-4.831409778,18.33233661,1083.918696
4.6750,-4.83291082,18.32904079,1083.906639
4.6800,-4.834380225,18.32585928,1083.894548
4.6850,-4.835822208,18.32279508,1083.882411
4.6900,-4.83723271,18.31986834,1083.870244
4.6950,-4.838622815,18.31706163,1083.858033
4.7000,-4.839937412,18.31435553,1083.845748
4.7050,-4.841227492,18.31178782,1083.83342
4.7100,-4.842462246,18.30932244,1083.821021
4.7150,-4.84373863,18.30697376,1083.80859
4.7200,-4.845015875,18.30473234,1083.796109
4.7250,-4.84628678,18.3025975,1083.783567
4.7300,-4.84753773,18.30058663,1083.770954
4.7350,-4.84878157,18.29870447,1083.758278
4.7400,-4.849979915,18.29692801,1083.74551
4.7450,-4.851099825,18.29526708,1083.732628
4.7500,-4.852121944,18.29371672,1083.719637
4.7550,-4.853045269,18.29226577,1083.706507
4.7600,-4.85386591,18.29097233,1083.693258
4.7650,-4.854599529,18.28974897,1083.679879
4.7700,-4.855237485,18.28868062,1083.666372
4.7750,-4.85573869,18.28773674,1083.652721
4.7800,-4.856118008,18.28693892,1083.638941
4.7850,-4.856346074,18.2862384,1083.625
4.7900,-4.856388682,18.28571847,1083.610906
4.7950,-4.856243895,18.28534498,1083.596628
4.8000,-4.855919778,18.28509574,1083.58217
4.8050,-4.855378305,18.28495478,1083.567513
4.8100,-4.854623241,18.28489215,1083.552655
4.8150,-4.853644394,18.28488704,1083.537572
4.8200,-4.852453766,18.28489031,1083.522256
4.8250,-4.851075414,18.28491281,1083.506725
4.8300,-4.849529763,18.28493628,1083.490983
4.8350,-4.847819363,18.2849011,1083.475027
4.8400,-4.845924968,18.28479632,1083.458833
4.8450,-4.843839594,18.28460477,1083.442395
4.8500,-4.841631407,18.28428474,1083.425738
4.8550,-4.839251084,18.28389942,1083.408858
4.8600,-4.836721404,18.28335658,1083.391734
4.8650,-4.834066475,18.28269224,1083.374405
4.8700,-4.831263874,18.28196929,1083.356866
4.8750,-4.82832364,18.28112713,1083.33911
4.8800,-4.825235732,18.2801745,1083.321135
4.8850,-4.822033302,18.2791159,1083.302948
4.8900,-4.818689348,18.27794651,1083.284546
4.8950,-4.815193212,18.2766569,1083.265932
4.9000,-4.811633855,18.27525586,1083.247132
4.9050,-4.807981169,18.2737623,1083.228134
4.9100,-4.804216303,18.27215341,1083.208945
4.9150,-4.800386791,18.27044579,1083.18959
4.9200,-4.796508196,18.2686511,1083.170078
4.9250,-4.792616793,18.26676541,1083.150418
4.9300,-4.788731317,18.26478761,1083.130623
4.9350,-4.784876622,18.26271256,1083.110699
4.9400,-4.781051193,18.2605379,1083.090667
4.9450,-4.777272589,18.2582923,1083.070527
4.9500,-4.773547635,18.25592475,1083.050295
4.9550,-4.769870893,18.25347796,1083.02999
4.9600,-4.766289541,18.25092452,1083.009607
4.9650,-4.762866693,18.24824279,1082.989188
4.9700,-4.759603746,18.24541989,1082.968731
4.9750,-4.756527674,18.24245473,1082.948272
4.9800,-4.753627296,18.23935733,1082.927805
4.9850,-4.750894322,18.23614038,1082.907355
4.9900,-4.748340659,18.23277778,1082.886899
4.9950,-4.745966105,18.22930144,1082.866457
5.0000,-4.743804983,18.225724,1082.846055
5.0050,-4.741818271,18.22206763,1082.825676
5.0100,-4.739969838,18.21838116,1082.805336
5.0150,-4.738223684,18.21464426,1082.785012
5.0200,-4.736545448,18.21094944,1082.764705
5.0250,-4.734948957,18.20723541,1082.744411
5.0300,-4.733393948,18.20352948,1082.724119
5.0350,-4.731862327,18.19981698,1082.703819
5.0400,-4.730365919,18.19609513,1082.683516
5.0450,-4.72890896,18.19237942,1082.663218
5.0500,-4.727519232,18.18863461,1082.642911
5.0550,-4.726159598,18.18490412,1082.622605
5.0600,-4.72476188,18.18116305,1082.602252
5.0650,-4.723339881,18.17745218,1082.581863
5.0700,-4.721831402,18.17378518,1082.561421
5.0750,-4.720247255,18.17017236,1082.540925
5.0800,-4.718565894,18.16663627,1082.520364
5.0850,-4.716799547,18.16318827,1082.49975
5.0900,-4.714975758,18.1597625,1082.479064
5.0950,-4.713064947,18.15638497,1082.458314
5.1000,-4.711017274,18.15304117,1082.437464
5.1050,-4.70886491,18.14974122,1082.416527
5.1100,-4.706603451,18.14651434,1082.395509
5.1150,-4.704251199,18.14335316,1082.374423
5.1200,-4.70181255,18.14024384,1082.353272
5.1250,-4.699228429,18.13716522,1082.332013
5.1300,-4.696513963,18.13415396,1082.310659
5.1350,-4.693640091,18.13122421,1082.289195
5.1400,-4.690628809,18.12838285,1082.26763
5.1450,-4.687506663,18.12565834,1082.245988
5.1500,-4.684173179,18.12306665,1082.224225
5.1550,-4.680675484,18.12054661,1082.202338
5.1600,-4.677033981,18.11813154,1082.180336
5.1650,-4.673244491,18.11577824,1082.158202
5.1700,-4.669328426,18.1134648,1082.135945
5.1750,-4.665282553,18.1111788,1082.113563
5.1800,-4.661141151,18.10890855,1082.09106
5.1850,-4.656851588,18.10668038,1082.068431
5.1900,-4.652458068,18.10449001,1082.045699
5.1950,-4.647925169,18.10236706,1082.022844
5.2000,-4.643241125,18.10033837,1081.999877
5.2050,-4.638408623,18.09836116,1081.97679
5.2100,-4.633444483,18.09648192,1081.953593
5.2150,-4.628297719,18.09468741,1081.930267
5.2200,-4.622983679,18.0929195,1081.906816
5.2250,-4.617512899,18.09122539,1081.883264
5.2300,-4.611877074,18.08959435,1081.859609
5.2350,-4.60608434,18.08802584,1081.835853
5.2400,-4.600125252,18.08647763,1081.811989
5.2450,-4.594043694,18.08489633,1081.788027
5.2500,-4.58780781,18.08334967,1081.763968
5.2550,-4.581445493,18.08178227,1081.739811
5.2600,-4.574959988,18.0801747,1081.715576
5.2650,-4.5683313,18.07853523,1081.691238
5.2700,-4.561572058,18.07682068,1081.666799
5.2750,-4.554670788,18.07505947,1081.642251
5.2800,-4.547591198,18.07323002,1081.617602
5.2850,-4.54037018,18.07135888,1081.592855
5.2900,-4.533016556,18.06943314,1081.568028
5.2950,-4.525502023,18.06746487,1081.543117
5.3000,-4.517834878,18.06546972,1081.518128
5.3050,-4.509975535,18.06343213,1081.493043
5.3100,-4.501957555,18.06132618,1081.467849
5.3150,-4.493811321,18.05918733,1081.442563
5.3200,-4.485523153,18.05693134,1081.41718
5.3250,-4.477068839,18.05462529,1081.391695
5.3300,-4.468509664,18.05225025,1081.366113
5.3350,-4.459799227,18.04980343,1081.34042
5.3400,-4.450934373,18.04731184,1081.314617
5.3450,-4.441911698,18.0447816,1081.288695
5.3500,-4.432710832,18.04222366,1081.262655
5.3550,-4.423344522,18.03964266,1081.236488
5.3600,-4.413877211,18.03703872,1081.210226
5.3650,-4.404315548,18.03439265,1081.183856
5.3700,-4.394634565,18.03165307,1081.15736
5.3750,-4.384851772,18.02882072,1081.130758
5.3800,-4.374999979,18.0259248,1081.104056
5.3850,-4.365012169,18.02291499,1081.077224
5.3900,-4.35489974,18.01984287,1081.050285
5.3950,-4.344633802,18.01670277,1081.023207
5.4000,-4.334232941,18.01352322,1080.996013
5.4050,-4.323659091,18.01029365,1080.968696
5.4100,-4.312878258,18.00703313,1080.941237
5.4150,-4.301861481,18.00376093,1080.913616
5.4200,-4.290566275,18.00049233,1080.885836
5.4250,-4.279002962,17.99725753,1080.85792
5.4300,-4.267133028,17.99398241,1080.829836
5.4350,-4.254962684,17.99070382,1080.801585
5.4400,-4.242472109,17.98744435,1080.773178
5.4450,-4.229632955,17.98417502,1080.744595
5.4500,-4.216456652,17.98091341,1080.715839
5.4550,-4.202958478,17.97770576,1080.686928
5.4600,-4.189069196,17.97452204,1080.65785
5.4650,-4.174787017,17.97139211,1080.62861
5.4700,-4.160105992,17.96829703,1080.59919
5.4750,-4.145037263,17.96525793,1080.569608
5.4800,-4.129550312,17.96222223,1080.539847
5.4850,-4.113692658,17.95919334,1080.509928
5.4900,-4.097469376,17.95618631,1080.479854
5.4950,-4.080904647,17.9531697,1080.449645
5.5000,-4.063961861,17.95009097,1080.419298
5.5050,-4.046721619,17.94694349,1080.388831
5.5100,-4.029174927,17.94372116,1080.35826
5.5150,-4.011351571,17.9404128,1080.327586
5.5200,-3.993315942,17.9370123,1080.296836
5.5250,-3.975066243,17.93349417,1080.265997
5.5300,-3.956616746,17.92986228,1080.235077
5.5350,-3.937987172,17.92610539,1080.204099
5.5400,-3.919199841,17.92223254,1080.173052
5.5450,-3.90025039,17.91828149,1080.141958
5.5500,-3.881214033,17.91420091,1080.110835
5.5550,-3.862068564,17.91003893,1080.079682
5.5600,-3.842850985,17.90581403,1080.048525
5.5650,-3.8235757,17.90151865,1080.017371
5.5700,-3.804259448,17.89716368,1079.986225
5.5750,-3.784958168,17.89279271,1079.955124
5.5800,-3.765750398,17.88837969,1079.924071
5.5850,-3.746604088,17.88393161,1079.893066
5.5900,-3.727527575,17.87949436,1079.862125
5.5950,-3.708554421,17.87508262,1079.831255
5.6000,-3.689669534,17.87069889,1079.800445
5.6050,-3.670929829,17.86635651,1079.769735
5.6100,-3.652313343,17.86212021,1079.739141
5.6150,-3.63376804,17.85795062,1079.708644
5.6200,-3.615340182,17.85385713,1079.678259
5.6250,-3.597071451,17.84981018,1079.648003
5.6300,-3.578916664,17.84580893,1079.617884
5.6350,-3.560886453,17.84189212,1079.587921
5.6400,-3.542964144,17.83798587,1079.558103
5.6450,-3.525195389,17.83407341,1079.528454
5.6500,-3.507569037,17.83016197,1079.498966
5.6550,-3.490097344,17.82620097,1079.469643
5.6600,-3.472760036,17.8221668,1079.440479
5.6650,-3.455536386,17.81803731,1079.411471
5.6700,-3.438491883,17.81382832,1079.382634
5.6750,-3.421561019,17.80951539,1079.353938
5.6800,-3.40469789,17.80506504,1079.325389
5.6850,-3.387965281,17.80048965,1079.296995
5.6900,-3.371286712,17.79578497,1079.268738
5.6950,-3.354689505,17.79091594,1079.240626
5.7000,-3.338219822,17.78585943,1079.212655
5.7050,-3.321847268,17.78065483,1079.184829
5.7100,-3.305590683,17.77528721,1079.157158
5.7150,-3.289424302,17.76976404,1079.129636
5.7200,-3.273344134,17.76412483,1079.102251
5.7250,-3.257387894,17.75838649,1079.075016
5.7300,-3.241557784,17.75256116,1079.047932
5.7350,-3.225807318,17.74663989,1079.020991
5.7400,-3.210119006,17.7406707,1078.994211
5.7450,-3.194458263,17.73464183,1078.967574
5.7500,-3.178861994,17.7285695,1078.941095
5.7550,-3.163306037,17.72246665,1078.914764
5.7600,-3.147794638,17.71636174,1078.888579
5.7650,-3.132314335,17.71028549,1078.862536
5.7700,-3.116862727,17.70421673,1078.836638
5.7750,-3.101400244,17.6981492,1078.810862
5.7800,-3.085986241,17.69209262,1078.785223
5.7850,-3.070604453,17.68608913,1078.759706
5.7900,-3.055257817,17.68007503,1078.734311
5.7950,-3.039992637,17.67411078,1078.709046
5.8000,-3.024771632,17.66821777,1078.683885
5.8050,-3.009617136,17.66241042,1078.658849
5.8100,-2.994482823,17.6566657,1078.633909
5.8150,-2.979405437,17.65098668,1078.609093
5.8200,-2.964304671,17.64542383,1078.584374
5.8250,-2.949220268,17.63996116,1078.559773
5.8300,-2.934122977,17.63463822,1078.535279
5.8350,-2.919044149,17.62942321,1078.510885
5.8400,-2.903951909,17.62435,1078.48659
5.8450,-2.888893909,17.61940037,1078.462392
5.8500,-2.873808155,17.61460321,1078.438271
5.8550,-2.858750618,17.60991351,1078.414232
5.8600,-2.843718164,17.60533695,1078.390247
5.8650,-2.828744844,17.60083673,1078.366335
5.8700,-2.813824992,17.59643479,1078.342505
5.8750,-2.79894773,17.59202447,1078.318748
5.8800,-2.784086711,17.5876335,1078.295067
5.8850,-2.769286187,17.5832,1078.271466
5.8900,-2.75452513,17.57873581,1078.247939
5.8950,-2.739821234,17.57420259,1078.224496
5.9000,-2.725192847,17.56958927,1078.201147
5.9050,-2.710596236,17.56491922,1078.177874
5.9100,-2.696064753,17.56013027,1078.154678
5.9150,-2.681631349,17.55523201,1078.131562
5.9200,-2.667285462,17.55023973,1078.108522
5.9250,-2.652999963,17.54515673,1078.085548
5.9300,-2.638815642,17.53997077,1078.062647
5.9350,-2.624723212,17.53463691,1078.0398
5.9400,-2.610774287,17.52919832,1078.017041
5.9450,-2.59692183,17.52361824,1077.994347
5.9500,-2.583207447,17.51787923,1077.971728
5.9550,-2.569626507,17.51197586,1077.949186
5.9600,-2.556135289,17.50592749,1077.926704
5.9650,-2.542776314,17.49979543,1077.90431
5.9700,-2.529530121,17.49355777,1077.881992
5.9750,-2.516418527,17.4872439,1077.859755
5.9800,-2.503495324,17.48086234,1077.837602
5.9850,-2.490735626,17.47446673,1077.815532
5.9900,-2.478163668,17.46805325,1077.793537
5.9950,-2.465775396,17.46166921,1077.771632
6.0000,-2.453547,17.4553792,1077.749817
6.0050,-2.441510875,17.44914173,1077.728091
6.0100,-2.429625182,17.44299437,1077.706441
6.0150,-2.417901109,17.43691232,1077.684868
6.0200,-2.406317381,17.43092721,1077.663394
6.0250,-2.394845168,17.4249586,1077.641993
6.0300,-2.383487333,17.41907814,1077.620669
6.0350,-2.372254057,17.41329958,1077.599431
6.0400,-2.361102141,17.40760548,1077.578257
6.0450,-2.350051112,17.4020678,1077.557166
6.0500,-2.33905026,17.39665997,1077.536152
6.0550,-2.328054074,17.39140533,1077.51521
6.0600,-2.317092539,17.38633007,1077.494355
6.0650,-2.306149406,17.38141978,1077.473587
6.0700,-2.295245587,17.37666359,1077.452905
6.0750,-2.284399248,17.37210376,1077.432323
6.0800,-2.273558781,17.36774786,1077.411833
6.0850,-2.262775903,17.36356459,1077.391429
6.0900,-2.252053143,17.35960011,1077.37111
6.0950,-2.24133684,17.35581756,1077.350858
6.1000,-2.230720007,17.35219811,1077.330701
6.1050,-2.220150508,17.348755,1077.310607
6.1100,-2.209695915,17.34543811,1077.290584
6.1150,-2.199337528,17.34228154,1077.270631
6.1200,-2.189107692,17.33921166,1077.250746
6.1250,-2.178980236,17.33627187,1077.230929
6.1300,-2.169020876,17.33337602,1077.211177
6.1350,-2.159175402,17.33055087,1077.191485
6.1400,-2.149503092,17.32772651,1077.171862
6.1450,-2.1399333,17.32493028,1077.152313
6.1500,-2.130527706,17.32211624,1077.13284
6.1550,-2.121224385,17.31926497,1077.11343
6.1600,-2.112009387,17.31635867,1077.094092
6.1650,-2.102798475,17.31346401,1077.074824
6.1700,-2.093621551,17.31055091,1077.055621
6.1750,-2.084440043,17.30767599,1077.036486
6.1800,-2.075196358,17.3048405,1077.017411
6.1850,-2.065871248,17.30206727,1076.998403
6.1900,-2.056481458,17.29932009,1076.97946
6.1950,-2.046989088,17.29660267,1076.960578
6.2000,-2.037407236,17.29391803,1076.941757
6.2050,-2.027707456,17.29122799,1076.922986
6.2100,-2.017919145,17.28856614,1076.904281
6.2150,-2.0079794,17.28594235,1076.885645
6.2200,-1.997854995,17.28333432,1076.867065
6.2250,-1.987591744,17.2807582,1076.848554
6.2300,-1.977173818,17.27821532,1076.83011
6.2350,-1.966642444,17.27568412,1076.811733
6.2400,-1.955983912,17.27316208,1076.793419
6.2450,-1.94522567,17.27067737,1076.775178
6.2500,-1.934329107,17.26821743,1076.756995
6.2550,-1.92334196,17.26577994,1076.738894
6.2600,-1.912249036,17.26334777,1076.720867
6.2650,-1.901023525,17.26084627,1076.702903
6.2700,-1.88969046,17.2583057,1076.685012
6.2750,-1.878265892,17.25568225,1076.667194
6.2800,-1.866683942,17.2529776,1076.649442
6.2850,-1.854962281,17.25014755,1076.631761
6.2900,-1.843071306,17.24720229,1076.61415
6.2950,-1.831017213,17.2441426,1076.596611
6.3000,-1.818770586,17.24091921,1076.579148
6.3050,-1.806312789,17.23756532,1076.561758
6.3100,-1.793634435,17.23408513,1076.544453
6.3150,-1.780733422,17.23053731,1076.527244
6.3200,-1.767593998,17.22689951,1076.510114
6.3250,-1.754190486,17.2232056,1076.493072
6.3300,-1.740502511,17.21948163,1076.476124
6.3350,-1.72651462,17.21568787,1076.459268
6.3400,-1.71232581,17.21186195,1076.442523
6.3450,-1.697874344,17.20793264,1076.425872
6.3500,-1.683209286,17.20395595,1076.409327
6.3550,-1.668374506,17.19983948,1076.392892
6.3600,-1.653315329,17.19560375,1076.376551
6.3650,-1.638086574,17.19123546,1076.36032
6.3700,-1.622669903,17.18675062,1076.344196
6.3750,-1.607122559,17.18209107,1076.328185
6.3800,-1.591481096,17.17724829,1076.312295
6.3850,-1.575786698,17.172225,1076.296553
6.3900,-1.560051858,17.16700969,1076.280951
6.3950,-1.544341466,17.16155949,1076.265505
6.4000,-1.528641406,17.15586231,1076.250193
6.4050,-1.512982899,17.14993279,1076.235036
6.4100,-1.497372488,17.14381754,1076.220035
6.4150,-1.481865203,17.13747637,1076.205192
6.4200,-1.466486781,17.13096513,1076.190519
6.4250,-1.451230146,17.12422388,1076.176003
6.4300,-1.436086237,17.11732238,1076.161655
6.4350,-1.421141544,17.11027058,1076.147487
6.4400,-1.406417716,17.10307544,1076.133502
6.4450,-1.391925891,17.09572199,1076.11969
6.4500,-1.377664335,17.0881978,1076.106059
6.4550,-1.363668665,17.08053816,1076.092614
6.4600,-1.349936396,17.07273996,1076.079355
6.4650,-1.336499472,17.06481262,1076.066285
6.4700,-1.323386187,17.05673628,1076.053405
6.4750,-1.310579892,17.04856031,1076.040705
6.4800,-1.298121048,17.04028069,1076.028189
6.4850,-1.285963674,17.03195222,1076.015853
6.4900,-1.274092203,17.02359024,1076.003694
6.4950,-1.262490765,17.01524242,1075.991708
6.5000,-1.251116594,17.00694115,1075.979884
6.5050,-1.240018408,16.99871458,1075.968241
6.5100,-1.229165555,16.99054451,1075.956769
6.5150,-1.218550926,16.98243446,1075.945451
6.5200,-1.208214736,16.97438633,1075.934308
6.5250,-1.198093248,16.96639601,1075.923323
6.5300,-1.188195978,16.95846152,1075.912498
6.5350,-1.178472433,16.95058426,1075.901831
6.5400,-1.168935108,16.94275834,1075.89132
6.5450,-1.15953931,16.93494766,1075.880958
6.5500,-1.150252911,16.92718897,1075.870747
6.5550,-1.141048086,16.91943745,1075.860672
6.5600,-1.131943309,16.91171214,1075.850749
6.5650,-1.122876425,16.90399854,1075.840962
6.5700,-1.113873397,16.89628379,1075.831316
6.5750,-1.104885241,16.88856486,1075.821803
6.5800,-1.095953312,16.88079597,1075.812432
6.5850,-1.08699721,16.8729883,1075.803187
6.5900,-1.07803116,16.86510301,1075.794074
6.5950,-1.068966309,16.8571112,1075.785071
6.6000,-1.059760114,16.84905701,1075.776182
6.6050,-1.050330927,16.84093584,1075.767393
6.6100,-1.040705591,16.83274939,1075.758709
6.6150,-1.030782757,16.82445226,1075.750119
6.6200,-1.020559119,16.8160204,1075.741621
6.6250,-1.009964672,16.80749798,1075.733214
6.6300,-0.9989418485,16.79886807,1075.724884
6.6350,-0.9874956498,16.79012896,1075.716632
6.6400,-0.9755037017,16.78124516,1075.708435
6.6450,-0.9630098783,16.772227,1075.700302
6.6500,-0.9500086047,16.76301287,1075.692228
6.6550,-0.9364324485,16.75367056,1075.6842
6.6600,-0.9223091693,16.74414845,1075.676224
6.6650,-0.9076482365,16.73444933,1075.668292
6.6700,-0.8925270809,16.72453575,1075.660422
6.6750,-0.8769448343,16.71441921,1075.652608
6.6800,-0.8609597256,16.70411681,1075.64486
6.6850,-0.8445739959,16.69359385,1075.637166
6.6900,-0.8278944638,16.68282768,1075.629543
6.6950,-0.8109699822,16.67187314,1075.621998
6.7000,-0.7939202124,16.66073937,1075.614554
6.7050,-0.7768045495,16.64941363,1075.607213
6.7100,-0.7597260886,16.63789178,1075.599986
6.7150,-0.7427293969,16.62624701,1075.592883
6.7200,-0.7258815159,16.61445177,1075.5859
6.7250,-0.7092615946,16.60257882,1075.579054
6.7300,-0.6929223043,16.5906365,1075.572345
6.7350,-0.6768824943,16.57866363,1075.56577
6.7400,-0.6611452197,16.56670051,1075.559327
6.7450,-0.6457795433,16.55473734,1075.553015
6.7500,-0.630863482,16.54285678,1075.546849
6.7550,-0.6164181073,16.53108017,1075.540825
6.7600,-0.602421358,16.51944282,1075.534933
6.7650,-0.5889103399,16.50792499,1075.529176
6.7700,-0.5758432786,16.49658294,1075.523548
6.7750,-0.5632541069,16.48538003,1075.518045
6.7800,-0.5511447956,16.47435481,1075.51267
6.7850,-0.5395565856,16.46349137,1075.507419
6.7900,-0.5284688238,16.45281391,1075.502294
6.7950,-0.5178507193,16.44232145,1075.497285
6.8000,-0.5077418523,16.43198572,1075.492399
6.8050,-0.4981368061,16.42180297,1075.487628
6.8100,-0.4890301594,16.4117653,1075.482971
6.8150,-0.4804234943,16.40187359,1075.478433
6.8200,-0.4723420667,16.3921452,1075.47401
6.8250,-0.4647553121,16.38255691,1075.469701
6.8300,-0.4576755174,16.37309028,1075.465505
6.8350,-0.4510834646,16.36375794,1075.461419
6.8400,-0.4449417601,16.35456498,1075.457437
6.8450,-0.4392624781,16.34548808,1075.45356
6.8500,-0.4340389093,16.33651562,1075.44979
6.8550,-0.4292271013,16.32768732,1075.44612
6.8600,-0.4247956772,16.31894463,1075.442542
6.8650,-0.4207201485,16.31036241,1075.439059
6.8700,-0.4168951238,16.30188071,1075.435651
6.8750,-0.4132995343,16.29351354,1075.432318
6.8800,-0.4098665975,16.28528886,1075.429047
6.8850,-0.4065603286,16.27717781,1075.425832
6.8900,-0.4033098961,16.26918792,1075.422664
6.8950,-0.400096887,16.26131557,1075.419539
6.9000,-0.3968839451,16.25351985,1075.416448
6.9050,-0.3936413838,16.24578086,1075.413388
6.9100,-0.3903034976,16.23808418,1075.410349
6.9150,-0.386888895,16.23044996,1075.40733
6.9200,-0.3833385904,16.22287899,1075.404329
6.9250,-0.3796678534,16.21533982,1075.401344
6.9300,-0.375873427,16.2078746,1075.398383
6.9350,-0.3718925312,16.20047502,1075.395434
6.9400,-0.3677626851,16.19315108,1075.392507
6.9450,-0.3633976329,16.18595009,1075.389589
6.9500,-0.3588339168,16.17886721,1075.386689
6.9550,-0.3540495158,16.17188553,1075.383806
6.9600,-0.3490647122,16.16504651,1075.380945
6.9650,-0.3439072771,16.15829001,1075.378109
6.9700,-0.3385298415,16.15167155,1075.37529
6.9750,-0.3329691125,16.14518559,1075.372498
6.9800,-0.3272348751,16.13883642,1075.36973
6.9850,-0.3213130017,16.13263795,1075.366988
6.9900,-0.3152452785,16.12658812,1075.364277
6.9950,-0.3090217154,16.120695,1075.361598
7.0000,-0.3026527589,16.11497042,1075.358951
7.0050,-0.2961701801,16.10940632,1075.356339
7.0100,-0.2895838795,16.10405285,1075.353768
7.0150,-0.2829547266,16.09888053,1075.351244
7.0200,-0.2762977849,16.09391643,1075.34877
7.0250,-0.2696680918,16.08915312,1075.346354
7.0300,-0.263119522,16.08458831,1075.344004
7.0350,-0.2566672026,16.08018283,1075.341721
7.0400,-0.2503872178,16.07597833,1075.339518
7.0450,-0.2443030486,16.07200289,1075.3374
7.0500,-0.2384041733,16.06822253,1075.335362
7.0550,-0.2327594895,16.06466828,1075.333421
7.0600,-0.2274445503,16.06132032,1075.331589
7.0650,-0.2224191809,16.05819911,1075.329858
7.0700,-0.2177778511,16.05532578,1075.328245
7.0750,-0.2135028461,16.0527283,1075.326752
7.0800,-0.2096275446,16.05039034,1075.325381
7.0850,-0.2061343425,16.04835332,1075.324133
7.0900,-0.203049078,16.04657187,1075.32301
7.0950,-0.2004179526,16.04505923,1075.322017
7.1000,-0.1981923502,16.04382843,1075.321146
7.1050,-0.1963692568,16.04288691,1075.320399
7.1100,-0.194927501,16.04221014,1075.31977
7.1150,-0.1938945722,16.04185952,1075.319269
7.1200,-0.1932349644,16.04177211,1075.318887
7.1250,-0.1929664146,16.04195946,1075.318628
7.1300,-0.1930428613,16.04242227,1075.318488
7.1350,-0.1934867163,16.04313771,1075.318469
7.1400,-0.1942901726,16.04409294,1075.31857
7.1450,-0.1954174771,16.04528991,1075.318787
7.1500,-0.1968285989,16.04671363,1075.319114
7.1550,-0.1985272324,16.04831604,1075.319553
7.1600,-0.2004863024,16.05012314,1075.320097
7.1650,-0.2027421762,16.05205569,1075.320754
7.1700,-0.2052721767,16.05416156,1075.321523
7.1750,-0.2080251467,16.05639096,1075.322396
7.1800,-0.210953528,16.05873089,1075.323364
7.1850,-0.2140935654,16.06114877,1075.324436
7.1900,-0.2173761751,16.06368422,1075.325603
7.1950,-0.2208370568,16.0662703,1075.32687
7.2000,-0.2244250297,16.06890659,1075.328232
7.2050,-0.2281491484,16.07160204,1075.329689
7.2100,-0.2319866786,16.07434892,1075.331243
7.2150,-0.2358753774,16.07711852,1075.332883
7.2200,-0.2398312408,16.07993644,1075.334613
7.2250,-0.2437928185,16.0828355,1075.336427
7.2300,-0.2477796312,16.08572545,1075.338327
7.2350,-0.2517684222,16.08863289,1075.34031
7.2400,-0.2557916347,16.09158899,1075.342389
7.2450,-0.2598524314,16.09454163,1075.344561
7.2500,-0.2639086893,16.09749301,1075.346824
7.2550,-0.2680246718,16.10046619,1075.349192
7.2600,-0.2721825499,16.10338547,1075.351664
7.2650,-0.276399695,16.10633141,1075.354249
7.2700,-0.2806914074,16.10929805,1075.356954
7.2750,-0.2850557958,16.11226557,1075.359778
7.2800,-0.2894871292,16.11524303,1075.36273
7.2850,-0.2940125553,16.11819453,1075.365815
7.2900,-0.2986359603,16.12116175,1075.369042
7.2950,-0.3033852261,16.12412214,1075.372416
7.3000,-0.3082732036,16.12709334,1075.375943
7.3050,-0.3133381467,16.13008073,1075.379634
7.3100,-0.318580237,16.13306733,1075.383493
7.3150,-0.3239967617,16.1361076,1075.387523
7.3200,-0.3296006982,16.13919844,1075.391733
7.3250,-0.3354446839,16.14235372,1075.396135
7.3300,-0.3415785066,16.14555733,1075.400735
7.3350,-0.3480152295,16.14886911,1075.405542
7.3400,-0.3547692234,16.1522928,1075.410562
7.3450,-0.3618580821,16.15583829,1075.415804
7.3500,-0.3693396137,16.15953268,1075.421275
7.3550,-0.3772051208,16.16338351,1075.426972
7.3600,-0.3855110411,16.16740967,1075.432909
7.3650,-0.3943385425,16.17165335,1075.439099
7.3700,-0.4036538282,16.17610035,1075.445537
7.3750,-0.4134982433,16.18078762,1075.45223
7.3800,-0.4238852502,16.18574095,1075.459184
7.3850,-0.4348332052,16.19093051,1075.466402
7.3900,-0.4463609522,16.19640389,1075.473885
7.3950,-0.4584622847,16.20215638,1075.481638
7.4000,-0.4711504421,16.20820915,1075.489669
7.4050,-0.4844151293,16.21457167,1075.49797
7.4100,-0.4982524169,16.22126344,1075.506543
7.4150,-0.5126301335,16.22823342,1075.51538
7.4200,-0.5275301739,16.23553837,1075.524479
7.4250,-0.5429315548,16.2431575,1075.533839
7.4300,-0.5588324169,16.25110318,1075.543462
7.4350,-0.575200526,16.25937095,1075.553343
7.4400,-0.5920107017,16.26791059,1075.563473
7.4450,-0.6092832628,16.27674359,1075.573855
7.4500,-0.6270015885,16.28582962,1075.584493
7.4550,-0.6451441439,16.2951808,1075.595382
7.4600,-0.6637090402,16.30477791,1075.606521
7.4650,-0.6826554511,16.3146435,1075.617903
7.4700,-0.701982713,16.32472974,1075.629526
7.4750,-0.7216780682,16.33505985,1075.641392
7.4800,-0.7417604493,16.34563707,1075.653507
7.4850,-0.7622031989,16.35644296,1075.665862
7.4900,-0.7830319779,16.36742695,1075.678465
7.4950,-0.8042104347,16.37860756,1075.691309
7.5000,-0.8257515376,16.38998104,1075.704398
7.5050,-0.8476490388,16.40148942,1075.717729
7.5100,-0.8699067499,16.41312013,1075.731305
7.5150,-0.8925471922,16.42492405,1075.745135
7.5200,-0.9155151653,16.4368263,1075.759206
7.5250,-0.9388246497,16.44880649,1075.773514
7.5300,-0.9623998162,16.46089469,1075.788045
7.5350,-0.9862631333,16.47306444,1075.802805
7.5400,-1.010323568,16.48529233,1075.817775
7.5450,-1.034601783,16.49755897,1075.832958
7.5500,-1.059061583,16.50987749,1075.848345
7.5550,-1.083651621,16.52218171,1075.863922
7.5600,-1.108378328,16.53454815,1075.879694
7.5650,-1.133178203,16.54689892,1075.89564
7.5700,-1.158030032,16.55925251,1075.911755
7.5750,-1.18289918,16.57161732,1075.928029
7.5800,-1.207733431,16.58395517,1075.944441
7.5850,-1.232504073,16.59629046,1075.960999
7.5900,-1.257169518,16.60862222,1075.977686
7.5950,-1.281710278,16.62093954,1075.994502
7.6000,-1.306053252,16.63319975,1076.011433
7.6050,-1.330199113,16.64539495,1076.028487
7.6100,-1.354139597,16.65753822,1076.045656
7.6150,-1.37783742,16.66956167,1076.062936
7.6200,-1.401331918,16.68150161,1076.080335
7.6250,-1.424509973,16.69331829,1076.097832
7.6300,-1.447364831,16.70505584,1076.11543
7.6350,-1.469858082,16.71665797,1076.133131
7.6400,-1.491965742,16.72816205,1076.150926
7.6450,-1.51367348,16.73955979,1076.16881
7.6500,-1.534911414,16.75086795,1076.186778
7.6550,-1.555677762,16.76207815,1076.204829
7.6600,-1.575934375,16.77326488,1076.222956
7.6650,-1.595672103,16.78437696,1076.241154
7.6700,-1.614891626,16.79549471,1076.259424
7.6750,-1.633616641,16.80654546,1076.277765
7.6800,-1.651798527,16.81756247,1076.296161
7.6850,-1.669460986,16.82859166,1076.314614
7.6900,-1.686586425,16.83963723,1076.333122
7.6950,-1.703183853,16.85069176,1076.351674
7.7000,-1.719285191,16.86177354,1076.370277
7.7050,-1.734921533,16.87287287,1076.388937
7.7100,-1.750076709,16.88400311,1076.407645
7.7150,-1.764798734,16.89517638,1076.426403
7.7200,-1.779087108,16.9064162,1076.445225
7.7250,-1.792975567,16.91769911,1076.4641
7.7300,-1.806473999,16.92902229,1076.483022
7.7350,-1.819610831,16.94036212,1076.501999
7.7400,-1.832419016,16.95175636,1076.521045
7.7450,-1.844884585,16.96319559,1076.540154
7.7500,-1.857054089,16.97468074,1076.559332
7.7550,-1.868906148,16.98621384,1076.578584
7.7600,-1.880464244,16.99776468,1076.597915
7.7650,-1.891750108,17.00934571,1076.617339
7.7700,-1.902813978,17.02096538,1076.63686
7.7750,-1.91370557,17.03260733,1076.656487
7.7800,-1.924442355,17.04429524,1076.676222
7.7850,-1.935022725,17.05599746,1076.696076
7.7900,-1.945514168,17.06772131,1076.716049
7.7950,-1.955931216,17.07952203,1076.736156
7.8000,-1.966332566,17.09134579,1076.756394
7.8050,-1.976734312,17.10326957,1076.776769
7.8100,-1.987179288,17.11524441,1076.797299
7.8150,-1.997667674,17.12723091,1076.817972
7.8200,-2.008299521,17.13925492,1076.838812
7.8250,-2.019097399,17.1512961,1076.859821
7.8300,-2.03008672,17.16334123,1076.881008
7.8350,-2.041313905,17.17538266,1076.902381
7.8400,-2.052787769,17.18736229,1076.923936
7.8450,-2.06456031,17.1992975,1076.945683
7.8500,-2.076596036,17.21115967,1076.967615
7.8550,-2.088966225,17.22293697,1076.989744
7.8600,-2.101624139,17.23460488,1077.012051
7.8650,-2.11455868,17.24615295,1077.034541
7.8700,-2.127753225,17.25752976,1077.057209
7.8750,-2.141196138,17.26870944,1077.080057
7.8800,-2.154924656,17.27970175,1077.1031
7.8850,-2.168894039,17.29048812,1077.126312
7.8900,-2.183081093,17.30106005,1077.149702
7.8950,-2.197467027,17.31141951,1077.173262
7.9000,-2.212061087,17.32161501,1077.196985
7.9050,-2.226794018,17.33164229,1077.22085
7.9100,-2.241667243,17.34151842,1077.24487
7.9150,-2.256653536,17.3512527,1077.269029
7.9200,-2.271736433,17.36084592,1077.293316
7.9250,-2.286933675,17.37031316,1077.317734
7.9300,-2.302189623,17.37966525,1077.342272
7.9350,-2.317579182,17.38895765,1077.36694
7.9400,-2.333057871,17.3981307,1077.391714
7.9450,-2.348644103,17.40724029,1077.41661
7.9500,-2.364366908,17.41628251,1077.441628
7.9550,-2.380227596,17.4252989,1077.466761
7.9600,-2.396207797,17.43427193,1077.49201
7.9650,-2.412286341,17.44323214,1077.517366
7.9700,-2.428457196,17.45216278,1077.542834
7.9750,-2.444706505,17.46111844,1077.568419
7.9800,-2.461043911,17.47007076,1077.594122
7.9850,-2.477449084,17.47905917,1077.619939
7.9900,-2.493924607,17.4880598,1077.645866
7.9950,-2.510476411,17.49714051,1077.671915
8.0000,-2.527076816,17.50625694,1077.69807
8.0050,-2.54366381,17.51543963,1077.724329
8.0100,-2.560279518,17.52472472,1077.750703
8.0150,-2.576893843,17.53412532,1077.777193
8.0200,-2.593497785,17.54361533,1077.803784
8.0250,-2.610074525,17.55325828,1077.830484
8.0300,-2.626589701,17.56305885,1077.857301
8.0350,-2.643060968,17.5730338,1077.884228
8.0400,-2.65948509,17.58314916,1077.911267
8.0450,-2.675843848,17.59340651,1077.938408
8.0500,-2.692145932,17.60379308,1077.96565
8.0550,-2.708475008,17.61429099,1077.99299
8.0600,-2.724768629,17.62493801,1078.020444
8.0650,-2.741094625,17.63569411,1078.047998
8.0700,-2.757406719,17.64652894,1078.075647
8.0750,-2.773736486,17.65741335,1078.103392
8.0800,-2.790044801,17.66833549,1078.131225
8.0850,-2.80633764,17.67935413,1078.159141
8.0900,-2.822655422,17.69041494,1078.187151
8.0950,-2.838938739,17.70152197,1078.215242
8.1000,-2.85520636,17.71266617,1078.243415
8.1050,-2.871443881,17.72383874,1078.271675
8.1100,-2.887628737,17.73503742,1078.299989
8.1150,-2.903796642,17.74625612,1078.328365
8.1200,-2.919903117,17.75749369,1078.356798
8.1250,-2.935934003,17.76873422,1078.385282
8.1300,-2.951885044,17.78000057,1078.413825
8.1350,-2.967700346,17.79132463,1078.442413
8.1400,-2.983366195,17.80268975,1078.471031
8.1450,-2.998835637,17.81417975,1078.499691
8.1500,-3.014124367,17.82582905,1078.528401
8.1550,-3.029175679,17.83761918,1078.557144
8.1600,-3.043980248,17.84952436,1078.585915
8.1650,-3.058545212,17.86156191,1078.614726
8.1700,-3.072871449,17.87372735,1078.64356
8.1750,-3.086941629,17.88605957,1078.672425
8.1800,-3.100752201,17.89850523,1078.701306
8.1850,-3.114310303,17.91108676,1078.730216
8.1900,-3.127614248,17.92378883,1078.75914
8.1950,-3.140675695,17.93659757,1078.788079
8.2000,-3.153523417,17.94945696,1078.817038
8.2050,-3.166184805,17.96232952,1078.846022
8.2100,-3.178646917,17.97521424,1078.875015
8.2150,-3.19095612,17.98811371,1078.904023
8.2200,-3.203083628,18.00097919,1078.933039
8.2250,-3.21504484,18.01382756,1078.962065
8.2300,-3.226841386,18.02663495,1078.991099
8.2350,-3.238493923,18.03936037,1079.020116
8.2400,-3.250071863,18.05200089,1079.049128
8.2450,-3.26158822,18.06451762,1079.078133
8.2500,-3.273041676,18.07694956,1079.107133
8.2550,-3.284429406,18.08925754,1079.136125
8.2600,-3.295786206,18.10145959,1079.165109
8.2650,-3.30710562,18.11350882,1079.194071
8.2700,-3.318372421,18.12542642,1079.223008
8.2750,-3.329607527,18.1372117,1079.251918
8.2800,-3.340795351,18.14888572,1079.280802
8.2850,-3.351947794,18.16039158,1079.309658
8.2900,-3.363066577,18.17174231,1079.338493
8.2950,-3.374168855,18.18293941,1079.367307
8.3000,-3.385253447,18.19400382,1079.396106
8.3050,-3.396340011,18.20493986,1079.424893
8.3100,-3.407389002,18.21572436,1079.453659
8.3150,-3.418382417,18.22635592,1079.4824
8.3200,-3.429346628,18.23684873,1079.511128
8.3250,-3.440246032,18.24717596,1079.539825
8.3300,-3.451113384,18.25730054,1079.568487
8.3350,-3.461919413,18.26721983,1079.59712
8.3400,-3.472711953,18.27694146,1079.625726
8.3450,-3.483488502,18.28642178,1079.654297
8.3500,-3.49426431,18.29569865,1079.682849
8.3550,-3.504988204,18.30477374,1079.711374
8.3600,-3.51572824,18.31363542,1079.739864
8.3650,-3.526420332,18.32227464,1079.768323
8.3700,-3.537081401,18.33074369,1079.79675
8.3750,-3.547713271,18.33907944,1079.825162
8.3800,-3.558337613,18.34723413,1079.853551
8.3850,-3.568929208,18.3552182,1079.881911
8.3900,-3.579481854,18.36304964,1079.91025
8.3950,-3.590066314,18.37068688,1079.938562
8.4000,-3.600632051,18.37818016,1079.966857
8.4050,-3.611196448,18.38550264,1079.995145
8.4100,-3.62175704,18.39273776,1080.023435
8.4150,-3.63230998,18.39987148,1080.051734
8.4200,-3.642829597,18.40694776,1080.080046
8.4250,-3.653339299,18.4139773,1080.10838
8.4300,-3.663826234,18.42091043,1080.136714
8.4350,-3.674292522,18.42778376,1080.165062
8.4400,-3.68474836,18.43463867,1080.193452
8.4450,-3.695205495,18.44140642,1080.221853
8.4500,-3.705686345,18.44804653,1080.250264
8.4550,-3.716165985,18.45460851,1080.278682
8.4600,-3.72668158,18.46106425,1080.307114
8.4650,-3.737243057,18.46743736,1080.33556
8.4700,-3.747836263,18.47379402,1080.364047
8.4750,-3.758510923,18.48004964,1080.392556
8.4800,-3.769244461,18.48628479,1080.421099
8.4850,-3.780087404,18.49243638,1080.449683
8.4900,-3.791037402,18.4985144,1080.478293
8.4950,-3.80209938,18.50455586,1080.50694
8.5000,-3.813268927,18.51059132,1080.535628
8.5050,-3.824534816,18.51669513,1080.564355
8.5100,-3.835893493,18.52281717,1080.593117
8.5150,-3.847365698,18.52893439,1080.62191
8.5200,-3.858989869,18.53507405,1080.650744
8.5250,-3.870776108,18.54127606,1080.679627
8.5300,-3.882727472,18.54751935,1080.708538
8.5350,-3.894842097,18.55382592,1080.737507
8.5400,-3.907147169,18.56018527,1080.766537
8.5450,-3.919609489,18.5666208,1080.795617
8.5500,-3.932277502,18.57306752,1080.824716
8.5550,-3.945101499,18.57956588,1080.853833
8.5600,-3.958065467,18.58609947,1080.882974
8.5650,-3.971182906,18.59274081,1080.912154
8.5700,-3.984468365,18.59943443,1080.941352
8.5750,-3.997855878,18.60620627,1080.970564
8.5800,-4.011395743,18.61305111,1080.999777
8.5850,-4.025067989,18.61997688,1081.028976
8.5900,-4.038880806,18.62701457,1081.058177
8.5950,-4.052826538,18.63406906,1081.087361
8.6000,-4.066885823,18.64119353,1081.116523
8.6050,-4.08106985,18.64835656,1081.145662
8.6100,-4.09538382,18.65560675,1081.174789
8.6150,-4.109861074,18.66290493,1081.203917
8.6200,-4.12443445,18.670324,1081.233026
8.6250,-4.139073701,18.67781994,1081.26212
8.6300,-4.153768165,18.68542208,1081.291212
8.6350,-4.168522117,18.69314888,1081.320293
8.6400,-4.183227761,18.7010308,1081.349334
8.6450,-4.197889675,18.70909798,1081.378354
8.6500,-4.212467163,18.71737119,1081.407349
8.6550,-4.226947745,18.72583421,1081.436306
8.6600,-4.241300254,18.73449986,1081.465235
8.6650,-4.255502993,18.74337381,1081.494113
8.6700,-4.269569023,18.75240208,1081.522946
8.6750,-4.283460736,18.76161422,1081.551727
8.6800,-4.297154762,18.77097404,1081.580449
8.6850,-4.31065427,18.78047819,1081.609115
8.6900,-4.323948051,18.79012663,1081.637719
8.6950,-4.336991591,18.79993164,1081.666258
8.7000,-4.349746488,18.80990603,1081.694727
8.7050,-4.362189438,18.82003621,1081.723099
8.7100,-4.374326438,18.83026313,1081.751381
8.7150,-4.38613308,18.84062808,1081.779595
8.7200,-4.397624537,18.85108853,1081.807715
8.7250,-4.408763799,18.86160149,1081.835716
8.7300,-4.41960263,18.87216893,1081.863633
8.7350,-4.430168967,18.88274103,1081.89145
8.7400,-4.440508387,18.89330371,1081.919169
8.7450,-4.450603016,18.90381791,1081.946794
8.7500,-4.460453008,18.91428881,1081.974327
8.7550,-4.470062512,18.92467655,1082.001763
8.7600,-4.479446655,18.93502739,1082.029107
8.7650,-4.48859072,18.9452649,1082.056355
8.7700,-4.497514408,18.95529065,1082.08346
8.7750,-4.50623643,18.96513181,1082.110452
8.7800,-4.514784716,18.97472743,1082.137313
8.7850,-4.523212507,18.98407749,1082.164058
8.7900,-4.531491296,18.99318093,1082.190674
8.7950,-4.539641183,19.00201521,1082.217174
8.8000,-4.547655766,19.01058927,1082.243562
8.8050,-4.555573719,19.01887927,1082.269847
8.8100,-4.56339084,19.02688912,1082.29603
8.8150,-4.571050197,19.03467716,1082.322116
8.8200,-4.57851373,19.04220661,1082.348072
8.8250,-4.585782196,19.04944604,1082.373906
8.8300,-4.59285345,19.05640668,1082.399643
8.8350,-4.59968675,19.06309371,1082.425256
8.8400,-4.606227246,19.06955471,1082.450743
8.8450,-4.612494248,19.07574237,1082.476106
8.8500,-4.618434069,19.08168952,1082.501352
8.8550,-4.624100977,19.08736703,1082.526488
8.8600,-4.629501344,19.09272308,1082.551488
8.8650,-4.634646606,19.09771757,1082.576349
8.8700,-4.639563664,19.10232856,1082.601074
8.8750,-4.644313473,19.1065267,1082.625671
8.8800,-4.648883693,19.11028716,1082.650143
8.8850,-4.653298128,19.11357021,1082.674486
8.8900,-4.657617063,19.11635979,1082.698701
8.8950,-4.66180065,19.11875453,1082.722791
8.9000,-4.665884773,19.12069751,1082.746769
8.9050,-4.669903851,19.12227182,1082.770666
8.9100,-4.673855392,19.12341764,1082.794458
8.9150,-4.677711733,19.12420707,1082.818112
8.9200,-4.681548757,19.12458442,1082.841645
8.9250,-4.685460551,19.1246412,1082.865125
8.9300,-4.689368386,19.12443858,1082.888546
8.9350,-4.693264568,19.12405503,1082.911922
8.9400,-4.697114199,19.12351772,1082.935258
8.9450,-4.700941457,19.12286963,1082.958573
8.9500,-4.704735035,19.12211385,1082.981856
8.9550,-4.708468705,19.12131393,1083.005113
8.9600,-4.712146243,19.12046743,1083.028351
8.9650,-4.715783824,19.11958029,1083.051576
8.9700,-4.719334796,19.11867752,1083.074777
8.9750,-4.722746849,19.11775532,1083.09795
8.9800,-4.726032416,19.1168948,1083.121125
8.9850,-4.729228108,19.116032,1083.144301
8.9900,-4.732273612,19.11519948,1083.16746
8.9950,-4.735147296,19.1143717,1083.190601
9.0000,-4.737895801,19.11355441,1083.213745
9.0050,-4.740505744,19.11276396,1083.236892
9.0100,-4.742967446,19.11200483,1083.260046
9.0150,-4.745263632,19.11119709,1083.283158
9.0200,-4.747441478,19.11030514,1083.306241
9.0250,-4.749500665,19.10941312,1083.329336
9.0300,-4.751425171,19.10847341,1083.352404
9.0350,-4.753161343,19.10747245,1083.375433
9.0400,-4.754726185,19.10638837,1083.398413
9.0450,-4.756102038,19.1051867,1083.421319
9.0500,-4.757290506,19.10386517,1083.444161
9.0550,-4.758321398,19.10242386,1083.466938
9.0600,-4.759175524,19.10079254,1083.489615
9.0650,-4.759862829,19.09899881,1083.512189
9.0700,-4.760411696,19.09705358,1083.534681
9.0750,-4.760797061,19.09493325,1083.557057
9.0800,-4.761046188,19.09263893,1083.57932
9.0850,-4.761109559,19.09015606,1083.60143
9.0900,-4.761055014,19.08741381,1083.623398
9.0950,-4.760909024,19.08439316,1083.645207
9.1000,-4.760710703,19.08108085,1083.66686
9.1050,-4.760457994,19.07742978,1083.68834
9.1100,-4.760200291,19.07343239,1083.709647
9.1150,-4.760028584,19.06905613,1083.730787
9.1200,-4.759959675,19.06434375,1083.751803
9.1250,-4.760008658,19.05930194,1083.772671
9.1300,-4.760192978,19.05394261,1083.793377
9.1350,-4.760524242,19.04830934,1083.813936
9.1400,-4.761025268,19.04241059,1083.834351
9.1450,-4.761699849,19.03629985,1083.854628
9.1500,-4.762537007,19.02999261,1083.87476
9.1550,-4.763553393,19.02354454,1083.894757
9.1600,-4.764725641,19.01702992,1083.91462
9.1650,-4.766045743,19.01049298,1083.934357
9.1700,-4.767505621,19.00396878,1083.95398
9.1750,-4.769054838,18.99752668,1083.973479
9.1800,-4.770700181,18.99119544,1083.992868
9.1850,-4.772415062,18.98505789,1084.012159
9.1900,-4.77412019,18.97915908,1084.031318
9.1950,-4.775803623,18.97354003,1084.050368
9.2000,-4.777434711,18.96826507,1084.069304
9.2050,-4.778998148,18.96332524,1084.088113
9.2100,-4.780432743,18.95880053,1084.106796
9.2150,-4.78177328,18.9546927,1084.125389
9.2200,-4.782949474,18.95105792,1084.143895
9.2250,-4.783982163,18.94791505,1084.162308
9.2300,-4.784910457,18.94526432,1084.180633
9.2350,-4.785681963,18.94311772,1084.198865
9.2400,-4.786330952,18.94147254,1084.217039
9.2450,-4.786823788,18.94032149,1084.235131
9.2500,-4.787158197,18.93964,1084.253143
9.2550,-4.787349273,18.93942326,1084.271091
9.2600,-4.787401148,18.93965887,1084.288966
9.2650,-4.787331667,18.94032375,1084.306794
9.2700,-4.787167944,18.94137948,1084.324573
9.2750,-4.786954042,18.9428044,1084.342315
9.2800,-4.786711498,18.94451905,1084.359999
9.2850,-4.786440201,18.94653818,1084.377642
9.2900,-4.786171652,18.94882907,1084.395253
9.2950,-4.785950789,18.95136433,1084.412856
9.3000,-4.785738527,18.95407016,1084.430389
9.3050,-4.785619196,18.95690675,1084.447889
9.3100,-4.785595777,18.95982467,1084.465337
9.3150,-4.785697617,18.96281953,1084.482755
9.3200,-4.785884868,18.96587283,1084.500123
9.3250,-4.786202082,18.96891336,1084.517433
9.3300,-4.78660776,18.97199962,1084.534712
9.3350,-4.787181308,18.97506631,1084.551962
9.3400,-4.787885564,18.97810642,1084.569173
9.3450,-4.788738187,18.98115128,1084.586367
9.3500,-4.789759707,18.98417279,1084.603513
9.3550,-4.790926723,18.98713882,1084.620593
9.3600,-4.792260037,18.99009574,1084.637646
9.3650,-4.793716052,18.99302553,1084.65463
9.3700,-4.795331148,18.99586317,1084.671539
9.3750,-4.797097676,18.9986275,1084.688367
9.3800,-4.798990214,19.00131174,1084.705084
9.3850,-4.801049113,19.00390917,1084.721709
9.3900,-4.803240785,19.00643117,1084.738221
9.3950,-4.805528369,19.00887447,1084.754594
9.4000,-4.807888053,19.0112145,1084.7708
9.4050,-4.810317076,19.01349547,1084.78684
9.4100,-4.81278923,19.01573557,1084.802712
9.4150,-4.815243732,19.01791823,1084.818385
9.4200,-4.817677595,19.02005459,1084.833833
9.4250,-4.82006952,19.02214522,1084.849053
9.4300,-4.822436429,19.02418692,1084.864054
9.4350,-4.824757811,19.0261527,1084.878803
9.4400,-4.827003778,19.0280716,1084.893306
9.4450,-4.829129349,19.02997867,1084.907545
9.4500,-4.831100169,19.03192011,1084.921509
9.4550,-4.832854743,19.03380064,1084.93514
9.4600,-4.834434812,19.03563711,1084.948469
9.4650,-4.835788725,19.03740828,1084.96146
9.4700,-4.836896282,19.03915776,1084.974115
9.4750,-4.83777248,19.04086422,1084.986441
9.4800,-4.838363918,19.0425773,1084.998424
9.4850,-4.838666785,19.04429492,1085.01007
9.4900,-4.838691221,19.04600222,1085.021389
9.4950,-4.838437103,19.04766693,1085.032369
9.5000,-4.837917368,19.04928547,1085.043006
9.5050,-4.837129602,19.05086735,1085.053304
9.5100,-4.836113277,19.05238438,1085.063284
9.5150,-4.834885525,19.05385007,1085.072967
9.5200,-4.833481837,19.05523347,1085.082357
9.5250,-4.831862444,19.05652118,1085.091434
9.5300,-4.830034218,19.05771206,1085.100209
9.5350,-4.828019937,19.05878925,1085.108695
9.5400,-4.825843508,19.0597576,1085.116892
9.5450,-4.82352252,19.06062709,1085.124831
9.5500,-4.82110524,19.0614116,1085.132545
9.5550,-4.818604003,19.06204513,1085.140021
9.5600,-4.816037938,19.06256875,1085.147298
9.5650,-4.813380252,19.06298296,1085.154358
9.5700,-4.810644314,19.06331978,1085.161218
9.5750,-4.807843019,19.06356163,1085.167886
9.5800,-4.80500736,19.06371304,1085.174387
9.5850,-4.802127544,19.06378666,1085.18073
9.5900,-4.799209358,19.06380778,1085.186931
9.5950,-4.796259835,19.06377788,1085.192994
9.6000,-4.793335414,19.06370219,1085.198979
9.6050,-4.790391923,19.06357791,1085.204859
9.6100,-4.787441636,19.06342155,1085.21066
9.6150,-4.784488703,19.06329451,1085.216414
9.6200,-4.781570947,19.06316523,1085.222134
9.6250,-4.778656791,19.06306911,1085.227826
9.6300,-4.775814017,19.06297891,1085.2335
9.6350,-4.772990472,19.06293967,1085.239146
9.6400,-4.770215472,19.0629482,1085.244797
9.6450,-4.7675127,19.06296318,1085.250443
9.6500,-4.764838854,19.06303303,1085.256097
9.6550,-4.762205721,19.06318181,1085.261776
9.6600,-4.759620714,19.06336458,1085.267461
9.6650,-4.757110434,19.06358744,1085.273172
9.6700,-4.754648519,19.06387831,1085.278911
9.6750,-4.752225266,19.06424093,1085.284673
9.6800,-4.749860488,19.06465189,1085.290473
9.6850,-4.747530358,19.0651021,1085.296289
9.6900,-4.745275924,19.06559569,1085.302137
9.6950,-4.743126521,19.06612131,1085.308019
9.7000,-4.741103727,19.06667931,1085.313946
9.7050,-4.739227869,19.06728188,1085.319919
9.7100,-4.737539614,19.06789358,1085.325939
9.7150,-4.736039012,19.06857311,1085.332011
9.7200,-4.73478497,19.06931134,1085.338155
9.7250,-4.733786107,19.07010709,1085.344364
9.7300,-4.733017585,19.07097505,1085.350619
9.7350,-4.732480278,19.07194716,1085.356924
9.7400,-4.732182599,19.07300727,1085.363262
9.7450,-4.732145602,19.07414187,1085.369623
9.7500,-4.732383003,19.07533777,1085.376005
9.7550,-4.732890426,19.07665704,1085.382422
9.7600,-4.733625548,19.07808635,1085.388825
9.7650,-4.73457279,19.07963817,1085.395211
9.7700,-4.735733071,19.08130344,1085.401551
9.7750,-4.737075176,19.08311153,1085.407826
9.7800,-4.73860572,19.08500758,1085.414014
9.7850,-4.740290694,19.08697219,1085.420069
9.7900,-4.742119063,19.08902377,1085.425986
9.7950,-4.744098327,19.09112375,1085.431739
9.8000,-4.746200105,19.09329944,1085.437318
9.8050,-4.748377516,19.09552075,1085.442672
9.8100,-4.750628804,19.0978105,1085.447798
9.8150,-4.752897318,19.10014589,1085.452644
9.8200,-4.755151604,19.10254747,1085.457206
9.8250,-4.757377076,19.10497544,1085.461442
9.8300,-4.759570823,19.10743283,1085.465349
9.8350,-4.761740054,19.10993901,1085.468933
9.8400,-4.763895032,19.11246903,1085.472197
9.8450,-4.766053767,19.11499876,1085.475134
9.8500,-4.768145435,19.11753803,1085.477705
9.8550,-4.770162962,19.12013129,1085.479922
9.8600,-4.772134395,19.12275745,1085.481783
9.8650,-4.774041072,19.12542505,1085.483285
9.8700,-4.775876908,19.1281008,1085.484426
9.8750,-4.777658479,19.13075049,1085.485196
9.8800,-4.779338169,19.13338603,1085.485591
9.8850,-4.780908975,19.1360027,1085.48559
9.8900,-4.782393982,19.13854976,1085.485196
9.8950,-4.78374777,19.14102936,1085.484384
9.9000,-4.784961193,19.14344342,1085.483144
9.9050,-4.78605491,19.14576585,1085.481496
9.9100,-4.787001525,19.14801657,1085.479434
9.9150,-4.78784345,19.15011795,1085.476943
9.9200,-4.788537925,19.15215722,1085.474051
9.9250,-4.789138324,19.15404257,1085.470746
9.9300,-4.789590885,19.15581561,1085.467024
9.9350,-4.789950936,19.15745375,1085.462923
9.9400,-4.790201018,19.1589286,1085.458415
9.9450,-4.79033604,19.16029214,1085.453513
9.9500,-4.790435885,19.1614513,1085.448228
9.9550,-4.790490453,19.16242523,1085.44257
9.9600,-4.790498404,19.16322471,1085.436545
9.9650,-4.79051789,19.16383894,1085.430196
9.9700,-4.790519479,19.16431063,1085.423525
9.9750,-4.790556812,19.16458447,1085.416548
9.9800,-4.790614798,19.16468512,1085.409269
9.9850,-4.790737129,19.16463358,1085.401729
9.9900,-4.790895471,19.16443103,1085.393928
9.9950,-4.791118151,19.16410267,1085.385891
10.0000,-4.79139809,19.16362275,1085.377608
10.0050,-4.791772582,19.16295103,1085.369094
10.0100,-4.792194624,19.16214292,1085.360346
10.0150,-4.792722736,19.16114452,1085.351381
10.0200,-4.793293981,19.15996498,1085.342177
10.0250,-4.793933862,19.1586275,1085.33276
10.0300,-4.794645453,19.15717197,1085.323153
10.0350,-4.795459438,19.15560279,1085.31338
10.0400,-4.796336168,19.15396438,1085.30344
10.0450,-4.79726568,19.15230152,1085.293351
10.0500,-4.79825172,19.15059193,1085.283104
10.0550,-4.799321195,19.14888357,1085.272739
10.0600,-4.80045242,19.14715263,1085.262238
10.0650,-4.80168068,19.14542232,1085.251622
10.0700,-4.802978954,19.14370664,1085.240896
10.0750,-4.804378644,19.14194288,1085.230054
10.0800,-4.805857843,19.14017292,1085.219101
10.0850,-4.807450439,19.13841534,1085.208069
10.0900,-4.809164397,19.13663605,1085.196955
10.0950,-4.811034193,19.13489242,1085.185797
10.1000,-4.813052749,19.13317217,1085.174596
10.1050,-4.815213393,19.1314821,1085.163359
10.1100,-4.817541663,19.12980674,1085.152097
10.1150,-4.81999785,19.12817097,1085.14081
10.1200,-4.822603206,19.12656382,1085.129491
10.1250,-4.825366341,19.1250318,1085.118182
10.1300,-4.828255756,19.12356108,1085.106864
10.1350,-4.831325085,19.12210032,1085.09555
10.1400,-4.834560523,19.12064169,1085.084224
10.1450,-4.837961466,19.11925279,1085.072905
10.1500,-4.841556002,19.11790224,1085.0616
10.1550,-4.845369016,19.11660882,1085.050339
10.1600,-4.849392302,19.1153532,1085.03911
10.1650,-4.85360762,19.11413881,1085.027911
10.1700,-4.858008437,19.11298567,1085.016738
10.1750,-4.8626068,19.111929,1085.005622
10.1800,-4.867367773,19.11096029,1084.994526
10.1850,-4.872290753,19.11011866,1084.983467
10.1900,-4.877316976,19.1094037,1084.97242
10.1950,-4.882474535,19.10882194,1084.96139
10.2000,-4.887739057,19.10836163,1084.950358
10.2050,-4.89306666,19.10803807,1084.939294
10.2100,-4.89850622,19.10780441,1084.928197
10.2150,-4.903994304,19.10770105,1084.917054
10.2200,-4.909552604,19.10761657,1084.905826
10.2250,-4.915186008,19.10759888,1084.894518
10.2300,-4.920910967,19.10757414,1084.883122
10.2350,-4.926683521,19.10758968,1084.871617
10.2400,-4.932514164,19.10767246,1084.860009
10.2450,-4.938378694,19.10779726,1084.848274
10.2500,-4.944215117,19.10800377,1084.83639
10.2550,-4.950034942,19.10827183,1084.824344
10.2600,-4.955817499,19.10856745,1084.81211
10.2650,-4.961496341,19.10895314,1084.799658
10.2700,-4.967093024,19.10935052,1084.786979
10.2750,-4.972574211,19.10982736,1084.774075
10.2800,-4.977977501,19.11032083,1084.760926
10.2850,-4.983276422,19.11085508,1084.747527
10.2900,-4.988490554,19.11143844,1084.733876
10.2950,-4.993590888,19.11203171,1084.719938
10.3000,-4.998579645,19.11267924,1084.705743
10.3050,-5.003376647,19.113401,1084.691246
10.3100,-5.008004923,19.11421222,1084.67645
10.3150,-5.01243465,19.11510798,1084.66135
10.3200,-5.01664838,19.11611637,1084.645933
10.3250,-5.020655011,19.11721329,1084.630188
10.3300,-5.02443247,19.11838985,1084.614083
10.3350,-5.027921033,19.11963084,1084.597572
10.3400,-5.031159045,19.1208977,1084.580674
10.3450,-5.034134383,19.12215492,1084.563361
10.3500,-5.03687126,19.12341056,1084.545656
10.3550,-5.03935028,19.12462641,1084.527521
10.3600,-5.041594757,19.12584154,1084.508988
10.3650,-5.043604614,19.12703931,1084.490046
10.3700,-5.04537309,19.12822338,1084.470709
10.3750,-5.04688451,19.12943376,1084.450973
10.3800,-5.048134156,19.13068656,1084.430851
10.3850,-5.049126729,19.13197802,1084.410346
10.3900,-5.049838205,19.13332158,1084.389446
10.3950,-5.050253898,19.13472667,1084.368153
10.4000,-5.050405894,19.13614794,1084.346479
10.4050,-5.050323837,19.13759754,1084.324438
10.4100,-5.049988046,19.13906771,1084.302029
10.4150,-5.049466216,19.14052991,1084.279281
10.4200,-5.048712671,19.14203193,1084.256206
10.4250,-5.047725247,19.14351913,1084.23279
10.4300,-5.046540475,19.14502081,1084.209059
10.4350,-5.045115708,19.14652605,1084.184997
10.4400,-5.043467126,19.14807257,1084.160641
10.4450,-5.041547635,19.14960312,1084.135974
10.4500,-5.039368133,19.15114242,1084.111025
10.4550,-5.036935654,19.15265499,1084.085771
10.4600,-5.034242283,19.15416339,1084.06024
10.4650,-5.031334427,19.15563802,1084.034449
10.4700,-5.02820087,19.1570899,1084.00841
10.4750,-5.024792668,19.15849963,1083.982101
10.4800,-5.021152881,19.15984657,1083.955554
10.4850,-5.017281885,19.16106886,1083.928768
10.4900,-5.013204715,19.16216425,1083.901751
10.4950,-5.008915902,19.16309454,1083.874512
10.5000,-5.004460144,19.16384333,1083.847088
10.5050,-4.999851763,19.16436737,1083.819494
10.5100,-4.995062839,19.16469754,1083.791737
10.5150,-4.990120238,19.16479716,1083.763835
10.5200,-4.985000354,19.16471219,1083.735801
10.5250,-4.979712996,19.16439524,1083.707651
10.5300,-4.974286721,19.16387984,1083.67941
10.5350,-4.968730155,19.16302971,1083.651051
10.5400,-4.963077859,19.16186033,1083.622606
10.5450,-4.957357801,19.16034969,1083.594102
10.5500,-4.951607991,19.15849979,1083.565555
10.5550,-4.945849648,19.15628658,1083.536979
10.5600,-4.940115945,19.15373496,1083.508406
10.5650,-4.93444317,19.1507607,1083.479843
10.5700,-4.928851044,19.14741973,1083.451303
10.5750,-4.923351715,19.14370517,1083.422799
10.5800,-4.917932495,19.13963306,1083.394334
10.5850,-4.912595586,19.13519153,1083.365907
10.5900,-4.907362178,19.13040262,1083.337538
10.5950,-4.902254192,19.12531353,1083.30926
10.6000,-4.897251652,19.1199263,1083.281052
10.6050,-4.892375013,19.11426404,1083.252921
10.6100,-4.887619554,19.10831777,1083.224883
10.6150,-4.882967249,19.10218948,1083.196932
10.6200,-4.878398158,19.0958552,1083.169058
10.6250,-4.873905263,19.08937593,1083.14128
10.6300,-4.869459462,19.08274953,1083.113569
10.6350,-4.865085101,19.07603484,1083.085958
10.6400,-4.860776067,19.0692185,1083.058402
10.6450,-4.856567632,19.06235346,1083.030931
10.6500,-4.852401264,19.05544377,1083.003504
10.6550,-4.848308255,19.04852553,1082.97615
10.6600,-4.844220659,19.0416172,1082.948837
10.6650,-4.840166719,19.03477965,1082.921583
10.6700,-4.836156048,19.02798116,1082.89436
10.6750,-4.83216324,19.02124874,1082.867175
10.6800,-4.828207818,19.01462271,1082.840028
10.6850,-4.824240128,19.0081094,1082.812891
10.6900,-4.820312713,19.00176912,1082.785787
10.6950,-4.816398244,18.99556867,1082.758691
10.7000,-4.812460794,18.98957258,1082.731578
10.7050,-4.808487688,18.98379558,1082.704445
10.7100,-4.804457187,18.97825017,1082.677276
10.7150,-4.800295046,18.97296736,1082.650043
10.7200,-4.796077708,18.96790535,1082.622744
10.7250,-4.791765986,18.96307125,1082.595354
10.7300,-4.787354286,18.95840442,1082.567845
10.7350,-4.782842156,18.95392917,1082.540231
10.7400,-4.778194637,18.94964637,1082.512485
10.7450,-4.77346031,18.9455191,1082.484599
10.7500,-4.768602663,18.94152482,1082.45655
10.7550,-4.763627854,18.93766442,1082.428348
10.7600,-4.75850513,18.93389653,1082.399943
10.7650,-4.753233766,18.93020874,1082.371339
10.7700,-4.747839427,18.92660332,1082.342537
10.7750,-4.742324632,18.92306035,1082.313527
10.7800,-4.736715539,18.91953026,1082.284294
10.7850,-4.731015,18.91600961,1082.254838
10.7900,-4.725249632,18.91244152,1082.225143
10.7950,-4.719418465,18.90883487,1082.195227
10.8000,-4.71349153,18.90513062,1082.165048
10.8050,-4.707515102,18.90134286,1082.134638
10.8100,-4.701461748,18.8974535,1082.103995
10.8150,-4.695342656,18.89341258,1082.073104
10.8200,-4.689165551,18.88926488,1082.041981
10.8250,-4.682845284,18.88506732,1082.010626
10.8300,-4.676404829,18.88079684,1081.979047
10.8350,-4.669823026,18.8765454,1081.947269
10.8400,-4.663068052,18.87228472,1081.915273
10.8450,-4.656134461,18.86800976,1081.883075
10.8500,-4.649009396,18.86371382,1081.850678
10.8550,-4.641646064,18.85942732,1081.818089
10.8600,-4.634028493,18.85514598,1081.785302
10.8650,-4.626114659,18.85089056,1081.752319
10.8700,-4.617900779,18.84660856,1081.719151
10.8750,-4.609414609,18.84226533,1081.685791
10.8800,-4.600645111,18.83790438,1081.652277
10.8850,-4.591632343,18.83347482,1081.618613
10.8900,-4.582388934,18.82894259,1081.584809
10.8950,-4.572924814,18.82429543,1081.550865
10.9000,-4.563303224,18.81953518,1081.516797
10.9050,-4.553547584,18.81463249,1081.482639
10.9100,-4.543665538,18.80958998,1081.448374
10.9150,-4.533678087,18.80438426,1081.414035
10.9200,-4.523615007,18.79909369,1081.37962
10.9250,-4.51346272,18.79366977,1081.345114
10.9300,-4.503259683,18.78815055,1081.310548
10.9350,-4.493010036,18.78255255,1081.275917
10.9400,-4.482675029,18.77692919,1081.241234
10.9450,-4.47222732,18.77126634,1081.206482
10.9500,-4.461697436,18.76560423,1081.171702
10.9550,-4.451050723,18.75999579,1081.136869
10.9600,-4.440388601,18.7544306,1081.102008
10.9650,-4.429677925,18.74889827,1081.067118
10.9700,-4.418937568,18.74345314,1081.032204
10.9750,-4.408176753,18.73813871,1080.997266
10.9800,-4.397397122,18.73292725,1080.962281
10.9850,-4.386601196,18.72785103,1080.927272
10.9900,-4.37577084,18.72288267,1080.892218
10.9950,-4.364894826,18.71804356,1080.857118
11.0000,-4.35400781,18.71331585,1080.821982
11.0050,-4.343119987,18.70869336,1080.7868
11.0100,-4.33225268,18.70413336,1080.751558
11.0150,-4.321442242,18.69963608,1080.716264
11.0200,-4.310606012,18.69520864,1080.680874
11.0250,-4.299749753,18.69083721,1080.645378
11.0300,-4.288838786,18.6866022,1080.6098
11.0350,-4.277847948,18.68248916,1080.574118
11.0400,-4.266789916,18.67848282,1080.538328
11.0450,-4.255668917,18.67454938,1080.502423
11.0500,-4.244515181,18.67070791,1080.46641
11.0550,-4.233311898,18.66690264,1080.430274
11.0600,-4.222077692,18.6631643,1080.394028
11.0650,-4.210845091,18.65946253,1080.357669
11.0700,-4.199563169,18.65577269,1080.321161
11.0750,-4.188286991,18.65205515,1080.28452
11.0800,-4.176956801,18.64831695,1080.247734
11.0850,-4.165572234,18.64456289,1080.210796
11.0900,-4.154147501,18.64075598,1080.173719
11.0950,-4.142688281,18.63690991,1080.136484
11.1000,-4.131196889,18.63304896,1080.09911
11.1050,-4.119620414,18.62918754,1080.061581
11.1100,-4.107939034,18.62528037,1080.023899
11.1150,-4.096111959,18.62141669,1079.986091
11.1200,-4.084124805,18.61751185,1079.948152
11.1250,-4.071960073,18.61354357,1079.910079
11.1300,-4.059587223,18.60953911,1079.871871
11.1350,-4.046981042,18.60553375,1079.83356
11.1400,-4.034050644,18.60151435,1079.795129
11.1450,-4.020754816,18.59753066,1079.756572
11.1500,-4.007062342,18.59358042,1079.717915
11.1550,-3.992874708,18.58968114,1079.679147
11.1600,-3.97818396,18.58583612,1079.640289
11.1650,-3.962949331,18.58204319,1079.601351
11.1700,-3.947119558,18.57833056,1079.56233
11.1750,-3.93065077,18.57464801,1079.523249
11.1800,-3.9135862,18.57099091,1079.484118
11.1850,-3.89587836,18.56737383,1079.444932
11.1900,-3.877537045,18.56380839,1079.405719
11.1950,-3.858567425,18.56026197,1079.366477
11.2000,-3.838956692,18.55670912,1079.327223
11.2050,-3.818749037,18.55313799,1079.287959
11.2100,-3.797941865,18.5495067,1079.248696
11.2150,-3.776549258,18.54574808,1079.209422
11.2200,-3.754656502,18.54182236,1079.170178
11.2250,-3.732268687,18.53772019,1079.13098
11.2300,-3.709436506,18.53337509,1079.091828
11.2350,-3.686193182,18.52875062,1079.052741
11.2400,-3.662604762,18.52380164,1079.013733
11.2450,-3.638708862,18.51856105,1078.974837
11.2500,-3.614570749,18.51299094,1078.936064
11.2550,-3.59024079,18.50703305,1078.897433
11.2600,-3.565729918,18.50073792,1078.858964
11.2650,-3.541080418,18.49408571,1078.820662
11.2700,-3.516351011,18.48709695,1078.782557
11.2750,-3.491550003,18.4797425,1078.744654
11.2800,-3.466731382,18.47201619,1078.706974
11.2850,-3.441912661,18.4638973,1078.669511
11.2900,-3.41705671,18.45543333,1078.632269
11.2950,-3.392191157,18.44659134,1078.595259
11.3000,-3.367315101,18.43738025,1078.558474
11.3050,-3.342421199,18.42781969,1078.521936
11.3100,-3.317514765,18.41792551,1078.485652
11.3150,-3.29261687,18.4076669,1078.449621
11.3200,-3.267785533,18.39703456,1078.413882
11.3250,-3.243046919,18.38606711,1078.378454
11.3300,-3.218481616,18.37471921,1078.343332
11.3350,-3.194095693,18.3629877,1078.308512
11.3400,-3.169912404,18.35087894,1078.274006
11.3450,-3.145929436,18.33844869,1078.239822
11.3500,-3.12215173,18.32570628,1078.205949
11.3550,-3.098583536,18.3127217,1078.172396
11.3600,-3.075192494,18.29950483,1078.139174
11.3650,-3.051941482,18.28610164,1078.106276
11.3700,-3.028880021,18.27251626,1078.073723
11.3750,-3.006012854,18.25878137,1078.041505
11.3800,-2.983345175,18.24492729,1078.009618
11.3850,-2.960913677,18.23094604,1077.978086
11.3900,-2.938681336,18.21689057,1077.946909
11.3950,-2.916674176,18.20274612,1077.916097
11.4000,-2.894882744,18.18856724,1077.885669
11.4050,-2.873355121,18.17433335,1077.855619
11.4100,-2.85208164,18.16011762,1077.82595
11.4150,-2.831056765,18.14591797,1077.796654
11.4200,-2.810268437,18.13178416,1077.767729
11.4250,-2.789736707,18.11779668,1077.739185
11.4300,-2.769367903,18.10396233,1077.710998
11.4350,-2.749157554,18.09031781,1077.683154
11.4400,-2.729129824,18.07690243,1077.655671
11.4450,-2.70923367,18.06374045,1077.628545
11.4500,-2.689428307,18.05086579,1077.601757
11.4550,-2.669787933,18.03829163,1077.575321
11.4600,-2.650275514,18.0259896,1077.54922
11.4650,-2.63091786,18.01398943,1077.523451
11.4700,-2.611773541,18.00227168,1077.498024
11.4750,-2.592859306,17.99087599,1077.472925
11.4800,-2.57417982,17.97980746,1077.448165
11.4850,-2.555738465,17.96904895,1077.423744
11.4900,-2.537537688,17.95860279,1077.399646
11.4950,-2.519657772,17.94851486,1077.375901
11.5000,-2.502064589,17.93874646,1077.352476
11.5050,-2.484793672,17.92931674,1077.329372
11.5100,-2.467885073,17.92023118,1077.306572
11.5150,-2.451367212,17.91149841,1077.284065
11.5200,-2.435215007,17.90308708,1077.261829
11.5250,-2.419435718,17.89500706,1077.239851
11.5300,-2.404050445,17.88729198,1077.218149
11.5350,-2.389076289,17.87993206,1077.196713
11.5400,-2.374550688,17.87292478,1077.17554
11.5450,-2.360527066,17.8662723,1077.154632
11.5500,-2.347015915,17.86000331,1077.133993
11.5550,-2.334091743,17.8541112,1077.11362
11.5600,-2.321748923,17.84859876,1077.093502
11.5650,-2.310032788,17.84350005,1077.073653
11.5700,-2.298914293,17.83881289,1077.054072
11.5750,-2.288401567,17.83456356,1077.034744
11.5800,-2.278486603,17.83077695,1077.015674
11.5850,-2.269209905,17.82745761,1076.99686
11.5900,-2.260588026,17.82458481,1076.978298
11.5950,-2.25261296,17.82215493,1076.959973
11.6000,-2.245258449,17.82020554,1076.941894
11.6050,-2.238564215,17.81867144,1076.924043
11.6100,-2.232492033,17.81759245,1076.906423
11.6150,-2.227032031,17.81694665,1076.889033
11.6200,-2.222158931,17.81672358,1076.871865
11.6250,-2.217817906,17.81694583,1076.854915
11.6300,-2.213971449,17.8175846,1076.838183
11.6350,-2.210581635,17.81864666,1076.821668
11.6400,-2.20755834,17.82011169,1076.805356
11.6450,-2.204863477,17.82196725,1076.789249
11.6500,-2.202430954,17.82413599,1076.773339
11.6550,-2.20015443,17.82657741,1076.757615
11.6600,-2.198029249,17.82923517,1076.742079
11.6650,-2.195987451,17.83207021,1076.726723
11.6700,-2.193983737,17.83499538,1076.711546
11.6750,-2.191915678,17.83795215,1076.696535
11.6800,-2.189759879,17.84089249,1076.681698
11.6850,-2.18747818,17.84376738,1076.66703
11.6900,-2.185031516,17.84652971,1076.652527
11.6950,-2.182376772,17.8491623,1076.638187
11.7000,-2.179502369,17.85160101,1076.623999
11.7050,-2.176334371,17.85386759,1076.609961
11.7100,-2.172882381,17.85589381,1076.596062
11.7150,-2.169138993,17.85763732,1076.582293
11.7200,-2.165075728,17.85906374,1076.568638
11.7250,-2.160692036,17.86010442,1076.555085
11.7300,-2.15601388,17.86071889,1076.541634
11.7350,-2.151072434,17.86084781,1076.528277
11.7400,-2.145842792,17.86051263,1076.515001
11.7450,-2.140361132,17.85963011,1076.501794
11.7500,-2.134679359,17.85821026,1076.488666
11.7550,-2.12885909,17.8562427,1076.475623
11.7600,-2.1229402,17.85378582,1076.46268
11.7650,-2.116975313,17.85082666,1076.449841
11.7700,-2.110931129,17.84740134,1076.437093
11.7750,-2.104852523,17.84355318,1076.424452
11.7800,-2.098757931,17.83928387,1076.411907
11.7850,-2.092736574,17.83463523,1076.399471
11.7900,-2.086765255,17.829605,1076.387125
11.7950,-2.080829455,17.82415813,1076.374853
11.8000,-2.074993579,17.81832317,1076.362669
11.8050,-2.069230959,17.81211045,1076.350567
11.8100,-2.063531647,17.80550744,1076.338545
11.8150,-2.057875769,17.79853302,1076.326604
11.8200,-2.052277621,17.79122912,1076.314752
11.8250,-2.046767678,17.78361951,1076.303
11.8300,-2.041331331,17.77571747,1076.291341
11.8350,-2.035953144,17.76757341,1076.279779
11.8400,-2.030567541,17.75926887,1076.268311
11.8450,-2.025126962,17.75074396,1076.256921
11.8500,-2.019614891,17.74205835,1076.24561
11.8550,-2.013956232,17.73329302,1076.23438
11.8600,-2.008130134,17.72443458,1076.223229
11.8650,-2.002082169,17.71549449,1076.212147
11.8700,-1.995823757,17.70648814,1076.201131
11.8750,-1.989332403,17.69739434,1076.190175
11.8800,-1.982611167,17.68824977,1076.179294
11.8850,-1.975620009,17.67906893,1076.168481
11.8900,-1.968386261,17.66980603,1076.157741
11.8950,-1.960889811,17.66051517,1076.147085
11.9000,-1.953169711,17.65117013,1076.136521
11.9050,-1.945225003,17.64179219,1076.126061
11.9100,-1.937090594,17.63233805,1076.115708
11.9150,-1.92869015,17.62281343,1076.105445
11.9200,-1.920060686,17.61317703,1076.095275
11.9250,-1.911242048,17.60342305,1076.085209
11.9300,-1.902200627,17.59356589,1076.075239
11.9350,-1.892953648,17.58357352,1076.065364
11.9400,-1.883535837,17.57340577,1076.055587
11.9450,-1.87390383,17.56306511,1076.045895
11.9500,-1.864069868,17.55258485,1076.036296
11.9550,-1.854000724,17.54194405,1076.026774
11.9600,-1.843719504,17.5311611,1076.017333
11.9650,-1.83324971,17.5202164,1076.007974
11.9700,-1.822609501,17.50910396,1075.998693
11.9750,-1.811849402,17.4978213,1075.9895
11.9800,-1.800998828,17.48636183,1075.980397
11.9850,-1.790085448,17.47473989,1075.971385
11.9900,-1.779109022,17.46295015,1075.962463
11.9950,-1.76809308,17.4509442,1075.953626
12.0000,-1.757058482,17.43874171,1075.944875
12.0050,-1.746015825,17.42632548,1075.936207
12.0100,-1.734977223,17.4136938,1075.927624
12.0150,-1.72392785,17.40081967,1075.919112
12.0200,-1.712943553,17.38774614,1075.910698
12.0250,-1.701974537,17.37448728,1075.902365
12.0300,-1.691062755,17.36103889,1075.894119
12.0350,-1.680141646,17.34745199,1075.885947
12.0400,-1.66924749,17.33369699,1075.877854
12.0450,-1.65841407,17.31985202,1075.869853
12.0500,-1.647581422,17.30587841,1075.861918
12.0550,-1.636724693,17.29181342,1075.854046
12.0600,-1.625831269,17.27766567,1075.846233
12.0650,-1.614884112,17.26344641,1075.838468
12.0700,-1.603941518,17.24916647,1075.83077
12.0750,-1.592966918,17.23481408,1075.823121
12.0800,-1.581980548,17.22038715,1075.815527
12.0850,-1.570912404,17.20591307,1075.807972
12.0900,-1.559846521,17.19140568,1075.800482
12.0950,-1.548766989,17.17689275,1075.793052
12.1000,-1.537663306,17.16237787,1075.78568
12.1050,-1.526575846,17.14785732,1075.778374
12.1100,-1.515534111,17.13339381,1075.771151
12.1150,-1.504551054,17.11900044,1075.764012
12.1200,-1.493604507,17.10466907,1075.756949
12.1250,-1.482657431,17.09041358,1075.749958
12.1300,-1.471738312,17.07624142,1075.743047
12.1350,-1.460821189,17.06216255,1075.736209
12.1400,-1.449922894,17.04813412,1075.729443
12.1450,-1.439049947,17.03423767,1075.722757
12.1500,-1.428160792,17.02046552,1075.716139
12.1550,-1.417234791,17.00679247,1075.709581
12.1600,-1.406276619,16.99321195,1075.703082
12.1650,-1.395260774,16.97976493,1075.696635
12.1700,-1.384179629,16.96644339,1075.690239
12.1750,-1.37304558,16.95323969,1075.683892
12.1800,-1.361821694,16.94015719,1075.677585
12.1850,-1.350501044,16.92718532,1075.671311
12.1900,-1.339092526,16.91438586,1075.665077
12.1950,-1.327624178,16.90172186,1075.658881
12.2000,-1.316070848,16.88918036,1075.652716
12.2050,-1.304379707,16.8767568,1075.646564
12.2100,-1.292557817,16.86450255,1075.64043
12.2150,-1.280644447,16.85240153,1075.634322
12.2200,-1.268614757,16.84046891,1075.628233
12.2250,-1.256459687,16.82869735,1075.622162
12.2300,-1.244213848,16.81703711,1075.616112
12.2350,-1.231826541,16.80548275,1075.610073
12.2400,-1.219288683,16.79408146,1075.604047
12.2450,-1.206611063,16.78280317,1075.598037
12.2500,-1.193761145,16.77163108,1075.592037
12.2550,-1.180786541,16.76055078,1075.586061
12.2600,-1.167629455,16.74956258,1075.580095
12.2650,-1.154301399,16.73862085,1075.574144
12.2700,-1.140747014,16.72774842,1075.568201
12.2750,-1.126873655,16.7169588,1075.562247
12.2800,-1.112706526,16.70624495,1075.556289
12.2850,-1.098211041,16.69558939,1075.550321
12.2900,-1.083403321,16.68502414,1075.544347
12.2950,-1.068283493,16.67452631,1075.538365
12.3000,-1.052872315,16.66408567,1075.532383
12.3050,-1.037202014,16.65369707,1075.526405
12.3100,-1.021310753,16.64334934,1075.520438
12.3150,-1.005262861,16.63306181,1075.514499
12.3200,-0.989058574,16.62282542,1075.508585
12.3250,-0.9727828028,16.6126273,1075.502714
12.3300,-0.9563966403,16.6025328,1075.496881
12.3350,-0.9399821769,16.59244652,1075.491095
12.3400,-0.9235746105,16.58240504,1075.485365
12.3450,-0.9071756209,16.57239343,1075.479691
12.3500,-0.8908837852,16.56240394,1075.474091
12.3550,-0.8747095905,16.55245712,1075.46857
12.3600,-0.8586979143,16.54248213,1075.463128
12.3650,-0.8428931247,16.53249479,1075.45778
12.3700,-0.8272953211,16.52246994,1075.452519
12.3750,-0.8119507378,16.51240212,1075.447355
12.3800,-0.7968504449,16.50229725,1075.442286
12.3850,-0.7820328513,16.49207514,1075.437316
12.3900,-0.7674531249,16.48178117,1075.432437
12.3950,-0.7531048093,16.47135456,1075.427642
12.4000,-0.7390461402,16.46080637,1075.422944
12.4050,-0.7252156339,16.45010442,1075.418327
12.4100,-0.7116199662,16.43921218,1075.413788
12.4150,-0.6982829457,16.42811839,1075.409335
12.4200,-0.6852044784,16.41680848,1075.404964
12.4250,-0.6724227067,16.40525358,1075.400678
12.4300,-0.6599805363,16.39346927,1075.396486
12.4350,-0.6479093816,16.38143007,1075.392392
12.4400,-0.63623565,16.3691567,1075.388401
12.4450,-0.6249675636,16.35662843,1075.384511
12.4500,-0.6141295238,16.34387099,1075.380726
12.4550,-0.6037702148,16.33087428,1075.377055
12.4600,-0.5938538604,16.31770679,1075.37349
12.4650,-0.5844241431,16.30436479,1075.370039
12.4700,-0.5754681541,16.29090076,1075.366702
12.4750,-0.5669695117,16.27734757,1075.363474
12.4800,-0.5589513001,16.26370872,1075.360358
12.4850,-0.5514281087,16.25000783,1075.357359
12.4900,-0.5443675449,16.2362212,1075.354466
12.4950,-0.5377685199,16.22240215,1075.351681
12.5000,-0.5316193666,16.20854854,1075.349
12.5050,-0.5259331486,16.19472341,1075.34643
12.5100,-0.5206467893,16.1809085,1075.343955
12.5150,-0.5157599005,16.1671482,1075.341579
12.5200,-0.5111878316,16.15351878,1075.339286
12.5250,-0.5068971929,16.14004188,1075.337074
12.5300,-0.50284055,16.12674785,1075.334932
12.5350,-0.4990029956,16.11367894,1075.33286
12.5400,-0.4953297345,16.10088411,1075.330849
12.5450,-0.4917998679,16.08838135,1075.328897
12.5500,-0.4883694098,16.0762326,1075.326994
12.5550,-0.4849942515,16.06447339,1075.325135
12.5600,-0.4816532491,16.05311064,1075.323314
12.5650,-0.4782677897,16.04225237,1075.321521
12.5700,-0.4748369255,16.03188671,1075.319755
12.5750,-0.4714279884,16.02207041,1075.318034
12.5800,-0.4680001638,16.0127743,1075.316347
12.5850,-0.4645436699,16.00403902,1075.314691
12.5900,-0.4610568276,15.99589689,1075.31307
12.5950,-0.4574972526,15.9884071,1075.311477
12.6000,-0.4538753809,15.98157709,1075.309915
12.6050,-0.4501610672,15.97545611,1075.308383
12.6100,-0.4463596955,15.97008015,1075.306882
12.6150,-0.4424611147,15.96545273,1075.305411
12.6200,-0.4384597489,15.96162566,1075.303972
12.6250,-0.4343456414,15.95859156,1075.302564
12.6300,-0.4301778688,15.95631832,1075.301197
12.6350,-0.4259880306,15.95488055,1075.299884
12.6400,-0.4217430511,15.95422833,1075.298616
12.6450,-0.4174965115,15.9543842,1075.297404
12.6500,-0.4132356496,15.95539434,1075.296251
12.6550,-0.4089901486,15.95714431,1075.295156
12.6600,-0.4047663245,15.95970178,1075.294126
12.6650,-0.4005612527,15.96298362,1075.293155
12.6700,-0.3963700683,15.96697137,1075.292243
12.6750,-0.3921963033,15.97163423,1075.291389
12.6800,-0.3880402362,15.97689478,1075.29059
12.6850,-0.3839051626,15.98276098,1075.289847
12.6900,-0.379832308,15.98908736,1075.289163
12.6950,-0.3758602897,15.99584401,1075.288541
12.7000,-0.3719101962,16.00294012,1075.287964
12.7050,-0.3680395092,16.01033086,1075.287439
12.7100,-0.3642433868,16.01794003,1075.286962
12.7150,-0.3604579374,16.02566858,1075.286514
12.7200,-0.356753367,16.03346788,1075.286105
12.7250,-0.3530966291,16.04124276,1075.285723
12.7300,-0.3494737095,16.04897499,1075.285363
12.7350,-0.3459273281,16.05660564,1075.28503
12.7400,-0.3424728484,16.06408438,1075.284722
12.7450,-0.3391643194,16.07137834,1075.284448
12.7500,-0.3360196537,16.07842143,1075.284206
12.7550,-0.3330764175,16.08521454,1075.284003
12.7600,-0.3303797303,16.09165294,1075.283841
12.7650,-0.3279672338,16.09773674,1075.283724
12.7700,-0.3258713395,16.10341803,1075.283657
12.7750,-0.3241580507,16.10867566,1075.28365
12.7800,-0.3228302243,16.11350096,1075.283702
12.7850,-0.321957049,16.11787718,1075.283825
12.7900,-0.3215360582,16.1218352,1075.284017
12.7950,-0.3215835258,16.1253037,1075.284279
12.8000,-0.3220882296,16.12832193,1075.284609
12.8050,-0.3230446974,16.13084272,1075.285002
12.8100,-0.3244663003,16.13285278,1075.285462
12.8150,-0.3263764002,16.13432664,1075.285992
12.8200,-0.3288184884,16.13523881,1075.286601
12.8250,-0.3317783486,16.13554195,1075.287282
12.8300,-0.3351944493,16.13529174,1075.28803
12.8350,-0.3390539186,16.13445778,1075.288839
12.8400,-0.3433490386,16.13299761,1075.289709
12.8450,-0.3480144628,16.1309291,1075.290627
12.8500,-0.3530277138,16.12822871,1075.29159
12.8550,-0.3583545812,16.12494644,1075.292594
12.8600,-0.3639320287,16.12111348,1075.293631
12.8650,-0.3697706141,16.11673689,1075.294703
12.8700,-0.3758256487,16.11185236,1075.295805
12.8750,-0.3819994504,16.10649039,1075.296918
12.8800,-0.3882867244,16.10076906,1075.298048
12.8850,-0.3946057891,16.09475175,1075.299184
12.8900,-0.4009217268,16.08843922,1075.30032
12.8950,-0.4072225011,16.08193558,1075.301459
12.9000,-0.413413433,16.0753258,1075.302585
12.9050,-0.4195047846,16.06862481,1075.303701
12.9100,-0.4254424253,16.06192859,1075.304802
12.9150,-0.4312059922,16.05530543,1075.305887
12.9200,-0.4367542669,16.04877313,1075.306948
12.9250,-0.4420642847,16.04244932,1075.307986
12.9300,-0.4471480694,16.03638883,1075.309009
12.9350,-0.4519694787,16.03062343,1075.310006
12.9400,-0.4565733535,16.02521622,1075.310991
12.9450,-0.4609254031,16.02016839,1075.31196
12.9500,-0.465030923,16.01550648,1075.312911
12.9550,-0.4689198493,16.01129574,1075.313857
12.9600,-0.4725905021,16.0075073,1075.314795
12.9650,-0.4761137694,16.00416124,1075.315743
12.9700,-0.4795173027,16.00131113,1075.316708
12.9750,-0.482839031,15.99890405,1075.317698
12.9800,-0.4861391213,15.99696293,1075.318725
12.9850,-0.4894312066,15.99547944,1075.319793
12.9900,-0.4928239551,15.99444693,1075.320924
12.9950,-0.4962562539,15.99389047,1075.32211
13.0000,-0.4998449718,15.99379354,1075.323374
13.0050,-0.5035972616,15.99413269,1075.324719
13.0100,-0.5076080222,15.99487369,1075.326165
13.0150,-0.5119142736,15.99601704,1075.327719
13.0200,-0.5165527476,15.99754786,1075.329393
13.0250,-0.521550031,15.99948374,1075.331194
13.0300,-0.5269097296,16.0017412,1075.333122
13.0350,-0.5326459677,16.00429117,1075.335182
13.0400,-0.538758539,16.00717439,1075.337379
13.0450,-0.5452352045,16.01034712,1075.339711
13.0500,-0.5520832682,16.01380508,1075.342182
13.0550,-0.5592730826,16.01751569,1075.344786
13.0600,-0.5668585534,16.02148099,1075.347536
13.0650,-0.5747947505,16.02563398,1075.350426
13.0700,-0.5831027826,16.02997876,1075.353462
13.0750,-0.5917331116,16.03451472,1075.356636
13.0800,-0.6007136199,16.03917934,1075.359954
13.0850,-0.6099938757,16.04399927,1075.36341
13.0900,-0.6196009122,16.04890847,1075.367009
13.0950,-0.6295299522,16.05392511,1075.370756
13.1000,-0.6397685665,16.05898829,1075.374646
13.1050,-0.6503337034,16.06413248,1075.37869
13.1100,-0.661271192,16.06932694,1075.382895
13.1150,-0.6725304269,16.07457423,1075.387259
13.1200,-0.6841135178,16.07984715,1075.391779
13.1250,-0.6960072912,16.08517758,1075.396459
13.1300,-0.7082926837,16.09051476,1075.401317
13.1350,-0.7209554976,16.09589929,1075.406352
13.1400,-0.7339948094,16.10134086,1075.411565
13.1450,-0.7474082469,16.10687467,1075.416964
13.1500,-0.7612106648,16.1125018,1075.422556
13.1550,-0.7754242323,16.11822932,1075.428343
13.1600,-0.790076321,16.12402795,1075.434334
13.1650,-0.8051511795,16.12992349,1075.440529
13.1700,-0.8206859129,16.13594708,1075.446938
13.1750,-0.8366966066,16.14210026,1075.453569
13.1800,-0.8531180734,16.14839997,1075.460409
13.1850,-0.8700174557,16.15482039,1075.467476
13.1900,-0.8874010325,16.16140696,1075.474773
13.1950,-0.9052233413,16.16815263,1075.482295
13.2000,-0.9235152587,16.17506575,1075.490051
13.2050,-0.9422267547,16.18214885,1075.498033
13.2100,-0.9613610379,16.18938129,1075.506241
13.2150,-0.9808749667,16.19681222,1075.514674
13.2200,-1.000789328,16.20447027,1075.523338
13.2250,-1.021078196,16.21228422,1075.532227
13.2300,-1.041736878,16.22026026,1075.54134
13.2350,-1.062741809,16.22839744,1075.550682
13.2400,-1.084093904,16.23670263,1075.560252
13.2450,-1.10579191,16.24521175,1075.570052
13.2500,-1.12780418,16.25394108,1075.580082
13.2550,-1.150085046,16.26286264,1075.590335
13.2600,-1.172662505,16.27199201,1075.600819
13.2650,-1.195435434,16.28135641,1075.611518
13.2700,-1.218421688,16.29088303,1075.622437
13.2750,-1.241602347,16.30057285,1075.633572
13.2800,-1.264951803,16.31042908,1075.644923
13.2850,-1.288480674,16.32037702,1075.656491
13.2900,-1.312109988,16.33040859,1075.668263
13.2950,-1.335895488,16.34046083,1075.680256
13.3000,-1.359724252,16.35056076,1075.692445
13.3050,-1.383635366,16.36066471,1075.704842
13.3100,-1.407572214,16.3708104,1075.717438
13.3150,-1.431449697,16.38098323,1075.730225
13.3200,-1.455231124,16.39111727,1075.743183
13.3250,-1.478957655,16.40123918,1075.756335
13.3300,-1.502601642,16.41135042,1075.769674
13.3350,-1.52614605,16.42144821,1075.783195
13.3400,-1.549561806,16.43152888,1075.796893
13.3450,-1.572802696,16.44155862,1075.810757
13.3500,-1.595903322,16.45157553,1075.824809
13.3550,-1.618864098,16.46155542,1075.839042
13.3600,-1.641664308,16.47153841,1075.85346
13.3650,-1.664339015,16.48152548,1075.868066
13.3700,-1.686880246,16.49150225,1075.882851
13.3750,-1.709332947,16.50149915,1075.897832
13.3800,-1.731680729,16.51150885,1075.913003
13.3850,-1.753925868,16.52155591,1075.928363
13.3900,-1.776019278,16.53167209,1075.9439
13.3950,-1.797948687,16.54188586,1075.959615
13.4000,-1.819790825,16.55223048,1075.975522
13.4050,-1.841529108,16.56265707,1075.991618
13.4100,-1.863125892,16.57324931,1076.007894
13.4150,-1.884605123,16.58402169,1076.024356
13.4200,-1.905921003,16.59501073,1076.040997
13.4250,-1.927077777,16.60619773,1076.057815
13.4300,-1.948064077,16.61759715,1076.074809
13.4350,-1.968889862,16.62919985,1076.091985
13.4400,-1.989559286,16.64101729,1076.109345
13.4450,-2.010088833,16.65305739,1076.126892
13.4500,-2.030484667,16.66537157,1076.144636
13.4550,-2.050754545,16.67791779,1076.162578
13.4600,-2.070900664,16.69071842,1076.180719
13.4650,-2.09093586,16.70376738,1076.19907
13.4700,-2.110850627,16.71710177,1076.217628
13.4750,-2.130707085,16.73070434,1076.236409
13.4800,-2.150554506,16.74456329,1076.255421
13.4850,-2.170358778,16.75867208,1076.274658
13.4900,-2.190150326,16.77302804,1076.294119
13.4950,-2.210006558,16.78759852,1076.313826
13.5000,-2.229913047,16.80236716,1076.333764
13.5050,-2.249931634,16.81733536,1076.353951
13.5100,-2.270051564,16.83249152,1076.374382
13.5150,-2.290327566,16.84781513,1076.395065
13.5200,-2.310700105,16.86328151,1076.415983
13.5250,-2.331252711,16.8788503,1076.437151
13.5300,-2.351916147,16.89457272,1076.458561
13.5350,-2.372736064,16.91040468,1076.480216
13.5400,-2.3936618,16.92632817,1076.502095
13.5450,-2.414688207,16.94231908,1076.524206
13.5500,-2.435816151,16.95834744,1076.546543
13.5550,-2.457033576,16.97442625,1076.569105
13.5600,-2.478309265,16.99054316,1076.591884
13.5650,-2.49972604,17.0066937,1076.614901
13.5700,-2.521209752,17.02286242,1076.638126
13.5750,-2.54277718,17.03906851,1076.661572
