type,name,time_units,begin_time,frequency,count,units
signal_3d,"Noraxon MyoMotion-Trajectories-Ulnar styloid process RT","s",0.0000,200,5008,"mm"

time,x,y,z
0.0000,116.5612259,22.84294972,991.2296655
0.0050,116.5883687,22.83960164,991.2241464
0.0100,116.6155114,22.83625131,991.2186283
0.0150,116.642654,22.83289871,991.2131113
0.0200,116.6713691,22.82927292,991.2072757
0.0250,116.7013945,22.82538238,991.2011704
0.0300,116.7324428,22.82122848,991.1948477
0.0350,116.7642102,22.81679981,991.1883614
0.0400,116.79639,22.81207572,991.1817654
0.0450,116.8286882,22.80703861,991.175113
0.0500,116.8608345,22.80168282,991.1684555
0.0550,116.8925852,22.79601452,991.1618412
0.0600,116.9237236,22.79005239,991.155315
0.0650,116.9540578,22.78383468,991.1489194
0.0700,116.9834206,22.77742307,991.1426943
0.0750,117.0116701,22.77089562,991.1366764
0.0800,117.0386855,22.76433621,991.1308981
0.0850,117.0643574,22.75782684,991.1253887
0.0900,117.0885838,22.75144088,991.120175
0.0950,117.1112742,22.74523716,991.1152802
0.1000,117.1323512,22.73925742,991.1107231
0.1050,117.1517493,22.7335286,991.1065195
0.1100,117.1694146,22.72806678,991.1026817
0.1150,117.1853081,22.72287681,991.0992186
0.1200,117.199404,22.71795105,991.0961345
0.1250,117.2116899,22.71327311,991.0934295
0.1300,117.2221688,22.70882171,991.0910982
0.1350,117.2308623,22.70457195,991.0891297
0.1400,117.2378157,22.70049944,991.0875071
0.1450,117.2431053,22.69658663,991.0862073
0.1500,117.2468513,22.69282526,991.0851995
0.1550,117.2668125,22.69200489,991.0812885
0.1600,117.2844393,22.6912722,991.0778274
0.1650,117.3009302,22.6913677,991.0747165
0.1700,117.3154828,22.69200871,991.0719925
0.1750,117.3305052,22.69443834,991.0692126
0.1800,117.3441064,22.69817934,991.0668514
0.1850,117.3572788,22.70304308,991.064568
0.1900,117.3694353,22.70804472,991.0624247
0.1950,117.3808373,22.71384689,991.0605006
0.2000,117.3920291,22.72097706,991.058816
0.2050,117.4038699,22.72914735,991.0571166
0.2100,117.4141221,22.73821236,991.0558221
0.2150,117.4250478,22.74742459,991.0543095
0.2200,117.4352466,22.75828678,991.053123
0.2250,117.4461547,22.77027047,991.0519746
0.2300,117.4573622,22.78343193,991.0508662
0.2350,117.4686682,22.79723007,991.0498046
0.2400,117.4782981,22.81176579,991.0491215
0.2450,117.4871425,22.82698758,991.0487176
0.2500,117.4949936,22.84403338,991.0487716
0.2550,117.5027047,22.8602637,991.0487394
0.2600,117.5071093,22.87724676,991.0494784
0.2650,117.5106693,22.89494738,991.0505613
0.2700,117.5122165,22.9129045,991.052173
0.2750,117.5122314,22.93082034,991.0541912
0.2800,117.5101601,22.94986585,991.0568006
0.2850,117.5057811,22.96888708,991.0599662
0.2900,117.4993345,22.98820923,991.0636229
0.2950,117.4895533,23.00744675,991.0680638
0.3000,117.4767142,23.0277863,991.0733405
0.3050,117.4614063,23.04811153,991.0792848
0.3100,117.4437932,23.06867076,991.0858791
0.3150,117.4232387,23.08903082,991.0930821
0.3200,117.4006402,23.10987899,991.1009091
0.3250,117.3777112,23.1310149,991.1090475
0.3300,117.3535046,23.1517808,991.1175592
0.3350,117.3269843,23.17278216,991.1266138
0.3400,117.298606,23.19360738,991.136188
0.3450,117.2676213,23.21412688,991.1463085
0.3500,117.2366115,23.23368115,991.1564403
0.3550,117.2042149,23.25265574,991.1668049
0.3600,117.1715322,23.27064331,991.1771769
0.3650,117.1388052,23.28801154,991.1875253
0.3700,117.1056781,23.30477238,991.1978812
0.3750,117.0713694,23.32005578,991.2082542
0.3800,117.0365198,23.33486789,991.2187146
0.3850,117.0016929,23.34873617,991.2290307
0.3900,116.9676609,23.36294818,991.2392425
0.3950,116.93473,23.37542351,991.2489853
0.4000,116.9028074,23.38817496,991.25845
0.4050,116.8724539,23.39988433,991.2674175
0.4100,116.8437289,23.41109636,991.2759362
0.4150,116.8167543,23.42289065,991.2840557
0.4200,116.7922457,23.43436215,991.2915709
0.4250,116.7686206,23.44541565,991.298684
0.4300,116.7474319,23.4565652,991.3053586
0.4350,116.728958,23.46817104,991.3113918
0.4400,116.7119016,23.47995724,991.3171232
0.4450,116.6966819,23.49125998,991.3222588
0.4500,116.6840566,23.50345022,991.3269101
0.4550,116.6744413,23.51462821,991.3307539
0.4600,116.666714,23.52533256,991.3340242
0.4650,116.6589935,23.5358529,991.3371657
0.4700,116.6535719,23.54577729,991.3397293
0.4750,116.6478607,23.55459171,991.342204
0.4800,116.643898,23.56293238,991.3442521
0.4850,116.6397195,23.57065386,991.3462067
0.4900,116.6354468,23.57938136,991.348291
0.4950,116.631222,23.5867694,991.3502351
0.5000,116.626292,23.59520809,991.3524851
0.5050,116.6206403,23.6031168,991.3549428
0.5100,116.6153094,23.61150609,991.357561
0.5150,116.6086016,23.62064623,991.3608174
0.5200,116.6001964,23.63023919,991.3647238
0.5250,116.5893918,23.64051406,991.3693806
0.5300,116.5769198,23.65171943,991.3748704
0.5350,116.5620844,23.66436086,991.3813977
0.5400,116.5448626,23.67831575,991.3890154
0.5450,116.5255869,23.69355961,991.3975751
0.5500,116.5026638,23.71011352,991.407467
0.5550,116.4751464,23.72895403,991.4190686
0.5600,116.444548,23.75050985,991.4322357
0.5650,116.4095833,23.77425557,991.4470698
0.5700,116.3695112,23.8009226,991.463921
0.5750,116.3231925,23.83114322,991.4830827
0.5800,116.270678,23.86441197,991.5044616
0.5850,116.2122105,23.90050789,991.5280475
0.5900,116.1474828,23.9387401,991.5538279
0.5950,116.0763744,23.98120116,991.582012
0.6000,115.9991074,24.02546919,991.6122235
0.6050,115.9156363,24.07182896,991.6445627
0.6100,115.8259899,24.12041149,991.6790194
0.6150,115.7306602,24.17112759,991.7155718
0.6200,115.6290957,24.22303851,991.7540938
0.6250,115.5205783,24.27699526,991.7949031
0.6300,115.4064933,24.33249978,991.8375963
0.6350,115.2869948,24.38827507,991.8819505
0.6400,115.1618583,24.44379462,991.9279587
0.6450,115.0322222,24.49910326,991.9753135
0.6500,114.8957734,24.55387806,992.0244177
0.6550,114.7542486,24.60779349,992.0749279
0.6600,114.6073337,24.66066419,992.1267237
0.6650,114.4551948,24.71132542,992.179595
0.6700,114.2992008,24.76202496,992.2335048
0.6750,114.140376,24.811874,992.2880994
0.6800,113.9779339,24.86039668,992.3432787
0.6850,113.8129685,24.90870684,992.3989813
0.6900,113.6455962,24.95680809,992.4551108
0.6950,113.4756283,25.00508297,992.5116372
0.7000,113.3024741,25.05315614,992.5685691
0.7050,113.1265221,25.10219671,992.6259624
0.7100,112.9486491,25.15131414,992.6834387
0.7150,112.7689076,25.20122485,992.740983
0.7200,112.5876209,25.2512398,992.7984334
0.7250,112.4056751,25.30225821,992.8557223
0.7300,112.2221893,25.35395546,992.9127537
0.7350,112.0368186,25.40458998,992.9695486
0.7400,111.8500368,25.45502142,993.0259939
0.7450,111.662692,25.50436791,993.0819761
0.7500,111.4724126,25.55140762,993.1378974
0.7550,111.2805098,25.59631537,993.1934635
0.7600,111.0866108,25.63869628,993.2488209
0.7650,110.8906199,25.67805764,993.3040292
0.7700,110.6915611,25.71370154,993.3591884
0.7750,110.4903113,25.74478951,993.4141256
0.7800,110.2858365,25.77179309,993.4692209
0.7850,110.0798389,25.79247136,993.5238801
0.7900,109.8723169,25.80717117,993.5782006
0.7950,109.6640527,25.81596325,993.6319507
0.8000,109.4550765,25.81804617,993.685034
0.8050,109.2460289,25.81433702,993.7373789
0.8100,109.0366238,25.80476059,993.7891922
0.8150,108.8291295,25.7900744,993.8400352
0.8200,108.6221995,25.77075576,993.8903134
0.8250,108.4172877,25.7472084,993.9398256
0.8300,108.2130562,25.71857151,993.9886483
0.8350,108.0108477,25.68652792,994.0367166
0.8400,107.8096996,25.65175728,994.0843839
0.8450,107.609495,25.61423363,994.1318041
0.8500,107.4110049,25.57239008,994.1785784
0.8550,107.213366,25.52746843,994.225124
0.8600,107.0161359,25.47981487,994.2715335
0.8650,106.8194206,25.42870625,994.3178393
0.8700,106.6227811,25.3732502,994.3639979
0.8750,106.4270019,25.31202456,994.4097347
0.8800,106.2323557,25.245828,994.455246
0.8850,106.0379863,25.17528983,994.5007768
0.8900,105.8436175,25.10048903,994.546513
0.8950,105.6504019,25.01892625,994.5919312
0.9000,105.4576516,24.93242938,994.6375155
0.9050,105.2654649,24.84119634,994.6831947
0.9100,105.0754925,24.74494594,994.7286964
0.9150,104.8872051,24.6454716,994.7742996
0.9200,104.7006079,24.54113035,994.8197811
0.9250,104.5161843,24.43296649,994.8651232
0.9300,104.3336828,24.32090783,994.9104101
0.9350,104.1534294,24.20748929,994.9559318
0.9400,103.9755044,24.09314447,995.0014821
0.9450,103.7998653,23.97736642,995.0471028
0.9500,103.6266346,23.8618338,995.0929167
0.9550,103.4555662,23.74758844,995.1388305
0.9600,103.2847973,23.63497962,995.1853816
0.9650,103.1136069,23.52478931,995.2328028
0.9700,102.9417766,23.41562222,995.2808892
0.9750,102.7662792,23.30929788,995.3304243
0.9800,102.5881854,23.20690717,995.3813629
0.9850,102.4047388,23.10723617,995.4341977
0.9900,102.2149363,23.0106836,995.4890054
0.9950,102.0188536,22.9171927,995.5457828
1.0000,101.8167374,22.82747775,995.6047565
1.0050,101.6073892,22.74178642,995.6659555
1.0100,101.3907711,22.65950897,995.7293286
1.0150,101.1669119,22.58077614,995.7949621
1.0200,100.9358781,22.50538917,995.8626171
1.0250,100.6982892,22.433533,995.9322095
1.0300,100.4535504,22.36552356,996.0038302
1.0350,100.2031734,22.30251355,996.0773235
1.0400,99.94673157,22.24376827,996.1526077
1.0450,99.68453602,22.18923839,996.2295479
1.0500,99.41786677,22.13895438,996.3077653
1.0550,99.14421042,22.09254798,996.3878166
1.0600,98.8649531,22.05040455,996.4693264
1.0650,98.57992391,22.01254667,996.5522766
1.0700,98.28917939,21.97803973,996.6367529
1.0750,97.99126402,21.9465536,996.7229196
1.0800,97.6872309,21.91662132,996.8105352
1.0850,97.37523783,21.88961058,996.9001911
1.0900,97.05432218,21.86383929,996.9920588
1.0950,96.72441104,21.83990348,997.0863213
1.1000,96.38555695,21.81765771,997.1831204
1.1050,96.03841232,21.79446445,997.2821864
1.1100,95.68392802,21.76998021,997.3833489
1.1150,95.32178577,21.7435234,997.4869136
1.1200,94.95268696,21.71487459,997.5928291
1.1250,94.57712615,21.68357112,997.7012055
1.1300,94.19707156,21.64998274,997.8119054
1.1350,93.81107372,21.61309825,997.9253132
1.1400,93.42088635,21.57113279,998.0411665
1.1450,93.02640789,21.52504685,998.1598503
1.1500,92.62769114,21.47586776,998.2818786
1.1550,92.22377053,21.4222612,998.4073586
1.1600,91.81627899,21.36435449,998.5364946
1.1650,91.40390508,21.3015208,998.6695809
1.1700,90.9869959,21.23431697,998.8070653
1.1750,90.56387914,21.16354825,998.9496622
1.1800,90.13454546,21.08904466,999.0978247
1.1850,89.69859867,21.01017411,999.2519501
1.1900,89.25626009,20.92812503,999.4125622
1.1950,88.80699702,20.84248121,999.5801442
1.2000,88.34957182,20.753969,999.7556918
1.2050,87.88501909,20.66207108,999.9392563
1.2100,87.40996596,20.56717671,1000.132144
1.2150,86.92665874,20.46806391,1000.334295
1.2200,86.43444234,20.3662953,1000.546365
1.2250,85.93403343,20.26094902,1000.768607
1.2300,85.42478354,20.15240882,1001.001785
1.2350,84.90747545,20.04074317,1001.246088
1.2400,84.38315544,19.92656708,1001.50181
1.2450,83.85062271,19.81014441,1001.76995
1.2500,83.30876448,19.69246943,1002.051215
1.2550,82.75781796,19.57276552,1002.345984
1.2600,82.19885308,19.45418417,1002.654721
1.2650,81.63030551,19.3365406,1002.977947
1.2700,81.05010322,19.22185348,1003.316794
1.2750,80.45840123,19.11158412,1003.671509
1.2800,79.8540223,19.00501076,1004.042522
1.2850,79.23411348,18.90508431,1004.430839
1.2900,78.59845778,18.8113266,1004.836653
1.2950,77.94345757,18.72614863,1005.260903
1.3000,77.26750173,18.64923256,1005.703765
1.3050,76.56899675,18.58216085,1006.1659
1.3100,75.84702177,18.52527244,1006.647342
1.3150,75.0999675,18.47995765,1007.148253
1.3200,74.32636867,18.44714019,1007.669364
1.3250,73.52470917,18.42685474,1008.210897
1.3300,72.69556934,18.41919553,1008.772573
1.3350,71.83685541,18.42442062,1009.354758
1.3400,70.9484755,18.44368931,1009.957821
1.3450,70.03100572,18.47649258,1010.581233
1.3500,69.08361686,18.52401947,1011.225513
1.3550,68.10737671,18.58528296,1011.890467
1.3600,67.10350453,18.66175631,1012.576026
1.3650,66.07104735,18.75160061,1013.282226
1.3700,65.01071206,18.85635077,1014.008754
1.3750,63.92388933,18.97709343,1014.75539
1.3800,62.81068152,19.11360814,1015.522011
1.3850,61.67187797,19.26537805,1016.308092
1.3900,60.5095698,19.43415639,1017.113544
1.3950,59.32414675,19.61828409,1017.937922
1.4000,58.1148164,19.81777584,1018.781666
1.4050,56.88133057,20.03514311,1019.644874
1.4100,55.62414011,20.26916548,1020.527311
1.4150,54.34164346,20.52026276,1021.429223
1.4200,53.03603536,20.78797175,1022.35008
1.4250,51.7063434,21.07300243,1023.289708
1.4300,50.35279596,21.37434945,1024.24805
1.4350,48.97721175,21.69181991,1025.224785
1.4400,47.57991041,22.02643527,1026.21977
1.4450,46.16199058,22.37562236,1027.232383
1.4500,44.72473125,22.73882511,1028.262028
1.4550,43.27105964,23.11639335,1029.308204
1.4600,41.80162577,23.50660554,1030.370143
1.4650,40.31912769,23.90996818,1031.44788
1.4700,38.82548199,24.32641954,1032.540464
1.4750,37.32302347,24.75441138,1033.647663
1.4800,35.81359322,25.192218,1034.768761
1.4850,34.2989788,25.64036271,1035.903251
1.4900,32.78136199,26.09717326,1037.050691
1.4950,31.26196213,26.56314867,1038.210894
1.5000,29.74421895,27.03626742,1039.382465
1.5050,28.22800211,27.51644677,1040.565954
1.5100,26.7156454,28.00419008,1041.760667
1.5150,25.20812516,28.49809625,1042.965458
1.5200,23.70731631,28.99865319,1044.180576
1.5250,22.21427783,29.50557833,1045.405155
1.5300,20.73085447,30.01821903,1046.638383
1.5350,19.25701389,30.53576092,1047.880224
1.5400,17.7935092,31.05822322,1049.130668
1.5450,16.34181062,31.58589176,1050.388767
1.5500,14.90352876,32.11695849,1051.653968
1.5550,13.47906473,32.65182967,1052.926259
1.5600,12.06806509,33.18801089,1054.205375
1.5650,10.67176143,33.72615289,1055.490622
1.5700,9.289709965,34.26389831,1056.781981
1.5750,7.9227536,34.8006401,1058.079292
1.5800,6.570580353,35.33631016,1059.382616
1.5850,5.234623011,35.8694187,1060.691119
1.5900,3.913722683,36.399473,1062.004923
1.5950,2.610400514,36.92487869,1063.323237
1.6000,1.32473541,37.44531408,1064.645827
1.6050,0.05780458573,37.95918854,1065.972144
1.6100,-1.192409837,38.46684901,1067.302827
1.6150,-2.42448998,38.9681413,1068.637564
1.6200,-3.637347357,39.46139127,1069.975277
1.6250,-4.832180331,39.94724228,1071.316776
1.6300,-6.007632244,40.42478243,1072.661774
1.6350,-7.164169821,40.89344771,1074.009885
1.6400,-8.30165571,41.35239034,1075.360052
1.6450,-9.420712148,41.80156147,1076.713043
1.6500,-10.52169722,42.23957725,1078.068382
1.6550,-11.60493149,42.66800082,1079.425899
1.6600,-12.67166193,43.08334147,1080.785224
1.6650,-13.72119527,43.48794617,1082.146777
1.6700,-14.75578775,43.88002405,1083.510794
1.6750,-15.77485253,44.25820633,1084.877143
1.6800,-16.77949572,44.62233047,1086.245648
1.6850,-17.77022791,44.97252312,1087.616935
1.6900,-18.74684394,45.30823331,1088.989876
1.6950,-19.71090137,45.63045889,1090.365708
1.7000,-20.66157566,45.93840993,1091.743413
1.7050,-21.59855123,46.23161625,1093.122959
1.7100,-22.52363941,46.51053954,1094.504776
1.7150,-23.43545155,46.77614102,1095.888291
1.7200,-24.33514898,47.02812672,1097.273257
1.7250,-25.22242865,47.26662759,1098.659756
1.7300,-26.09773691,47.49215781,1100.047774
1.7350,-26.96066222,47.70491565,1101.436858
1.7400,-27.81186587,47.90437203,1102.826834
1.7450,-28.65070882,48.09268496,1104.217403
1.7500,-29.4774704,48.27112513,1105.608993
1.7550,-30.29279765,48.43793404,1107.001655
1.7600,-31.09693869,48.5944152,1108.395806
1.7650,-31.89120749,48.74074988,1109.791193
1.7700,-32.67641009,48.87551505,1111.188417
1.7750,-33.45199331,48.99806152,1112.586713
1.7800,-34.22030434,49.10952377,1113.9867
1.7850,-34.98260334,49.20947622,1115.388886
1.7900,-35.73999474,49.29532539,1116.792898
1.7950,-36.49272659,49.36828713,1118.198713
1.8000,-37.24255307,49.429015,1119.606535
1.8050,-37.98889488,49.47699531,1121.015015
1.8100,-38.7316618,49.51138107,1122.423982
1.8150,-39.47103384,49.5334264,1123.834073
1.8200,-40.20797893,49.54239482,1125.245156
1.8250,-40.94078818,49.53918879,1126.656365
1.8300,-41.67022101,49.52509098,1128.068317
1.8350,-42.39488428,49.5003048,1129.480076
1.8400,-43.11499167,49.46580469,1130.891864
1.8450,-43.82986518,49.42237371,1132.30361
1.8500,-44.53934104,49.37100737,1133.714414
1.8550,-45.2426774,49.31201993,1135.124632
1.8600,-45.94005885,49.24722421,1136.534113
1.8650,-46.62999871,49.1774019,1137.943025
1.8700,-47.31034212,49.1042507,1139.350397
1.8750,-47.98111442,49.02783386,1140.755916
1.8800,-48.64209306,48.94900142,1142.15935
1.8850,-49.29219024,48.86784195,1143.56067
1.8900,-49.93080683,48.78526015,1144.959676
1.8950,-50.55801613,48.70223071,1146.356248
1.9000,-51.17512077,48.61833577,1147.750976
1.9050,-51.78108864,48.53439577,1149.14305
1.9100,-52.37493294,48.45055613,1150.531705
1.9150,-52.95736082,48.36604834,1151.917295
1.9200,-53.52977598,48.2820671,1153.300196
1.9250,-54.0907258,48.19709474,1154.678927
1.9300,-54.64000909,48.11301609,1156.053707
1.9350,-55.17863884,48.02901664,1157.425021
1.9400,-55.70569749,47.94468184,1158.793194
1.9450,-56.22169779,47.86110538,1160.15775
1.9500,-56.72656953,47.77921329,1161.518833
1.9550,-57.22049911,47.69815018,1162.876834
1.9600,-57.70199856,47.61939859,1164.231663
1.9650,-58.1720146,47.5427546,1165.583195
1.9700,-58.62870607,47.46848621,1166.931759
1.9750,-59.07314818,47.39631494,1168.277372
1.9800,-59.50486234,47.32772516,1169.620383
1.9850,-59.92301308,47.2617615,1170.961526
1.9900,-60.32982825,47.19769534,1172.301978
1.9950,-60.72481541,47.13573229,1173.640995
2.0000,-61.10768524,47.07514012,1174.979529
2.0050,-61.47989088,47.01626055,1176.317808
2.0100,-61.84139723,46.95904585,1177.655648
2.0150,-62.1907107,46.90278524,1178.992464
2.0200,-62.52921987,46.84755831,1180.329596
2.0250,-62.85684212,46.7920322,1181.666725
2.0300,-63.17389435,46.7370128,1183.003988
2.0350,-63.48266137,46.68087634,1184.342254
2.0400,-63.78210876,46.62519175,1185.680779
2.0450,-64.07383018,46.56847682,1187.020321
2.0500,-64.35871893,46.50985411,1188.360264
2.0550,-64.63598988,46.45120286,1189.70045
2.0600,-64.90628094,46.39152273,1191.040896
2.0650,-65.1693802,46.33156685,1192.381472
2.0700,-65.42533174,46.27140304,1193.722171
2.0750,-65.67598496,46.21182565,1195.063396
2.0800,-65.92015126,46.15361414,1196.403905
2.0850,-66.15965757,46.09486203,1197.744717
2.0900,-66.39423935,46.03791516,1199.08491
2.0950,-66.62492988,45.98286662,1200.425002
2.1000,-66.85104767,45.92889381,1201.764724
2.1050,-67.07456339,45.87555837,1203.105252
2.1100,-67.29563878,45.82305486,1204.44662
2.1150,-67.51562794,45.76965529,1205.78877
2.1200,-67.73528677,45.71707913,1207.132113
2.1250,-67.95615642,45.66420692,1208.477025
2.1300,-68.17904551,45.61110356,1209.82387
2.1350,-68.40409502,45.55732425,1211.173112
2.1400,-68.63178082,45.50326106,1212.524698
2.1450,-68.8615159,45.44936679,1213.878785
2.1500,-69.09356319,45.39474287,1215.235617
2.1550,-69.32801438,45.34063081,1216.595122
2.1600,-69.56385454,45.28569199,1217.956991
2.1650,-69.8015828,45.22989346,1219.321591
2.1700,-70.04284903,45.17354313,1220.688838
2.1750,-70.2872649,45.11687629,1222.059069
2.1800,-70.53392166,45.05903055,1223.431659
2.1850,-70.78316428,44.99918338,1224.806298
2.1900,-71.03415449,44.93786062,1226.183627
2.1950,-71.28664701,44.87526264,1227.563956
2.2000,-71.54006813,44.81144292,1228.94718
2.2050,-71.79381077,44.74613354,1230.332804
2.2100,-72.04779686,44.68055787,1231.721609
2.2150,-72.30143411,44.61479731,1233.113475
2.2200,-72.55370337,44.54837799,1234.508563
2.2250,-72.80453807,44.48251772,1235.906893
2.2300,-73.05511195,44.41525445,1237.309212
2.2350,-73.30353405,44.34846848,1238.715464
2.2400,-73.5498721,44.28199876,1240.125979
2.2450,-73.79383124,44.21528346,1241.54099
2.2500,-74.03362661,44.14795485,1242.960903
2.2550,-74.27016023,44.08023262,1244.38621
2.2600,-74.50371488,44.01117137,1245.817852
2.2650,-74.73333875,43.93977387,1247.255186
2.2700,-74.95834758,43.86767116,1248.698847
2.2750,-75.17816005,43.79524132,1250.149392
2.2800,-75.39213469,43.72094511,1251.607055
2.2850,-75.60027473,43.6464424,1253.071482
2.2900,-75.80185397,43.57042149,1254.542208
2.2950,-75.99593448,43.49292234,1256.019521
2.3000,-76.18354812,43.41461771,1257.502843
2.3050,-76.36545534,43.3336824,1258.99168
2.3100,-76.5408003,43.25152115,1260.485845
2.3150,-76.71154242,43.16656325,1261.98667
2.3200,-76.87772922,43.07934744,1263.492927
2.3250,-77.03998883,42.99006564,1265.004468
2.3300,-77.1978446,42.89858119,1266.521182
2.3350,-77.35098187,42.80736202,1268.041912
2.3400,-77.50104864,42.71554059,1269.567858
2.3450,-77.64725808,42.62318214,1271.097965
2.3500,-77.78998478,42.52986089,1272.631592
2.3550,-77.92933139,42.43594842,1274.168627
2.3600,-78.06672723,42.34194033,1275.708996
2.3650,-78.20329079,42.24632386,1277.252528
2.3700,-78.33897877,42.15050386,1278.798995
2.3750,-78.47445916,42.05429395,1280.348305
2.3800,-78.61112347,41.95534463,1281.901496
2.3850,-78.7484262,41.85509195,1283.457962
2.3900,-78.88653896,41.75377121,1285.017319
2.3950,-79.02471645,41.6498152,1286.579247
2.4000,-79.16427146,41.54437548,1288.144248
2.4050,-79.30505077,41.43645664,1289.711738
2.4100,-79.4477443,41.32712151,1291.281548
2.4150,-79.59120871,41.21749337,1292.853752
2.4200,-79.73456497,41.10658881,1294.427739
2.4250,-79.87819288,40.99473136,1296.003268
2.4300,-80.02195444,40.88154858,1297.579816
2.4350,-80.16710091,40.76754475,1299.156869
2.4400,-80.31305567,40.65056369,1300.734377
2.4450,-80.46199634,40.53072984,1302.311888
2.4500,-80.61414494,40.40868027,1303.889663
2.4550,-80.7702437,40.28436124,1305.46717
2.4600,-80.92970108,40.15822504,1307.043815
2.4650,-81.09326828,40.03104144,1308.619755
2.4700,-81.25924182,39.90345141,1310.194652
2.4750,-81.42716019,39.77592583,1311.768503
2.4800,-81.59629003,39.64898082,1313.341383
2.4850,-81.76651713,39.52420769,1314.913601
2.4900,-81.93779196,39.40071627,1316.484209
2.4950,-82.10960854,39.27675961,1318.052349
2.5000,-82.28071384,39.15265193,1319.616554
2.5050,-82.45174551,39.02725994,1321.177457
2.5100,-82.62357696,38.89987906,1322.734893
2.5150,-82.79591741,38.76896297,1324.288272
2.5200,-82.96900146,38.63481534,1325.837019
2.5250,-83.1431229,38.49695199,1327.381359
2.5300,-83.31698578,38.35664865,1328.920722
2.5350,-83.48965402,38.21292566,1330.454457
2.5400,-83.66119444,38.06702654,1331.981933
2.5450,-83.83113518,37.9175161,1333.503399
2.5500,-84.00176537,37.76412006,1335.018381
2.5550,-84.17034627,37.60856337,1336.526093
2.5600,-84.33718018,37.45129802,1338.026903
2.5650,-84.5018984,37.29375055,1339.52062
2.5700,-84.66496655,37.13527058,1341.0068
2.5750,-84.82562825,36.9752054,1342.484269
2.5800,-84.98430067,36.81422191,1343.953598
2.5850,-85.14073147,36.65225402,1345.414503
2.5900,-85.29507048,36.48946868,1346.867074
2.5950,-85.44728757,36.3272504,1348.310733
2.6000,-85.59648072,36.16602099,1349.746111
2.6050,-85.740229,36.00644147,1351.172834
2.6100,-85.87871349,35.84796053,1352.590823
2.6150,-86.01144032,35.69107481,1353.999166
2.6200,-86.1377096,35.53517669,1355.397725
2.6250,-86.25644854,35.38037018,1356.787217
2.6300,-86.3686346,35.22608244,1358.166824
2.6350,-86.47346342,35.0713224,1359.536983
2.6400,-86.57007302,34.91573157,1360.896406
2.6450,-86.66012123,34.7589673,1362.245851
2.6500,-86.74210873,34.60083837,1363.584982
2.6550,-86.81818054,34.44060928,1364.914853
2.6600,-86.88686617,34.27845309,1366.234497
2.6650,-86.94907213,34.11575469,1367.544632
2.6700,-87.0047191,33.95013949,1368.844917
2.6750,-87.05180156,33.78252788,1370.135153
2.6800,-87.0910526,33.61374992,1371.414802
2.6850,-87.121685,33.44289956,1372.683203
2.6900,-87.14436054,33.26985486,1373.941509
2.6950,-87.1599915,33.09598532,1375.189537
2.7000,-87.16896898,32.91953767,1376.426815
2.7050,-87.17081766,32.74333499,1377.654418
2.7100,-87.16496117,32.56515419,1378.87239
2.7150,-87.15253654,32.38512366,1380.080539
2.7200,-87.13321595,32.20339215,1381.279199
2.7250,-87.10628999,32.02006307,1382.469205
2.7300,-87.07137228,31.83530562,1383.649666
2.7350,-87.02864503,31.64906572,1384.821223
2.7400,-86.97775912,31.461957,1385.984017
2.7450,-86.91782897,31.27524244,1387.138639
2.7500,-86.84990301,31.08841458,1388.285148
2.7550,-86.7728352,30.90140534,1389.424245
2.7600,-86.68580784,30.71536028,1390.557104
2.7650,-86.58919953,30.52963818,1391.682968
2.7700,-86.48316976,30.34291271,1392.802419
2.7750,-86.36773961,30.15352798,1393.914368
2.7800,-86.24490972,29.96197863,1395.019722
2.7850,-86.11429825,29.76660132,1396.117402
2.7900,-85.97651887,29.56929646,1397.207869
2.7950,-85.83296653,29.36883005,1398.292357
2.8000,-85.6837989,29.16637303,1399.37105
2.8050,-85.52986447,28.96327241,1400.445097
2.8100,-85.36947131,28.75986326,1401.51341
2.8150,-85.20288081,28.55790381,1402.576574
2.8200,-85.03122589,28.3574784,1403.634196
2.8250,-84.85382978,28.15845601,1404.686848
2.8300,-84.67151529,27.96115092,1405.734368
2.8350,-84.48593606,27.76515878,1406.776243
2.8400,-84.29674812,27.57083423,1407.813953
2.8450,-84.10295535,27.37892543,1408.846896
2.8500,-83.90483076,27.18902181,1409.875237
2.8550,-83.70313462,27.00010367,1410.899624
2.8600,-83.49886745,26.81227165,1411.919352
2.8650,-83.2916795,26.62456685,1412.93547
2.8700,-83.0807679,26.43692942,1413.94723
2.8750,-82.86653771,26.25012464,1414.955995
2.8800,-82.64930939,26.06418741,1415.961358
2.8850,-82.42968351,25.87842297,1416.963113
2.8900,-82.20707677,25.69396308,1417.960734
2.8950,-81.98027305,25.51002861,1418.955451
2.9000,-81.75088722,25.32637799,1419.945746
2.9050,-81.51972258,25.14440283,1420.932263
2.9100,-81.28697974,24.96305042,1421.914641
2.9150,-81.05391636,24.78207373,1422.894161
2.9200,-80.81906096,24.60331223,1423.870265
2.9250,-80.58364262,24.42604984,1424.842372
2.9300,-80.3473329,24.25062735,1425.809908
2.9350,-80.11139656,24.07737301,1426.773271
2.9400,-79.87609191,23.90577728,1427.732187
2.9450,-79.64026043,23.73642851,1428.686455
2.9500,-79.40469577,23.57008451,1429.63636
2.9550,-79.16868444,23.40763307,1430.581597
2.9600,-78.93318713,23.24831822,1431.522132
2.9650,-78.6978706,23.09225315,1432.457936
2.9700,-78.46297535,22.94129616,1433.388042
2.9750,-78.23038214,22.7947091,1434.313354
2.9800,-77.99831668,22.65246325,1435.233643
2.9850,-77.76798769,22.51621872,1436.14868
2.9900,-77.53854521,22.38569065,1437.058738
2.9950,-77.31008998,22.25952877,1437.963443
3.0000,-77.08081502,22.13926254,1438.862878
3.0050,-76.85194835,22.02278357,1439.756232
3.0100,-76.6240285,21.91166822,1440.64332
3.0150,-76.39681121,21.80466648,1441.524341
3.0200,-76.17130841,21.70235981,1442.399114
3.0250,-75.94763115,21.60417857,1443.267396
3.0300,-75.72712492,21.51068797,1444.129933
3.0350,-75.50806722,21.42186147,1444.986804
3.0400,-75.29082726,21.33972454,1445.837574
3.0450,-75.07570106,21.262954,1446.68186
3.0500,-74.8608156,21.19157213,1447.519442
3.0550,-74.64687392,21.12711306,1448.350024
3.0600,-74.4351991,21.06950166,1449.174353
3.0650,-74.22444409,21.01906158,1449.991573
3.0700,-74.01520506,20.97561601,1450.801825
3.0750,-73.80649339,20.94013951,1451.606109
3.0800,-73.59778653,20.91182861,1452.403694
3.0850,-73.38831435,20.89146255,1453.194736
3.0900,-73.17805543,20.87695268,1453.979221
3.0950,-72.96646917,20.86973256,1454.756567
3.1000,-72.75342918,20.86850341,1455.527102
3.1050,-72.53764578,20.87269305,1456.289239
3.1100,-72.31928155,20.88101502,1457.043379
3.1150,-72.09862992,20.8921698,1457.789805
3.1200,-71.87421525,20.90614026,1458.528266
3.1250,-71.64584524,20.92274055,1459.258728
3.1300,-71.41420791,20.94088771,1459.980848
3.1350,-71.17748664,20.96113236,1460.694916
3.1400,-70.93580604,20.98183451,1461.40063
3.1450,-70.69051245,21.00383199,1462.097983
3.1500,-70.43977623,21.02739829,1462.787354
3.1550,-70.18391943,21.05065858,1463.467791
3.1600,-69.92311198,21.07372161,1464.139949
3.1650,-69.65796457,21.0965036,1464.803085
3.1700,-69.38855404,21.11797973,1465.458121
3.1750,-69.11479272,21.13733022,1466.104531
3.1800,-68.83665393,21.15534814,1466.742631
3.1850,-68.55374152,21.17251001,1467.373198
3.1900,-68.26696155,21.18696515,1467.996439
3.1950,-67.97771128,21.19805105,1468.611879
3.2000,-67.6849553,21.20618455,1469.2204
3.2050,-67.38823647,21.21136005,1469.822056
3.2100,-67.0873885,21.21231378,1470.416847
3.2150,-66.78260198,21.20942482,1471.003831
3.2200,-66.47387583,21.20156262,1471.583571
3.2250,-66.16311266,21.189038,1472.156067
3.2300,-65.84978077,21.17083059,1472.722491
3.2350,-65.53336217,21.14736665,1473.282439
3.2400,-65.21513548,21.11759043,1473.836189
3.2450,-64.89487748,21.08292196,1474.383534
3.2500,-64.57311093,21.04242255,1474.924531
3.2550,-64.25021098,20.99542313,1475.458998
3.2600,-63.92567946,20.94379877,1475.987494
3.2650,-63.59980682,20.88657412,1476.509521
3.2700,-63.27345749,20.8238235,1477.026533
3.2750,-62.94569807,20.75555916,1477.538217
3.2800,-62.61811832,20.68339132,1478.045044
3.2850,-62.29148057,20.60554438,1478.546966
3.2900,-61.96673391,20.52338846,1479.044636
3.2950,-61.64441168,20.43775664,1479.539066
3.3000,-61.32583872,20.34894929,1480.029859
3.3050,-61.01078013,20.25808638,1480.517674
3.3100,-60.69870912,20.16542297,1481.003185
3.3150,-60.39014437,20.07334275,1481.486839
3.3200,-60.08459544,19.98113514,1481.968183
3.3250,-59.78141983,19.89108572,1482.448087
3.3300,-59.48052638,19.8028084,1482.926296
3.3350,-59.18329101,19.71754732,1483.402855
3.3400,-58.8908156,19.63545713,1483.878651
3.3450,-58.60177602,19.55601802,1484.353479
3.3500,-58.31626568,19.48005327,1484.827228
3.3550,-58.03403008,19.40739055,1485.30034
3.3600,-57.75421252,19.33800548,1485.771316
3.3650,-57.47646845,19.27097128,1486.241207
3.3700,-57.20015161,19.20700954,1486.70913
3.3750,-56.92610598,19.14618364,1487.174843
3.3800,-56.65343951,19.08817841,1487.638118
3.3850,-56.38247798,19.03296182,1488.098514
3.3900,-56.11269669,18.97973965,1488.555873
3.3950,-55.84372119,18.92954538,1489.009862
3.4000,-55.57466924,18.88155284,1489.459802
3.4050,-55.30687201,18.83471575,1489.905843
3.4100,-55.03934826,18.78943409,1490.347663
3.4150,-54.77260155,18.7456065,1490.784545
3.4200,-54.50700787,18.70314171,1491.216111
3.4250,-54.24343961,18.66029481,1491.642095
3.4300,-53.98092147,18.61748672,1492.062747
3.4350,-53.72130396,18.57322504,1492.477499
3.4400,-53.46380511,18.52871334,1492.885998
3.4450,-53.20773051,18.48308524,1493.288106
3.4500,-52.9531762,18.43637811,1493.682938
3.4550,-52.70052477,18.38965621,1494.071191
3.4600,-52.4491473,18.34220395,1494.452437
3.4650,-52.19851477,18.29371705,1494.826112
3.4700,-51.94910122,18.24556397,1495.192955
3.4750,-51.70139879,18.19730717,1495.553296
3.4800,-51.45498952,18.14886103,1495.906312
3.4850,-51.20915799,18.09989677,1496.252033
3.4900,-50.96354001,18.05265342,1496.590438
3.4950,-50.71765057,18.0063286,1496.921915
3.5000,-50.47112583,17.95998451,1497.245794
3.5050,-50.22476212,17.91304206,1497.56273
3.5100,-49.97784072,17.86684633,1497.873275
3.5150,-49.73032751,17.82096607,1498.177684
3.5200,-49.48299327,17.77573137,1498.476403
3.5250,-49.23382671,17.73071214,1498.769473
3.5300,-48.98313625,17.6867236,1499.056718
3.5350,-48.73095265,17.64339363,1499.338573
3.5400,-48.47680106,17.60180384,1499.615769
3.5450,-48.22061334,17.56070615,1499.889236
3.5500,-47.96209022,17.52115955,1500.159449
3.5550,-47.70164127,17.48318149,1500.426793
3.5600,-47.43893174,17.44652932,1500.691995
3.5650,-47.17424237,17.4114184,1500.954976
3.5700,-46.90737257,17.37735059,1501.216379
3.5750,-46.63878959,17.34470374,1501.476725
3.5800,-46.3683759,17.31230147,1501.736223
3.5850,-46.09449038,17.28119981,1501.995774
3.5900,-45.81837117,17.250444,1502.255561
3.5950,-45.53891584,17.22061288,1502.515825
3.6000,-45.25753632,17.19173167,1502.77793
3.6050,-44.97422022,17.16334897,1503.041556
3.6100,-44.68918926,17.13558867,1503.306959
3.6150,-44.40280813,17.10733346,1503.57461
3.6200,-44.11505838,17.07944683,1503.844934
3.6250,-43.8277872,17.05148635,1504.117851
3.6300,-43.53973046,17.02415294,1504.394419
3.6350,-43.25203624,16.99717458,1504.674442
3.6400,-42.96358043,16.969125,1504.957276
3.6450,-42.67589032,16.94172614,1505.243173
3.6500,-42.38925058,16.91572927,1505.532457
3.6550,-42.10492778,16.88874021,1505.824929
3.6600,-41.82322053,16.86158328,1506.120887
3.6650,-41.54439602,16.83420343,1506.4197
3.6700,-41.269959,16.80547454,1506.721399
3.6750,-40.99878025,16.77695462,1507.026035
3.6800,-40.73216149,16.7487733,1507.333212
3.6850,-40.47018562,16.72065231,1507.643213
3.6900,-40.21316374,16.69335499,1507.954968
3.6950,-39.95992961,16.6668167,1508.268522
3.7000,-39.71273185,16.64078895,1508.583747
3.7050,-39.47000422,16.6159749,1508.899989
3.7100,-39.23329731,16.59289447,1509.21747
3.7150,-39.0015824,16.57154928,1509.535135
3.7200,-38.77551266,16.55055215,1509.853377
3.7250,-38.55465093,16.5332459,1510.171391
3.7300,-38.33849696,16.51745585,1510.48841
3.7350,-38.12706777,16.50531646,1510.804608
3.7400,-37.9211854,16.49594704,1511.11914
3.7450,-37.71989829,16.48962544,1511.431676
3.7500,-37.52433266,16.48583082,1511.742639
3.7550,-37.33335775,16.48538473,1512.050489
3.7600,-37.14648947,16.48852475,1512.355117
3.7650,-36.9639626,16.49609486,1512.656419
3.7700,-36.78631851,16.50664745,1512.954085
3.7750,-36.61332021,16.5228169,1513.248234
3.7800,-36.44426215,16.54263292,1513.538689
3.7850,-36.27957332,16.56547684,1513.824626
3.7900,-36.11821645,16.59099502,1514.106128
3.7950,-35.96054526,16.62062203,1514.383209
3.8000,-35.8063971,16.65286829,1514.655772
3.8050,-35.655881,16.68844157,1514.923714
3.8100,-35.50902524,16.72711913,1515.186667
3.8150,-35.36548762,16.76857876,1515.444572
3.8200,-35.22573574,16.81192051,1515.698162
3.8250,-35.08884487,16.85714777,1515.946756
3.8300,-34.95549963,16.90404548,1516.190955
3.8350,-34.82549467,16.95235392,1516.430398
3.8400,-34.69761418,17.00190648,1516.664974
3.8450,-34.57207515,17.05251156,1516.894393
3.8500,-34.44868685,17.10382099,1517.119419
3.8550,-34.32758389,17.154597,1517.339577
3.8600,-34.20953016,17.20404146,1517.555221
3.8650,-34.09460987,17.25305774,1517.766393
3.8700,-33.98248774,17.30157724,1517.973362
3.8750,-33.87320815,17.34936063,1518.175886
3.8800,-33.76765167,17.39658294,1518.374688
3.8850,-33.66695587,17.44340716,1518.570126
3.8900,-33.56950304,17.49019219,1518.761314
3.8950,-33.47678096,17.53646426,1518.948861
3.9000,-33.38891654,17.5808245,1519.132377
3.9050,-33.30536879,17.62387825,1519.312453
3.9100,-33.22750511,17.66549966,1519.488958
3.9150,-33.15484292,17.7064437,1519.66224
3.9200,-33.08819195,17.74678662,1519.832014
3.9250,-33.02706222,17.78621118,1519.998793
3.9300,-32.97176894,17.82480144,1520.161334
3.9350,-32.92196337,17.86331678,1520.320337
3.9400,-32.87800688,17.90259427,1520.475658
3.9450,-32.84010825,17.94122047,1520.627498
3.9500,-32.80898234,17.97944017,1520.775387
3.9550,-32.78243905,18.01951133,1520.919076
3.9600,-32.76142936,18.06031064,1521.058539
3.9650,-32.74619651,18.10196553,1521.193596
3.9700,-32.73523809,18.14642271,1521.323497
3.9750,-32.72881206,18.19161034,1521.44749
3.9800,-32.7271352,18.23805979,1521.56549
3.9850,-32.72934744,18.28637059,1521.677265
3.9900,-32.73581792,18.33639753,1521.782517
3.9950,-32.74756198,18.38767566,1521.881224
4.0000,-32.76366885,18.44160155,1521.972924
4.0050,-32.78476605,18.49779275,1522.057918
4.0100,-32.81084525,18.55636644,1522.135651
4.0150,-32.84146344,18.61644791,1522.205711
4.0200,-32.87608779,18.67929525,1522.268024
4.0250,-32.91503995,18.74316756,1522.32288
4.0300,-32.95916753,18.80930936,1522.37027
4.0350,-33.0076491,18.87763386,1522.409901
4.0400,-33.06063749,18.94685591,1522.441585
4.0450,-33.11803152,19.01721971,1522.465601
4.0500,-33.18023748,19.08864735,1522.48154
4.0550,-33.2465718,19.1608845,1522.490206
4.0600,-33.31769503,19.23368446,1522.491648
4.0650,-33.39241383,19.30574705,1522.485817
4.0700,-33.47145632,19.37742651,1522.472695
4.0750,-33.55435246,19.447537,1522.451999
4.0800,-33.64168485,19.5167966,1522.424223
4.0850,-33.73324428,19.58507662,1522.389466
4.0900,-33.82984154,19.65187454,1522.347995
4.0950,-33.93027635,19.71626734,1522.300093
4.1000,-34.03549612,19.77999501,1522.246404
4.1050,-34.14488702,19.84134045,1522.18682
4.1100,-34.25931471,19.90028982,1522.121474
4.1150,-34.37772753,19.95775116,1522.050783
4.1200,-34.49991398,20.01357854,1521.974252
4.1250,-34.62626577,20.06764314,1521.892454
4.1300,-34.75635033,20.12025349,1521.805986
4.1350,-34.89038974,20.17014688,1521.714785
4.1400,-35.02936577,20.21801416,1521.618732
4.1450,-35.17331119,20.26381684,1521.518344
4.1500,-35.32279454,20.30793004,1521.413191
4.1550,-35.47650401,20.35239887,1521.303689
4.1600,-35.63444078,20.39636479,1521.189203
4.1650,-35.79579767,20.43970738,1521.070477
4.1700,-35.95986056,20.48256662,1520.946817
4.1750,-36.12841214,20.52617064,1520.818275
4.1800,-36.30095902,20.56982674,1520.684407
4.1850,-36.47687404,20.61388774,1520.544912
4.1900,-36.65790361,20.65756678,1520.400715
4.1950,-36.84260322,20.70138699,1520.251139
4.2000,-37.03092132,20.74592678,1520.096233
4.2050,-37.22311733,20.79133603,1519.936052
4.2100,-37.41813186,20.8381273,1519.770168
4.2150,-37.61699849,20.88503282,1519.59847
4.2200,-37.81951054,20.93196412,1519.422061
4.2250,-38.02541806,20.97981421,1519.239732
4.2300,-38.23498778,21.02802833,1519.052651
4.2350,-38.44821245,21.07624841,1518.860664
4.2400,-38.6653404,21.12402485,1518.663935
4.2450,-38.88581144,21.17297443,1518.462449
4.2500,-39.10880953,21.22368284,1518.256812
4.2550,-39.33585451,21.2745816,1518.046791
4.2600,-39.56604401,21.3269279,1517.832651
4.2650,-39.79876031,21.3807744,1517.614369
4.2700,-40.03506328,21.43558027,1517.392952
4.2750,-40.27517301,21.49095845,1517.168135
4.2800,-40.51808812,21.54767042,1516.940361
4.2850,-40.76566974,21.60418892,1516.709319
4.2900,-41.01633769,21.66168447,1516.475606
4.2950,-41.27011788,21.71978936,1516.238748
4.3000,-41.52656359,21.77875325,1515.999035
4.3050,-41.78621709,21.83858141,1515.756605
4.3100,-42.04793403,21.89866062,1515.511316
4.3150,-42.31281632,21.95991007,1515.263643
4.3200,-42.58108,22.02263721,1515.014089
4.3250,-42.85234623,22.08612064,1514.762017
4.3300,-43.12776345,22.15125086,1514.508088
4.3350,-43.40664875,22.21592074,1514.252133
4.3400,-43.6903234,22.28178885,1513.994994
4.3450,-43.97821168,22.34908572,1513.736743
4.3500,-44.26979263,22.41655685,1513.476801
4.3550,-44.56596332,22.48430659,1513.215553
4.3600,-44.86515254,22.5519264,1512.952647
4.3650,-45.16842408,22.62013519,1512.688992
4.3700,-45.47426469,22.68929728,1512.423939
4.3750,-45.78370439,22.75898745,1512.157722
4.3800,-46.09603727,22.8303462,1511.890353
4.3850,-46.41122433,22.90307212,1511.621974
4.3900,-46.7290376,22.97738425,1511.352454
4.3950,-47.05020758,23.0531174,1511.081163
4.4000,-47.37418921,23.13049685,1510.808287
4.4050,-47.70120866,23.2089669,1510.533248
4.4100,-48.03141026,23.28904079,1510.256187
4.4150,-48.36262363,23.37004255,1509.976143
4.4200,-48.69617265,23.45196017,1509.692714
4.4250,-49.03177622,23.53627161,1509.406534
4.4300,-49.36923216,23.6209573,1509.116206
4.4350,-49.70819086,23.70762696,1508.821763
4.4400,-50.04860532,23.79643877,1508.523311
4.4450,-50.39011499,23.88755056,1508.220491
4.4500,-50.73260446,23.9809719,1507.913126
4.4550,-51.07644889,24.07579771,1507.600883
4.4600,-51.42200476,24.17163433,1507.28387
4.4650,-51.76820349,24.27026756,1506.960835
4.4700,-52.11647162,24.37007584,1506.632119
4.4750,-52.46607289,24.47133369,1506.297872
4.4800,-52.81592042,24.57323168,1505.956754
4.4850,-53.16663752,24.67699337,1505.609258
4.4900,-53.517446,24.78089424,1505.254619
4.4950,-53.86912669,24.8842239,1504.893588
4.5000,-54.22107839,24.98810862,1504.526184
4.5050,-54.57398777,25.09187721,1504.151751
4.5100,-54.92851616,25.19432164,1503.770525
4.5150,-55.28343766,25.2965818,1503.382847
4.5200,-55.63923566,25.39913141,1502.988075
4.5250,-55.99607572,25.50067537,1502.587058
4.5300,-56.35365889,25.60071359,1502.179156
4.5350,-56.7122036,25.70000198,1501.764788
4.5400,-57.07101092,25.79779468,1501.344059
4.5450,-57.43082404,25.89323967,1500.917442
4.5500,-57.79084119,25.98625702,1500.48436
4.5550,-58.15183815,26.07563001,1500.045471
4.5600,-58.51393787,26.16281937,1499.601391
4.5650,-58.87731107,26.24724707,1499.151518
4.5700,-59.24034081,26.32799563,1498.696074
4.5750,-59.60374826,26.40720041,1498.23577
4.5800,-59.96724368,26.48352534,1497.770738
4.5850,-60.32971968,26.55806694,1497.30144
4.5900,-60.69220881,26.62985848,1496.827528
4.5950,-61.05597868,26.69911463,1496.349309
4.6000,-61.42005161,26.76553481,1495.867344
4.6050,-61.78354535,26.83032178,1495.381787
4.6100,-62.14868566,26.89327321,1494.892891
4.6150,-62.51459833,26.9549681,1494.400864
4.6200,-62.88083605,27.01576414,1493.905486
4.6250,-63.24771382,27.0759574,1493.40692
4.6300,-63.61393572,27.13518361,1492.905148
4.6350,-63.98027159,27.19497205,1492.400596
4.6400,-64.34575964,27.2553897,1491.893305
4.6450,-64.71103133,27.31569351,1491.383285
4.6500,-65.07613981,27.37865434,1490.870927
4.6550,-65.44167266,27.44330043,1490.355824
4.6600,-65.80754916,27.51096595,1489.838375
4.6650,-66.17320252,27.58160716,1489.318018
4.6700,-66.53872892,27.65599701,1488.794819
4.6750,-66.90331832,27.73370828,1488.267942
4.6800,-67.26815279,27.81439287,1487.738034
4.6850,-67.63365436,27.89887653,1487.204559
4.6900,-67.99936535,27.98731189,1486.66815
4.6950,-68.36586051,28.07956713,1486.128225
4.7000,-68.73159457,28.17516275,1485.584056
4.7050,-69.09802278,28.27501633,1485.036372
4.7100,-69.46435738,28.37847697,1484.484368
4.7150,-69.83354172,28.48586737,1483.928768
4.7200,-70.20419354,28.59699409,1483.369307
4.7250,-70.57653661,28.71126471,1482.805303
4.7300,-70.95023736,28.82966499,1482.236519
4.7350,-71.32569592,28.95211821,1481.663049
4.7400,-71.7018305,29.07859511,1481.084166
4.7450,-72.07806199,29.20893903,1480.499018
4.7500,-72.45330804,29.34312954,1479.908151
4.7550,-72.82825036,29.48094029,1479.310183
4.7600,-73.20252931,29.62422049,1478.705826
4.7650,-73.57640977,29.77034649,1478.09485
4.7700,-73.95010383,29.92180079,1477.476899
4.7750,-74.32227887,30.07736221,1476.851727
4.7800,-74.69322844,30.23762576,1476.219707
4.7850,-75.06243741,30.40065262,1475.579798
4.7900,-75.42894163,30.5690979,1474.932174
4.7950,-75.79317622,30.74222642,1474.275623
4.8000,-76.15525762,30.9189601,1473.610249
4.8050,-76.51401691,31.09907638,1472.935621
4.8100,-76.86941288,31.28134159,1472.251758
4.8150,-77.22149904,31.46537642,1471.557706
4.8200,-77.57055753,31.64969487,1470.85322
4.8250,-77.91697285,31.83493198,1470.138916
4.8300,-78.26115522,32.02097077,1469.414989
4.8350,-78.60300148,32.2057065,1468.6814
4.8400,-78.94226619,32.38923271,1467.937253
4.8450,-79.27859243,32.57130417,1467.182489
4.8500,-79.61375368,32.75017838,1466.417708
4.8550,-79.94610564,32.92867215,1465.643058
4.8600,-80.27652021,33.10380932,1464.857701
4.8650,-80.60517221,33.27639523,1464.062977
4.8700,-80.93178989,33.44835616,1463.258415
4.8750,-81.2565825,33.61779787,1462.443863
4.8800,-81.57925693,33.78537796,1461.619169
4.8850,-81.90096679,33.95076046,1460.784246
4.8900,-82.22056999,34.11417404,1459.93932
4.8950,-82.53734819,34.27572138,1459.084807
4.9000,-82.85396841,34.43579709,1458.221034
4.9050,-83.16972451,34.59478536,1457.347522
4.9100,-83.48344729,34.75223382,1456.465012
4.9150,-83.79652062,34.90823281,1455.573984
4.9200,-84.10936902,35.06329054,1454.674582
4.9250,-84.42294873,35.21758288,1453.767012
4.9300,-84.73766233,35.37101839,1452.851607
4.9350,-85.0543495,35.52325202,1451.92828
4.9400,-85.37236635,35.67416396,1450.998119
4.9450,-85.69258978,35.82462182,1450.060635
4.9500,-86.0145491,35.97286857,1449.116852
4.9550,-86.33784091,36.11990841,1448.167431
4.9600,-86.6639616,36.26552539,1447.211977
4.9650,-86.99419542,36.40855728,1446.251873
4.9700,-87.32848016,36.54863302,1445.287175
4.9750,-87.66694202,36.68552804,1444.319349
4.9800,-88.00937134,36.81958226,1443.348107
4.9850,-88.35506759,36.95053864,1442.374606
4.9900,-88.70480728,37.07774209,1441.397746
4.9950,-89.05841427,37.20168757,1440.418184
5.0000,-89.41664069,37.3221389,1439.43678
5.0050,-89.7785278,37.43998308,1438.453006
5.0100,-90.1428381,37.55568629,1437.467562
5.0150,-90.50864922,37.66891604,1436.479816
5.0200,-90.87534868,37.78148842,1435.489477
5.0250,-91.242979,37.8921838,1434.496757
5.0300,-91.6104575,38.00153194,1433.501424
5.0350,-91.97730892,38.10898764,1432.50316
5.0400,-92.34373795,38.21428209,1431.502255
5.0450,-92.70973584,38.31808132,1430.499004
5.0500,-93.07644114,38.41930063,1429.492597
5.0550,-93.44244704,38.51918282,1428.48378
5.0600,-93.80642723,38.61668768,1427.470706
5.0650,-94.16873117,38.71297452,1426.453723
5.0700,-94.52757431,38.80883059,1425.432478
5.0750,-94.88354977,38.90375871,1424.406597
5.0800,-95.23620409,38.99875443,1423.375644
5.0850,-95.58562931,39.09442914,1422.340137
5.0900,-95.93291793,39.1889044,1421.299078
5.0950,-96.27691144,39.28306898,1420.253159
5.1000,-96.61657802,39.37667066,1419.200976
5.1050,-96.95274226,39.47006942,1418.142897
5.1100,-97.28508438,39.56463439,1417.079227
5.1150,-97.61397422,39.66019955,1416.010387
5.1200,-97.93942321,39.7562869,1414.93659
5.1250,-98.26019584,39.85257055,1413.8562
5.1300,-98.57665923,39.95013433,1412.769574
5.1350,-98.88798833,40.04981968,1411.676296
5.1400,-99.19481895,40.15174969,1410.576452
5.1450,-99.49773116,40.25655591,1409.470783
5.1500,-99.79410826,40.36515401,1408.35804
5.1550,-100.0853143,40.47610335,1407.23783
5.1600,-100.3719574,40.59032838,1406.110224
5.1650,-100.6538256,40.70721215,1404.974832
5.1700,-100.9313764,40.82624156,1403.831892
5.1750,-101.2043682,40.94696809,1402.681564
5.1800,-101.473862,41.06907091,1401.523605
5.1850,-101.7381855,41.19326241,1400.358273
5.1900,-101.9984766,41.31911847,1399.186122
5.1950,-102.2540278,41.44731192,1398.006306
5.2000,-102.5043784,41.5786582,1396.819178
5.2050,-102.7496216,41.71173307,1395.624501
5.2100,-102.9902476,41.84814952,1394.422279
5.2150,-103.2249449,41.98684758,1393.212058
5.2200,-103.4538736,42.12643275,1391.994157
5.2250,-103.6770953,42.26822404,1390.76947
5.2300,-103.8943473,42.41171623,1389.537987
5.2350,-104.1057248,42.55709776,1388.299832
5.2400,-104.3108978,42.70302331,1387.05493
5.2450,-104.5109981,42.84727788,1385.803669
5.2500,-104.7050022,42.99261159,1384.546136
5.2550,-104.8937067,43.13715102,1383.282199
5.2600,-105.0767163,43.28043703,1382.013132
5.2650,-105.2537648,43.42304855,1380.737763
5.2700,-105.4251671,43.56335445,1379.456168
5.2750,-105.590706,43.70252163,1378.16783
5.2800,-105.7490131,43.83943259,1376.873794
5.2850,-105.9012267,43.97512637,1375.573677
5.2900,-106.0472986,44.10911082,1374.268445
5.2950,-106.1865002,44.24130566,1372.958003
5.3000,-106.3189457,44.37242554,1371.642619
5.3050,-106.4436896,44.50185973,1370.32162
5.3100,-106.5619143,44.62892293,1368.994065
5.3150,-106.6743147,44.75468886,1367.660499
5.3200,-106.7802655,44.87715485,1366.321161
5.3250,-106.8793782,44.9974625,1364.975591
5.3300,-106.9733779,45.11549677,1363.623457
5.3350,-107.0609234,45.23138053,1362.26457
5.3400,-107.1420173,45.3455928,1360.89871
5.3450,-107.2166253,45.45861554,1359.525381
5.3500,-107.2841421,45.57061166,1358.14465
5.3550,-107.3450062,45.68219252,1356.755854
5.3600,-107.4006794,45.79335281,1355.360212
5.3650,-107.4515027,45.9036331,1353.956866
5.3700,-107.4967716,46.01155303,1352.545391
5.3750,-107.5366611,46.1173246,1351.12675
5.3800,-107.5721595,46.2215835,1349.700724
5.3850,-107.6014851,46.32288995,1348.266473
5.3900,-107.624791,46.42242574,1346.824869
5.3950,-107.6416131,46.51985294,1345.374285
5.4000,-107.6522458,46.61568748,1343.915746
5.4050,-107.6556907,46.70923522,1342.448998
5.4100,-107.6512367,46.80066119,1340.973084
5.4150,-107.6382216,46.89047946,1339.487066
5.4200,-107.615285,46.97915141,1337.991416
5.4250,-107.5826233,47.06667787,1336.487023
5.4300,-107.5392315,47.15113291,1334.972896
5.4350,-107.4854156,47.23314708,1333.448619
5.4400,-107.420501,47.31305491,1331.914779
5.4450,-107.3437136,47.39025765,1330.370712
5.4500,-107.2553379,47.46534334,1328.816267
5.4550,-107.1557887,47.53881747,1327.251953
5.4600,-107.0429551,47.61019217,1325.678023
5.4650,-106.9166934,47.68048636,1324.09452
5.4700,-106.7769664,47.74892489,1322.500588
5.4750,-106.6238608,47.81631,1320.896951
5.4800,-106.4565347,47.88099042,1319.28324
5.4850,-106.2760491,47.9434958,1317.660153
5.4900,-106.0825369,48.00408753,1316.027597
5.4950,-105.8763196,48.06230647,1314.386787
5.5000,-105.6563387,48.11644888,1312.737892
5.5050,-105.4246954,48.16631982,1311.081303
5.5100,-105.1808836,48.2121157,1309.417988
5.5150,-104.9256006,48.25384934,1307.747971
5.5200,-104.6604657,48.2911335,1306.072192
5.5250,-104.3854417,48.32336934,1304.390048
5.5300,-104.1007578,48.35098722,1302.701928
5.5350,-103.8067768,48.37344534,1301.009049
5.5400,-103.5041235,48.39143386,1299.310496
5.5450,-103.1923892,48.40651756,1297.607525
5.5500,-102.8736542,48.41634044,1295.900712
5.5550,-102.5472112,48.42268821,1294.190066
5.5600,-102.2140055,48.42562215,1292.476568
5.5650,-101.8743656,48.4248413,1290.760561
5.5700,-101.5286209,48.4210541,1289.042268
5.5750,-101.1781375,48.41514943,1287.323328
5.5800,-100.8250115,48.40658624,1285.603435
5.5850,-100.4683896,48.39523556,1283.882792
5.5900,-100.1083975,48.38242248,1282.162175
5.5950,-99.74580954,48.36911818,1280.441775
5.6000,-99.38025947,48.35539574,1278.720991
5.6050,-99.01320204,48.34093245,1277.001776
5.6100,-98.64390551,48.32792753,1275.284985
5.6150,-98.27106005,48.31504011,1273.570141
5.6200,-97.89587743,48.30245005,1271.857768
5.6250,-97.5192987,48.28993653,1270.148828
5.6300,-97.14019945,48.27668081,1268.444257
5.6350,-96.75872097,48.26430501,1266.745138
5.6400,-96.37450101,48.25061913,1265.051148
5.6450,-95.98873399,48.23505637,1263.363582
5.6500,-95.60111128,48.21818479,1261.682235
5.6550,-95.212001,48.19848756,1260.007549
5.6600,-94.82091373,48.17532699,1258.339499
5.6650,-94.42727462,48.14843945,1256.678379
5.6700,-94.03290276,48.11805344,1255.024562
5.6750,-93.63606321,48.08404934,1253.376869
5.6800,-93.23554785,48.04551766,1251.736422
5.6850,-92.83316968,48.00236402,1250.103025
5.6900,-92.42698532,47.95440341,1248.476336
5.6950,-92.01773909,47.90084661,1246.856792
5.7000,-91.60672592,47.84106923,1245.243906
5.7050,-91.19320281,47.77604834,1243.638135
5.7100,-90.77763156,47.70587099,1242.040106
5.7150,-90.35957499,47.62978738,1240.44947
5.7200,-89.9388837,47.549481,1238.865351
5.7250,-89.51649422,47.46598659,1237.288268
5.7300,-89.09264861,47.37890619,1235.71829
5.7350,-88.666143,47.28820497,1234.155363
5.7400,-88.23663812,47.19482021,1232.600497
5.7450,-87.80327452,47.09848703,1231.052698
5.7500,-87.3670534,46.99979858,1229.512608
5.7550,-86.92741779,46.89894662,1227.979641
5.7600,-86.48443385,46.79720096,1226.45364
5.7650,-86.03782601,46.69516729,1224.93428
5.7700,-85.5875892,46.59228977,1223.421867
5.7750,-85.13265501,46.48872285,1221.91546
5.7800,-84.67459949,46.38491114,1220.415524
5.7850,-84.21298378,46.28207581,1218.921147
5.7900,-83.74786597,46.17894489,1217.432648
5.7950,-83.28051095,46.07692862,1215.949862
5.8000,-82.8099201,45.97651003,1214.471257
5.8050,-82.33671311,45.87824265,1212.997942
5.8100,-81.85970114,45.78121702,1211.528573
5.8150,-81.37993849,45.68550741,1210.064615
5.8200,-80.89519755,45.59282601,1208.604631
5.8250,-80.40669304,45.50232217,1207.149873
5.8300,-79.91351607,45.41566749,1205.699622
5.8350,-79.41648801,45.33196761,1204.253409
5.8400,-78.91481658,45.25201601,1202.811341
5.8450,-78.40969751,45.17548705,1201.37296
5.8500,-77.89935962,45.10368473,1199.937447
5.8550,-77.38527081,45.03552021,1198.504997
5.8600,-76.86713733,44.97152421,1197.073884
5.8650,-76.34601731,44.91041027,1195.645394
5.8700,-75.82175988,44.85300863,1194.22006
5.8750,-75.29418925,44.79623936,1192.798038
5.8800,-74.76258755,44.74101507,1191.379353
5.8850,-74.22824341,44.68525708,1189.96433
5.8900,-73.69047171,44.62976047,1188.552493
5.8950,-73.1499307,44.57301715,1187.144633
5.9000,-72.60723905,44.5144031,1185.741269
5.9050,-72.06119057,44.45451407,1184.341571
5.9100,-71.51271034,44.39162586,1182.94561
5.9150,-70.96269763,44.32586181,1181.553425
5.9200,-70.41085563,44.25773086,1180.164927
5.9250,-69.8564986,44.18696377,1178.779525
5.9300,-69.30058866,44.11383038,1177.397416
5.9350,-68.74300407,44.03612375,1176.017741
5.9400,-68.18519516,43.95542324,1174.642137
5.9450,-67.62595672,43.87020359,1173.269618
5.9500,-67.0664223,43.77997481,1171.900552
5.9550,-66.50664603,43.68390213,1170.535089
5.9600,-65.94522624,43.58314647,1169.172276
5.9650,-65.38346867,43.47906975,1167.813356
5.9700,-64.82084997,43.3710269,1166.457893
5.9750,-64.2579697,43.25947674,1165.105851
5.9800,-63.69614649,43.14479505,1163.757035
5.9850,-63.13460668,43.02896541,1162.411423
5.9900,-62.57383821,42.91193582,1161.068349
5.9950,-62.01395148,42.79455315,1159.728697
6.0000,-61.45420473,42.67872409,1158.392208
6.0050,-60.89538673,42.56349027,1157.058772
6.0100,-60.33632707,42.44939755,1155.72755
6.0150,-59.77723208,42.33641196,1154.398794
6.0200,-59.21788082,42.22468568,1153.073659
6.0250,-58.65745026,42.11151628,1151.750963
6.0300,-58.09578305,41.99928527,1150.430429
6.0350,-57.53325025,41.88812683,1149.112524
6.0400,-56.9685285,41.77758988,1147.796201
6.0450,-56.40231171,41.66913542,1146.482248
6.0500,-55.83336548,41.56203528,1145.170829
6.0550,-55.26035639,41.45747383,1143.861836
6.0600,-54.68418661,41.35603555,1142.555942
6.0650,-54.10456144,41.25702429,1141.253315
6.0700,-53.52190611,41.16039373,1139.953794
6.0750,-52.93676219,41.06726471,1138.657927
6.0800,-52.34764432,40.97828331,1137.365477
6.0850,-51.75580071,40.89229754,1136.075823
6.0900,-51.16115172,40.81067059,1134.788734
6.0950,-50.56217517,40.7325057,1133.503546
6.1000,-49.96140595,40.65831643,1132.221806
6.1050,-49.35710775,40.58818939,1130.941765
6.1100,-48.7512117,40.52038894,1129.663815
6.1150,-48.14298867,40.45658285,1128.387847
6.1200,-47.53330179,40.39479272,1127.113912
6.1250,-46.92127286,40.33660898,1125.841875
6.1300,-46.3087116,40.2789515,1124.571501
6.1350,-45.6940177,40.22310829,1123.302682
6.1400,-45.07885061,40.16710365,1122.035879
6.1450,-44.46160836,40.11132543,1120.771675
6.1500,-43.84374875,40.05476047,1119.509918
6.1550,-43.22370089,39.99622771,1118.25015
6.1600,-42.60130625,39.9355803,1116.993238
6.1650,-41.97440225,39.87445737,1115.739219
6.1700,-41.34370104,39.81175671,1114.487721
6.1750,-40.70818941,39.74901201,1113.238896
6.1800,-40.06644367,39.68612431,1111.992718
6.1850,-39.41806182,39.62362114,1110.749541
6.1900,-38.76366927,39.55999448,1109.509479
6.1950,-38.10237634,39.49521817,1108.272591
6.2000,-37.43436139,39.42956043,1107.038653
6.2050,-36.75882812,39.3619538,1105.807326
6.2100,-36.07681625,39.29284391,1104.579335
6.2150,-35.38685098,39.2226699,1103.35516
6.2200,-34.68802556,39.15042931,1102.134247
6.2250,-33.98153005,39.07677467,1100.917025
6.2300,-33.26690627,39.00196707,1099.703474
6.2350,-32.54516342,38.92527021,1098.493427
6.2400,-31.81579005,38.84685604,1097.286622
6.2450,-31.07961226,38.7677829,1096.083708
6.2500,-30.33544818,38.68747601,1094.883894
6.2550,-29.58494187,38.60639217,1093.688664
6.2600,-28.82771674,38.52364083,1092.497684
6.2650,-28.06311273,38.43721824,1091.310727
6.2700,-27.29185065,38.34772143,1090.128057
6.2750,-26.51424802,38.25480342,1088.949848
6.2800,-25.72879572,38.15794938,1087.776014
6.2850,-24.93623625,38.05567653,1086.607
6.2900,-24.13583319,37.9484912,1085.442889
6.2950,-23.32775146,37.83638598,1084.283692
6.3000,-22.5117222,37.71802926,1083.130216
6.3050,-21.68731659,37.59408012,1081.982347
6.3100,-20.85470551,37.46476983,1080.840959
6.3150,-20.01406671,37.33180845,1079.706662
6.3200,-19.1646105,37.19467824,1078.578463
6.3250,-18.30622112,37.05403399,1077.457185
6.3300,-17.4386241,36.91081596,1076.343377
6.3350,-16.56169053,36.7639406,1075.23723
6.3400,-15.67808144,36.61427277,1074.13919
6.3450,-14.78628062,36.45981267,1073.048792
6.3500,-13.88754221,36.3023688,1071.966381
6.3550,-12.98335162,36.13906676,1070.892188
6.3600,-12.07205625,35.97046613,1069.825494
6.3650,-11.15522531,35.79690844,1068.766993
6.3700,-10.23243562,35.61890943,1067.716612
6.3750,-9.305437457,35.43489533,1066.674703
6.3800,-8.375622024,35.24419185,1065.641756
6.3850,-7.444730734,35.04752839,1064.619284
6.3900,-6.512878453,34.84468742,1063.606777
6.3950,-5.582349264,34.63427815,1062.605091
6.4000,-4.652335518,34.41518921,1061.612813
6.4050,-3.724062105,34.18876945,1060.631089
6.4100,-2.79747823,33.95682989,1059.659801
6.4150,-1.874020067,33.71786457,1058.698686
6.4200,-0.9547257637,33.47335963,1057.748395
6.4250,-0.03933294338,33.22149868,1056.808311
6.4300,0.8723545056,32.96497799,1055.878872
6.4350,1.777884739,32.70388909,1054.960469
6.4400,2.676685335,32.43843345,1054.053025
6.4450,3.568920483,32.168799,1053.155914
6.4500,4.453847075,31.89413513,1052.269865
6.4550,5.330654383,31.6156523,1051.394868
6.4600,6.1992674,31.33312496,1050.530917
6.4650,7.058873529,31.04668753,1049.677898
6.4700,7.908760725,30.75590523,1048.835758
6.4750,8.749823441,30.46179049,1048.003629
6.4800,9.581116675,30.16430495,1047.18143
6.4850,10.40383924,29.86518244,1046.369089
6.4900,11.21848814,29.56449297,1045.566226
6.4950,12.02563155,29.26356925,1044.772631
6.5000,12.82668936,28.96283798,1043.987508
6.5050,13.62000897,28.66347796,1043.211761
6.5100,14.40631295,28.36482982,1042.445132
6.5150,15.18665009,28.06669074,1041.686235
6.5200,15.95920108,27.76950799,1040.936355
6.5250,16.7258079,27.47299672,1040.194819
6.5300,17.48603582,27.17686391,1039.461719
6.5350,18.24087436,26.88136494,1038.737263
6.5400,18.99001962,26.58633494,1038.021358
6.5450,19.73436302,26.29069382,1037.313916
6.5500,20.47432828,25.99543747,1036.615315
6.5550,21.21102643,25.69936297,1035.924752
6.5600,21.94325696,25.40344671,1035.243295
6.5650,22.67272422,25.10701271,1034.570305
6.5700,23.3985993,24.81022551,1033.90608
6.5750,24.12171824,24.51255746,1033.250604
6.5800,24.84089896,24.21359335,1032.604233
6.5850,25.55820218,23.9137813,1031.966597
6.5900,26.2722973,23.61146489,1031.338323
6.5950,26.98568802,23.30613592,1030.718673
6.6000,27.69870505,22.99902666,1030.108247
6.6050,28.41327092,22.69024686,1029.506837
6.6100,29.12825059,22.37951052,1028.91467
6.6150,29.84520194,22.06533131,1028.33209
6.6200,30.56365521,21.74686725,1027.759313
6.6250,31.28497792,21.425899,1027.196626
6.6300,32.01056152,21.1018005,1026.643554
6.6350,32.73986526,20.77455758,1026.10032
6.6400,33.47587227,20.44355013,1025.566391
6.6450,34.21700002,20.1090117,1025.042167
6.6500,34.96299856,19.76925406,1024.52761
6.6550,35.71578585,19.42628686,1024.022227
6.6600,36.47418888,19.07887764,1023.526305
6.6650,37.23837625,18.72731297,1023.039329
6.6700,38.00557289,18.37055412,1022.562054
6.6750,38.77636083,18.00959515,1022.094008
6.6800,39.54928209,17.64527715,1021.635345
6.6850,40.3246476,17.27591837,1021.185202
6.6900,41.09927267,16.90102018,1020.744211
6.6950,41.87265044,16.52253976,1020.311987
6.7000,42.6409819,16.14075834,1019.889538
6.7050,43.403216,15.75500048,1019.476367
6.7100,44.15704119,15.36516251,1019.07241
6.7150,44.90147442,14.97344774,1018.677788
6.7200,45.63561316,14.57869009,1018.291677
6.7250,46.3579791,14.1838331,1017.914246
6.7300,47.06727363,13.78819404,1017.545232
6.7350,47.76380428,13.39293997,1017.184012
6.7400,48.44807243,12.99925794,1016.830105
6.7450,49.11882147,12.60631733,1016.483017
6.7500,49.77436006,12.21655036,1016.142914
6.7550,50.41483807,11.83043745,1015.809206
6.7600,51.04140878,11.44869778,1015.481218
6.7650,51.6532343,11.07094809,1015.158957
6.7700,52.2517439,10.69863946,1014.841993
6.7750,52.83640903,10.33070796,1014.530011
6.7800,53.40708493,9.967745151,1014.223011
6.7850,53.96322342,9.608867584,1013.920506
6.7900,54.50538062,9.255467758,1013.622634
6.7950,55.03464762,8.907435395,1013.328976
6.8000,55.54968075,8.563959383,1013.039857
6.8050,56.05098796,8.224467684,1012.754727
6.8100,56.53883437,7.889526865,1012.473682
6.8150,57.01266776,7.558819862,1012.197015
6.8200,57.4724699,7.232774206,1011.924297
6.8250,57.91880009,6.911051298,1011.655625
6.8300,58.35135533,6.593164896,1011.390991
6.8350,58.77058727,6.279103066,1011.13027
6.8400,59.17752522,5.968869276,1010.873237
6.8450,59.57158829,5.661742524,1010.620085
6.8500,59.95297735,5.357588469,1010.370805
6.8550,60.32265626,5.057168383,1010.125335
6.8600,60.6813727,4.758559192,1009.883402
6.8650,61.02975312,4.464067092,1009.645124
6.8700,61.37020564,4.171774824,1009.410163
6.8750,61.70329705,3.88215517,1009.178461
6.8800,62.03083785,3.595606747,1008.949626
6.8850,62.35359351,3.311115433,1008.723515
6.8900,62.67329673,3.029037713,1008.499984
6.8950,62.99041903,2.749222263,1008.278938
6.9000,63.30607626,2.470562516,1008.06005
6.9050,63.62077011,2.192425626,1007.843332
6.9100,63.93603875,1.914382068,1007.628625
6.9150,64.25171971,1.636623346,1007.415658
6.9200,64.56875353,1.359584723,1007.204739
6.9250,64.88654312,1.082064515,1006.99589
6.9300,65.20443552,0.8052120952,1006.78967
6.9350,65.52403577,0.5289049971,1006.585806
6.9400,65.84379008,0.2531457241,1006.384754
6.9450,66.16602841,-0.02019638832,1006.186292
6.9500,66.48940512,-0.2914004226,1005.990747
6.9550,66.81421404,-0.5603271023,1005.798312
6.9600,67.1396896,-0.8258403694,1005.609252
6.9650,67.46464488,-1.089671094,1005.423814
6.9700,67.79085667,-1.350032576,1005.241539
6.9750,68.11689112,-1.606533624,1005.062992
6.9800,68.4426737,-1.859764918,1004.887848
6.9850,68.76868352,-2.108179254,1004.716259
6.9900,69.09377747,-2.351897792,1004.548377
6.9950,69.41810397,-2.590540001,1004.384243
7.0000,69.74178061,-2.823210625,1004.223759
7.0050,70.06413819,-3.050236213,1004.066853
7.0100,70.38475467,-3.269857166,1003.913813
7.0150,70.70227034,-3.482788275,1003.764652
7.0200,71.0162787,-3.688087763,1003.619499
7.0250,71.32551695,-3.885973716,1003.47839
7.0300,71.62866599,-4.075757746,1003.341643
7.0350,71.92524319,-4.258714284,1003.209234
7.0400,72.21339596,-4.43351491,1003.081436
7.0450,72.49222962,-4.599400859,1002.958518
7.0500,72.76288316,-4.756831956,1002.839937
7.0550,73.02232681,-4.90481225,1002.726808
7.0600,73.26843746,-5.044171224,1002.619405
7.0650,73.50263738,-5.174268784,1002.517336
7.0700,73.72195809,-5.294517919,1002.421297
7.0750,73.92676761,-5.403762163,1002.331398
7.0800,74.11631591,-5.502305007,1002.247641
7.0850,74.29088242,-5.58859,1002.1702
7.0900,74.44944216,-5.664264421,1002.09922
7.0950,74.59118181,-5.729015367,1002.034596
7.1000,74.7175385,-5.782344868,1001.97606
7.1050,74.82812644,-5.82395579,1001.923918
7.1100,74.92368906,-5.854728575,1001.877847
7.1150,75.0031793,-5.872734675,1001.838301
7.1200,75.06732785,-5.880023603,1001.805089
7.1250,75.11529455,-5.876438458,1001.778486
7.1300,75.14797837,-5.862061172,1001.758466
7.1350,75.16495969,-5.837205436,1001.745056
7.1400,75.16586229,-5.802455219,1001.738489
7.1450,75.15148264,-5.757569278,1001.738763
7.1500,75.12268185,-5.703343075,1001.745708
7.1550,75.07887678,-5.640978597,1001.759616
7.1600,75.02095741,-5.56984287,1001.78027
7.1650,74.94733341,-5.492226527,1001.808103
7.1700,74.85821442,-5.406904608,1001.843323
7.1750,74.75494129,-5.315345753,1001.88565
7.1800,74.63835323,-5.218187978,1001.935063
7.1850,74.50708047,-5.11615985,1001.992012
7.1900,74.36321968,-5.007985223,1002.056162
7.1950,74.20490863,-4.896014299,1002.128039
7.2000,74.0332088,-4.780229052,1002.207667
7.2050,73.84754347,-4.661100777,1002.295149
7.2100,73.64834338,-4.538251512,1002.390691
7.2150,73.43737021,-4.412141828,1002.494077
7.2200,73.21392718,-4.282942229,1002.605399
7.2250,72.97950861,-4.14939046,1002.724695
7.2300,72.73334729,-4.014100507,1002.852135
7.2350,72.4761362,-3.876735289,1002.987589
7.2400,72.20680472,-3.735617444,1003.131688
7.2450,71.92527126,-3.592442249,1003.284385
7.2500,71.63235153,-3.44714024,1003.445796
7.2550,71.32593757,-3.299253252,1003.616569
7.2600,71.00607672,-3.150728566,1003.796947
7.2650,70.67255139,-2.998972025,1003.987199
7.2700,70.32439846,-2.844229341,1004.187877
7.2750,69.9616662,-2.687756293,1004.398916
7.2800,69.58408589,-2.528140132,1004.621068
7.2850,69.19095693,-2.366831474,1004.854464
7.2900,68.7818216,-2.202496933,1005.099653
7.2950,68.35597441,-2.035674493,1005.356922
7.3000,67.91328082,-1.865939004,1005.626415
7.3050,67.45257078,-1.692774254,1005.908738
7.3100,66.97396567,-1.516649642,1006.20401
7.3150,66.47808775,-1.335651443,1006.512268
7.3200,65.96425565,-1.149553603,1006.834146
7.3250,65.43107558,-0.9583067889,1007.170041
7.3300,64.87788812,-0.7623597489,1007.519936
7.3350,64.30447477,-0.55990214,1007.884194
7.3400,63.71058513,-0.3505031629,1008.263159
7.3450,63.09604015,-0.1334882733,1008.65712
7.3500,62.45963995,0.09103852602,1009.066121
7.3550,61.80228498,0.3234522411,1009.489976
7.3600,61.12288869,0.5646164328,1009.929009
7.3650,60.41970071,0.8154843089,1010.383533
7.3700,59.69418848,1.075714754,1010.853257
7.3750,58.94561091,1.345886485,1011.338259
7.3800,58.17407075,1.62698396,1011.838687
7.3850,57.37938258,1.918125317,1012.354604
7.3900,56.56158729,2.219944387,1012.885761
7.3950,55.72065898,2.532298824,1013.432583
7.4000,54.85653616,2.856269976,1013.995384
7.4050,53.97030495,3.191475966,1014.573536
7.4100,53.06246412,3.538150834,1015.16691
7.4150,52.13413028,3.894915265,1015.775346
7.4200,51.18646368,4.263105146,1016.398462
7.4250,50.21996971,4.641941418,1017.03639
7.4300,49.23503518,5.031482681,1017.689026
7.4350,48.23253295,5.431348355,1018.356393
7.4400,47.21386749,5.839752944,1019.037784
7.4450,46.17864143,6.256932033,1019.733309
7.4500,45.12718734,6.681922773,1020.443247
7.4550,44.06045414,7.115026191,1021.167413
7.4600,42.97887048,7.555452791,1021.905572
7.4650,41.88381445,8.003520754,1022.657401
7.4700,40.77557016,8.458161143,1023.422874
7.4750,39.65455185,8.91989273,1024.202066
7.4800,38.52034897,9.388776098,1024.995202
7.4850,37.37402801,9.864073021,1025.801877
7.4900,36.21487219,10.34442902,1026.622427
7.4950,35.04432793,10.83040778,1027.456508
7.5000,33.86208494,11.32139301,1028.30416
7.5050,32.66865505,11.81602757,1029.165233
7.5100,31.46407847,12.31371507,1030.03972
7.5150,30.24768237,12.8158975,1030.92811
7.5200,29.02139052,13.32054301,1031.829755
7.5250,27.78506052,13.82669415,1032.744434
7.5300,26.54142639,14.33547085,1033.671321
7.5350,25.28971111,14.84618362,1034.610861
7.5400,24.03261984,15.35776896,1035.562262
7.5450,22.76956158,15.86920069,1036.525621
7.5500,21.50192312,16.38068818,1037.500389
7.5550,20.23126268,16.89003974,1038.485985
7.5600,18.95785963,17.39964224,1039.482321
7.5650,17.68356486,17.90651324,1040.48854
7.5700,16.40943644,18.41141579,1041.504149
7.5750,15.13658474,18.91432755,1042.528716
7.5800,13.86677375,19.4133798,1043.561158
7.5850,12.60042067,19.90944252,1044.602021
7.5900,11.33916128,20.40244031,1045.650436
7.5950,10.08336058,20.89171539,1046.706387
7.6000,8.834969678,21.37642549,1047.769658
7.6050,7.593606737,21.85614619,1048.840697
7.6100,6.359898576,22.33125089,1049.918972
7.6150,5.134354879,22.79936158,1051.004693
7.6200,3.916239932,23.26201332,1052.097966
7.6250,2.708700508,23.71834561,1053.19814
7.6300,1.511575728,24.16917337,1054.30562
7.6350,0.3254341331,24.61293409,1055.420848
7.6400,-0.8488756879,25.0505397,1056.543467
7.6450,-2.010818316,25.48144847,1057.67306
7.6500,-3.158848402,25.90611082,1058.809912
7.6550,-4.29273633,26.32460928,1059.953941
7.6600,-5.411379902,26.73838969,1061.104738
7.6650,-6.514231533,27.14680797,1062.262102
7.6700,-7.601211285,27.55185459,1063.425959
7.6750,-8.672968084,27.9515576,1064.596335
7.6800,-9.72790474,28.3467366,1065.772489
7.6850,-10.76647324,28.73857686,1066.954314
7.6900,-11.78804144,29.12746294,1068.141627
7.6950,-12.79242827,29.51328228,1069.333761
7.7000,-13.78058276,29.89613321,1070.530873
7.7050,-14.75339334,30.27588218,1071.733264
7.7100,-15.7101403,30.6528922,1072.940368
7.7150,-16.65189618,31.02713852,1074.151898
7.7200,-17.5788738,31.39996567,1075.368729
7.7250,-18.49146676,31.77069903,1076.589996
7.7300,-19.38956985,32.13931174,1077.815014
7.7350,-20.27418917,32.50498778,1079.044261
7.7400,-21.14611304,32.86974262,1080.278395
7.7450,-22.00503902,33.23287335,1081.517164
7.7500,-22.85202374,33.59464651,1082.760567
7.7550,-23.68691329,33.95485291,1084.009195
7.7600,-24.51036508,34.31297104,1085.263353
7.7650,-25.3231449,34.66966848,1086.523865
7.7700,-26.12649546,35.02489571,1087.790619
7.7750,-26.92167623,35.37827157,1089.063846
7.7800,-27.70902554,35.73049786,1090.343469
7.7850,-28.48893895,36.08045573,1091.630348
7.7900,-29.26286925,36.4282477,1092.924004
7.7950,-30.03122861,36.77604122,1094.225224
7.8000,-30.79539428,37.12215886,1095.53359
7.8050,-31.55564621,37.46901303,1096.849233
7.8100,-32.31362898,37.81519515,1098.173464
7.8150,-33.0691691,38.15913331,1099.505476
7.8200,-33.82488372,38.50211331,1100.846217
7.8250,-34.58138853,38.84328526,1102.195707
7.8300,-35.3394816,39.1824138,1103.554542
7.8350,-36.10031106,39.51918454,1104.92278
7.8400,-36.86409603,39.851893,1106.300314
7.8450,-37.63211749,40.18133313,1107.687539
7.8500,-38.4033077,40.50678689,1109.08407
7.8550,-39.17957266,40.82800669,1110.490428
7.8600,-39.95952985,41.14385961,1111.905666
7.8650,-40.74295396,41.45434891,1113.330239
7.8700,-41.52940741,41.75814837,1114.764181
7.8750,-42.31874889,42.05407771,1116.207639
7.8800,-43.11196266,42.34290344,1117.661438
7.8850,-43.9075699,42.62362113,1119.124121
7.8900,-44.70523229,42.89574716,1120.596437
7.8950,-45.50418577,43.15959502,1122.077895
7.9000,-46.30437196,43.41632988,1123.56772
7.9050,-47.10368575,43.66592958,1125.064929
7.9100,-47.9023572,43.90858222,1126.570131
7.9150,-48.69940107,44.14464862,1128.0825
7.9200,-49.4942853,44.37376531,1129.601367
7.9250,-50.28750511,44.59591311,1131.126675
7.9300,-51.07744323,44.81174155,1132.658048
7.9350,-51.86569055,45.02346572,1134.195303
7.9400,-52.65116281,45.22850672,1135.737479
7.9450,-53.43416055,45.42940903,1137.285144
7.9500,-54.2153633,45.62616582,1138.838195
7.9550,-54.99471286,45.81946272,1140.395944
7.9600,-55.77162488,46.00956861,1141.958586
7.9650,-56.54549794,46.19704443,1143.525607
7.9700,-57.31627554,46.38154441,1145.097478
7.9750,-58.08360532,46.56433763,1146.674204
7.9800,-58.84779773,46.7445799,1148.25593
7.9850,-59.60821595,46.92332173,1149.842253
7.9900,-60.36487391,47.1000481,1151.432949
7.9950,-61.11798809,47.27644919,1153.028459
8.0000,-61.86674063,47.45117442,1154.627914
8.0050,-62.60947401,47.62540901,1156.231446
8.0100,-63.34730909,47.80008486,1157.839358
8.0150,-64.0794946,47.97552873,1159.451744
8.0200,-64.80576159,48.15065345,1161.067796
8.0250,-65.52567355,48.32718653,1162.687721
8.0300,-66.23850369,48.50519778,1164.312334
8.0350,-66.94444772,48.6855023,1165.940726
8.0400,-67.64360621,48.86681333,1167.573331
8.0450,-68.3352928,49.04966798,1169.209474
8.0500,-69.01972217,49.23378555,1170.849091
8.0550,-69.69897219,49.41857677,1172.491436
8.0600,-70.37160603,49.60510113,1174.137781
8.0650,-71.03912539,49.79276657,1175.786957
8.0700,-71.7003917,49.98067885,1177.438965
8.0750,-72.35632605,50.16782172,1179.093927
8.0800,-73.00578586,50.35442755,1180.751601
8.0850,-73.64882516,50.54209792,1182.411319
8.0900,-74.28662864,50.72935321,1184.073799
8.0950,-74.91761607,50.91634628,1185.738597
8.1000,-75.54229021,51.10281684,1187.405618
8.1050,-76.16029903,51.28873112,1189.07534
8.1100,-76.77088914,51.47386581,1190.745627
8.1150,-77.37494921,51.65860412,1192.416882
8.1200,-77.97151332,51.84216973,1194.089065
8.1250,-78.56016882,52.02445483,1195.762007
8.1300,-79.14096461,52.20556242,1197.436076
8.1350,-79.7123358,52.38667098,1199.110629
8.1400,-80.27404278,52.56662855,1200.784788
8.1450,-80.82490769,52.74770996,1202.459204
8.1500,-81.36535451,52.93094903,1204.134157
8.1550,-81.89394697,53.11558104,1205.808966
8.1600,-82.41049418,53.30082378,1207.483563
8.1650,-82.91515296,53.48747806,1209.158351
8.1700,-83.40800081,53.67501441,1210.832335
8.1750,-83.88851584,53.86507039,1212.506053
8.1800,-84.35672949,54.05562978,1214.178772
8.1850,-84.81279869,54.24766452,1215.850981
8.1900,-85.25662282,54.44108555,1217.522048
8.1950,-85.68854937,54.63550564,1219.191983
8.2000,-86.10945857,54.82907635,1220.861225
8.2050,-86.52010884,55.0208314,1222.530251
8.2100,-86.92009594,55.21103409,1224.198066
8.2150,-87.31064041,55.39988122,1225.864723
8.2200,-87.69103134,55.58606883,1227.530469
8.2250,-88.06158389,55.77061482,1229.195233
8.2300,-88.42243881,55.95250477,1230.858928
8.2350,-88.77415945,56.13062438,1232.520178
8.2400,-89.11843899,56.30579624,1234.179349
8.2450,-89.45584714,56.47598456,1235.836369
8.2500,-89.78628423,56.64274208,1237.49134
8.2550,-90.1096637,56.80527885,1239.144333
8.2600,-90.42696472,56.96391967,1240.795016
8.2650,-90.73812021,57.11707484,1242.442961
8.2700,-91.04276192,57.26532944,1244.088015
8.2750,-91.34143724,57.40892585,1245.729858
8.2800,-91.63369867,57.5488327,1247.368604
8.2850,-91.91997026,57.68308232,1249.004507
8.2900,-92.20035782,57.81181286,1250.637914
8.2950,-92.47531757,57.93525293,1252.268607
8.3000,-92.74479879,58.05416617,1253.89701
8.3050,-93.00942654,58.16824205,1255.523123
8.3100,-93.26826429,58.27643076,1257.146634
8.3150,-93.52071548,58.37948059,1258.767663
8.3200,-93.76749919,58.47773208,1260.38656
8.3250,-94.00768531,58.5706608,1262.002699
8.3300,-94.24222111,58.65698451,1263.615888
8.3350,-94.47025469,58.73694025,1265.226828
8.3400,-94.69310507,58.81072192,1266.835194
8.3450,-94.91080611,58.87674006,1268.440721
8.3500,-95.12371664,58.93619874,1270.044069
8.3550,-95.33045076,58.98932595,1271.645273
8.3600,-95.53291562,59.03576242,1273.243396
8.3650,-95.72940845,59.07498021,1274.839158
8.3700,-95.92037035,59.10881086,1276.432203
8.3750,-96.10589248,59.13792216,1278.023085
8.3800,-96.28662833,59.16068309,1279.611585
8.3850,-96.46184291,59.17800458,1281.197439
8.3900,-96.63139386,59.19011083,1282.78109
8.3950,-96.79720819,59.19604106,1284.361965
8.4000,-96.95790407,59.19717793,1285.940679
8.4050,-97.11394255,59.19240404,1287.517863
8.4100,-97.26525048,59.1841917,1289.093653
8.4150,-97.41171299,59.17205587,1290.66839
8.4200,-97.55264776,59.15716697,1292.242239
8.4250,-97.68858619,59.14023432,1293.815578
8.4300,-97.81942508,59.1192293,1295.387191
8.4350,-97.94512366,59.09538846,1296.957774
8.4400,-98.06580678,59.0700332,1298.528554
8.4450,-98.18193875,59.04134068,1300.098028
8.4500,-98.29412559,59.00813277,1301.666241
8.4550,-98.40171489,58.97211513,1303.232859
8.4600,-98.50568214,58.93236077,1304.798244
8.4650,-98.60630537,58.88985496,1306.362127
8.4700,-98.70311112,58.84605357,1307.925858
8.4750,-98.7975953,58.79856859,1309.488259
8.4800,-98.88905403,58.75031296,1311.049714
8.4850,-98.97878613,58.69924703,1312.610777
8.4900,-99.06687052,58.64599258,1314.170344
8.4950,-99.15354868,58.5909715,1315.728675
8.5000,-99.23866401,58.53547749,1317.28583
8.5050,-99.32208872,58.48176607,1318.841128
8.5100,-99.40363093,58.4284791,1320.39493
8.5150,-99.48398624,58.37478797,1321.94676
8.5200,-99.56429811,58.32129843,1323.496609
8.5250,-99.64490387,58.26912674,1325.044549
8.5300,-99.72599613,58.2184032,1326.589537
8.5350,-99.80740957,58.1691314,1328.133028
8.5400,-99.88992742,58.12109868,1329.674965
8.5450,-99.97272127,58.07557964,1331.214808
8.5500,-100.0574079,58.0311468,1332.750806
8.5550,-100.1427472,57.98872003,1334.28293
8.5600,-100.2281796,57.94801712,1335.811836
8.5650,-100.3142738,57.91070096,1337.337527
8.5700,-100.4015428,57.87570933,1338.859145
8.5750,-100.4881921,57.84378718,1340.376875
8.5800,-100.5759387,57.81476854,1341.889527
8.5850,-100.6644851,57.7889794,1343.396262
8.5900,-100.7540607,57.76728641,1344.897643
8.5950,-100.8445103,57.74692916,1346.393291
8.6000,-100.9354465,57.72973204,1347.882889
8.6050,-101.0272576,57.71471219,1349.366389
8.6100,-101.1201674,57.70323129,1350.844023
8.6150,-101.215015,57.69379078,1352.316512
8.6200,-101.3103121,57.68863089,1353.782799
8.6250,-101.4050966,57.68620156,1355.243571
8.6300,-101.4990498,57.68716085,1356.699488
8.6350,-101.592617,57.69192725,1358.149665
8.6400,-101.6830235,57.70137262,1359.593414
8.6450,-101.7703017,57.71645673,1361.03148
8.6500,-101.8535009,57.73713692,1362.463791
8.6550,-101.9324483,57.76318711,1363.889771
8.6600,-102.0062446,57.79433973,1365.310102
8.6650,-102.0745621,57.83114405,1366.723738
8.6700,-102.137703,57.87154936,1368.131118
8.6750,-102.1946387,57.91696536,1369.532212
8.6800,-102.2447089,57.96640094,1370.926994
8.6850,-102.2880316,58.01956856,1372.315667
8.6900,-102.3243742,58.07671419,1373.697974
8.6950,-102.3525793,58.13767423,1375.074017
8.7000,-102.3715498,58.20313457,1376.443863
8.7050,-102.3810101,58.27239188,1377.80634
8.7100,-102.3809097,58.34357276,1379.162108
8.7150,-102.3702484,58.41770054,1380.512532
8.7200,-102.3496884,58.49405319,1381.856456
8.7250,-102.3184467,58.57064263,1383.193056
8.7300,-102.2773947,58.64818216,1384.524089
8.7350,-102.2274891,58.72497993,1385.84887
8.7400,-102.1700358,58.80099198,1387.167293
8.7450,-102.1042499,58.87493001,1388.480063
8.7500,-102.0302081,58.94640587,1389.787211
8.7550,-101.9479087,59.01465819,1391.088804
8.7600,-101.8579082,59.08129605,1392.384726
8.7650,-101.759516,59.14352996,1393.675469
8.7700,-101.6535195,59.19972213,1394.959273
8.7750,-101.5401327,59.25037997,1396.237454
8.7800,-101.4202349,59.2939454,1397.509338
8.7850,-101.2952502,59.33059664,1398.775293
8.7900,-101.164515,59.36006462,1400.034882
8.7950,-101.0281884,59.3822439,1401.289025
8.8000,-100.8860031,59.39756383,1402.537963
8.8050,-100.7390244,59.40472188,1403.781937
8.8100,-100.5871117,59.40419329,1405.020984
8.8150,-100.4285932,59.39732796,1406.255556
8.8200,-100.2626309,59.38338721,1407.484489
8.8250,-100.0890499,59.36062908,1408.708379
8.8300,-99.90737359,59.32915129,1409.928484
8.8350,-99.71667775,59.28958794,1411.143823
8.8400,-99.51540617,59.2431021,1412.354469
8.8450,-99.3039066,59.18763362,1413.56077
8.8500,-99.08043362,59.12358932,1414.76332
8.8550,-98.8463238,59.05037267,1415.962413
8.8600,-98.60198159,58.96648853,1417.15694
8.8650,-98.34733958,58.87121329,1418.34733
8.8700,-98.08327744,58.7630822,1419.533352
8.8750,-97.81132138,58.64166749,1420.715301
8.8800,-97.53080982,58.5058999,1421.893649
8.8850,-97.24220358,58.3552445,1423.068401
8.8900,-96.94737198,58.18912883,1424.23917
8.8950,-96.64528359,58.01069932,1425.405949
8.9000,-96.33660479,57.81788722,1426.569396
8.9050,-96.02213744,57.61367313,1427.730381
8.9100,-95.70190965,57.39650622,1428.888096
8.9150,-95.37587366,57.16926927,1430.040747
8.9200,-95.04591379,56.93026499,1431.188892
8.9250,-94.71434769,56.68200163,1432.334535
8.9300,-94.3791347,56.42619587,1433.477367
8.9350,-94.04018896,56.16529033,1434.617661
8.9400,-93.69655334,55.89978973,1435.7555
8.9450,-93.34909072,55.63094085,1436.891128
8.9500,-92.99760711,55.35905725,1438.024143
8.9550,-92.64150494,55.08622065,1439.154535
8.9600,-92.28068842,54.81265983,1440.28271
8.9650,-91.91582351,54.53776686,1441.408554
8.9700,-91.54560565,54.26249352,1442.531864
8.9750,-91.16820697,53.98668506,1443.652985
8.9800,-90.78402801,53.71218342,1444.772623
8.9850,-90.3939184,53.43703291,1445.890801
8.9900,-89.99629824,53.16236758,1447.007039
8.9950,-89.59016892,52.88721328,1448.121748
9.0000,-89.17684043,52.61149901,1449.235309
9.0050,-88.75596785,52.33579171,1450.347688
9.0100,-88.32713171,52.06014595,1451.459098
9.0150,-87.89017016,51.78254265,1452.567946
9.0200,-87.44628423,51.50189594,1453.674538
9.0250,-86.9950926,51.22043745,1454.780331
9.0300,-86.53664469,50.93700949,1455.883723
9.0350,-86.06910132,50.65113677,1456.984833
9.0400,-85.59309983,50.36210558,1458.083131
9.0450,-85.10821943,50.06933366,1459.177897
9.0500,-84.61422537,49.77268334,1460.269617
9.0550,-84.11223512,49.47208352,1461.357906
9.0600,-83.60178367,49.16553915,1462.441751
9.0650,-83.08343102,48.85422264,1463.52079
9.0700,-82.55795517,48.53800723,1464.59546
9.0750,-82.02506442,48.21629733,1465.664554
9.0800,-81.48556647,47.88961958,1466.728068
9.0850,-80.93854238,47.5574098,1467.78457
9.0900,-80.38551327,47.21787966,1468.834573
9.0950,-79.82766245,46.87031569,1469.877207
9.1000,-79.26623211,46.51418697,1470.912325
9.1050,-78.70091163,46.14893224,1471.939796
9.1100,-78.13357893,45.77425507,1472.95905
9.1150,-77.56704248,45.3898776,1473.970021
9.1200,-77.00125678,44.99683004,1474.974215
9.1250,-76.43736152,44.59600725,1475.970518
9.1300,-75.87661541,44.18786353,1476.957903
9.1350,-75.3194148,43.77391936,1477.936822
9.1400,-74.76676291,43.35437116,1478.907045
9.1450,-74.21904465,42.93156166,1479.868669
9.1500,-73.67624007,42.50638733,1480.821431
9.1550,-73.13945856,42.08052361,1481.765156
9.1600,-72.60855345,41.6560233,1482.69963
9.1650,-72.0835997,41.23436604,1483.624969
9.1700,-71.56430169,40.81696652,1484.541709
9.1750,-71.04961665,40.40613622,1485.449536
9.1800,-70.5398536,40.00248354,1486.348817
9.1850,-70.03449456,39.60805649,1487.239839
9.1900,-69.53177412,39.2244976,1488.121642
9.1950,-69.03128222,38.85256598,1488.994939
9.2000,-68.53254399,38.49426166,1489.859569
9.2050,-68.03567111,38.14853657,1490.7148
9.2100,-67.53892602,37.81775083,1491.560927
9.2150,-67.04330071,37.50062588,1492.398774
9.2200,-66.54643323,37.19886511,1493.228938
9.2250,-66.04988056,36.91246024,1494.050605
9.2300,-65.55510137,36.64136517,1494.863728
9.2350,-65.06029042,36.38569385,1495.668522
9.2400,-64.56591689,36.14480066,1496.466246
9.2450,-64.07124911,35.91807172,1497.256239
9.2500,-63.57613483,35.70426861,1498.038601
9.2550,-63.08074445,35.50298266,1498.813939
9.2600,-62.58538996,35.31368135,1499.581997
9.2650,-62.09005542,35.1355365,1500.34375
9.2700,-61.59568604,34.96688454,1501.099065
9.2750,-61.10384628,34.80685018,1501.847962
9.2800,-60.61512968,34.65374466,1502.590032
9.2850,-60.12929159,34.50778289,1503.325922
9.2900,-59.64698683,34.36827582,1504.056056
9.2950,-59.16917176,34.23423019,1504.781272
9.3000,-58.69521583,34.1042187,1505.499768
9.3050,-58.22685245,33.97774675,1506.213004
9.3100,-57.7641758,33.85389234,1506.920565
9.3150,-57.30755467,33.73269622,1507.623349
9.3200,-56.85557178,33.61410929,1508.321166
9.3250,-56.40949374,33.49657829,1509.013858
9.3300,-55.96751019,33.38144432,1509.702566
9.3350,-55.53222074,33.26703937,1510.387094
9.3400,-55.1021884,33.1534074,1511.067525
9.3450,-54.67786597,33.04138383,1511.744496
9.3500,-54.26061776,32.93090206,1512.41686
9.3550,-53.84964632,32.82092406,1513.084288
9.3600,-53.44521846,32.71315303,1513.748048
9.3650,-53.04660051,32.60714187,1514.406882
9.3700,-52.65489489,32.50080553,1515.060553
9.3750,-52.27008857,32.39511955,1515.708897
9.3800,-51.89185284,32.29006987,1516.35106
9.3850,-51.52129879,32.18551428,1516.987567
9.3900,-51.15783177,32.08169938,1517.617746
9.3950,-50.80073847,31.9786184,1518.240896
9.4000,-50.4495804,31.87581893,1518.856214
9.4050,-50.10470873,31.77484988,1519.463667
9.4100,-49.76531596,31.67608587,1520.063304
9.4150,-49.42974788,31.57859039,1520.654306
9.4200,-49.09881788,31.48297459,1521.235699
9.4250,-48.77171952,31.38911671,1521.807548
9.4300,-48.44880561,31.29726419,1522.370259
9.4350,-48.12999033,31.20636925,1522.922742
9.4400,-47.81412184,31.11749247,1523.465453
9.4450,-47.50031819,31.03134559,1523.997801
9.4500,-47.1878097,30.94962608,1524.519581
9.4550,-46.8745469,30.86944466,1525.029462
9.4600,-46.56150386,30.79157348,1525.528477
9.4650,-46.24727923,30.71538925,1526.015702
9.4700,-45.93127605,30.64268902,1526.491374
9.4750,-45.61377989,30.57208729,1526.955688
9.4800,-45.29336481,30.50547183,1527.408425
9.4850,-44.96990004,30.44230696,1527.849724
9.4900,-44.64348193,30.38192459,1528.279892
9.4950,-44.31399535,30.32333219,1528.698735
9.5000,-43.98221363,30.26617847,1529.105919
9.5050,-43.647777,30.21132257,1529.501822
9.5100,-43.311411,30.15772493,1529.887163
9.5150,-42.97315005,30.10613328,1530.262804
9.5200,-42.63428093,30.05526699,1530.628583
9.5250,-42.29330886,30.00462378,1530.984234
9.5300,-41.94996699,29.95449288,1531.33032
9.5350,-41.60475769,29.90390526,1531.667154
9.5400,-41.25878872,29.85309665,1531.994592
9.5450,-40.91214742,29.80184547,1532.313547
9.5500,-40.56605439,29.75097433,1532.624993
9.5550,-40.22092556,29.69763665,1532.928404
9.5600,-39.87700926,29.64295767,1533.224951
9.5650,-39.53375746,29.58650555,1533.514011
9.5700,-39.19166368,29.52929552,1533.796035
9.5750,-38.85087103,29.47055208,1534.071303
9.5800,-38.51203556,29.41020945,1534.340516
9.5850,-38.17465641,29.34860952,1534.604001
9.5900,-37.83901944,29.2855875,1534.862053
9.5950,-37.50523103,29.22171564,1535.114872
9.6000,-37.17427539,29.15616649,1535.364094
9.6050,-36.84496175,29.08878311,1535.609044
9.6100,-36.51728246,29.01977944,1535.850491
9.6150,-36.19145111,28.95045475,1536.089178
9.6200,-35.86839565,28.87944049,1536.325405
9.6250,-35.54690133,28.80778106,1536.559512
9.6300,-35.22952115,28.73474695,1536.79144
9.6350,-34.91469122,28.66185148,1537.02112
9.6400,-34.60291442,28.58870728,1537.249434
9.6450,-34.29522012,28.51362184,1537.475866
9.6500,-33.98983342,28.43797219,1537.701052
9.6550,-33.68711287,28.36239133,1537.92541
9.6600,-33.38736511,28.28566719,1538.148412
9.6650,-33.09131579,28.20790267,1538.370557
9.6700,-32.79800897,28.12982849,1538.592037
9.6750,-32.50721262,28.05166405,1538.812686
9.6800,-32.21914792,27.97218083,1539.032934
9.6850,-31.93326395,27.89151933,1539.252235
9.6900,-31.65096917,27.80989187,1539.470948
9.6950,-31.37335048,27.72745785,1539.68904
9.7000,-31.10122076,27.64398498,1539.906725
9.7050,-30.83564511,27.55984137,1540.123826
9.7100,-30.57779079,27.47467967,1540.340491
9.7150,-30.32822513,27.39091264,1540.556775
9.7200,-30.08868003,27.30876366,1540.773286
9.7250,-29.85980056,27.22860462,1540.989775
9.7300,-29.64132533,27.15081693,1541.205634
9.7350,-29.43337783,27.07734661,1541.421169
9.7400,-29.23681915,27.00770225,1541.635704
9.7450,-29.05274086,26.94197738,1541.848884
9.7500,-28.88159446,26.88013784,1542.060764
9.7550,-28.72354017,26.82440228,1542.271723
9.7600,-28.57817027,26.77418535,1542.480233
9.7650,-28.444967,26.73044936,1542.686388
9.7700,-28.32502709,26.69260066,1542.889019
9.7750,-28.21783877,26.66226823,1543.087752
9.7800,-28.12377709,26.63778153,1543.281871
9.7850,-28.04240375,26.61908424,1543.470154
9.7900,-27.97351419,26.60707234,1543.652584
9.7950,-27.91797041,26.60028208,1543.82815
9.8000,-27.8749485,26.60010011,1543.996796
9.8050,-27.84351911,26.60591412,1544.157119
9.8100,-27.82414434,26.61797234,1544.30886
9.8150,-27.8155528,26.63593006,1544.450632
9.8200,-27.81675422,26.66004469,1544.582314
9.8250,-27.82774826,26.68959353,1544.702816
9.8300,-27.84873577,26.72452265,1544.811887
9.8350,-27.87995561,26.76575436,1544.909814
9.8400,-27.92141699,26.81237565,1544.996706
9.8450,-27.97376535,26.86394945,1545.072369
9.8500,-28.03519313,26.92018759,1545.135621
9.8550,-28.10530734,26.98290471,1545.187035
9.8600,-28.18526375,27.05152141,1545.226353
9.8650,-28.27436577,27.12616265,1545.253566
9.8700,-28.37183732,27.20563458,1545.268755
9.8750,-28.47820362,27.2891227,1545.271615
9.8800,-28.59168988,27.37621222,1545.262059
9.8850,-28.71249428,27.46698134,1545.239442
9.8900,-28.84093157,27.55975286,1545.203839
9.8950,-28.97568682,27.65433723,1545.15457
9.9000,-29.11645011,27.75127768,1545.091478
9.9050,-29.26329008,27.84913308,1545.015039
9.9100,-29.41539041,27.94839324,1544.925121
9.9150,-29.57396499,28.04731282,1544.82131
9.9200,-29.73740738,28.14798705,1544.704459
9.9250,-29.90730484,28.24771355,1544.574058
9.9300,-30.08153344,28.34799163,1544.430362
9.9350,-30.26131113,28.44748595,1544.274208
9.9400,-30.44627183,28.54541157,1544.104798
9.9450,-30.63613035,28.64440145,1543.922765
9.9500,-30.83304452,28.74151193,1543.728213
9.9550,-31.03629639,28.83758847,1543.521617
9.9600,-31.24559526,28.93334312,1543.30328
9.9650,-31.46229522,29.02783831,1543.074203
9.9700,-31.68520717,29.12289309,1542.834713
9.9750,-31.91584857,29.21640667,1542.58499
9.9800,-32.15346196,29.30977381,1542.325378
9.9850,-32.39908631,29.40333875,1542.056933
9.9900,-32.65144662,29.49706748,1541.779778
9.9950,-32.91121691,29.59209108,1541.494651
10.0000,-33.17800698,29.68757061,1541.201309
10.0050,-33.4526388,29.78214393,1540.900074
10.0100,-33.73356628,29.87780738,1540.591045
10.0150,-34.02228364,29.97266117,1540.274576
10.0200,-34.3167852,30.0666788,1539.950113
10.0250,-34.61764159,30.16079329,1539.618403
10.0300,-34.92468335,30.25644595,1539.280173
10.0350,-35.23885375,30.35297897,1538.935837
10.0400,-35.55908668,30.4516314,1538.585282
10.0450,-35.8848549,30.5538949,1538.229163
10.0500,-36.21658046,30.6586989,1537.866974
10.0550,-36.55488373,30.76727213,1537.499734
10.0600,-36.89883764,30.87953086,1537.127161
10.0650,-37.24980892,30.99570291,1536.749525
10.0700,-37.60646234,31.11621682,1536.367184
10.0750,-37.96948706,31.23925912,1535.979943
10.0800,-38.33820973,31.36634645,1535.588006
10.0850,-38.7134018,31.49795827,1535.192223
10.0900,-39.09512196,31.63260952,1534.792438
10.0950,-39.48420823,31.77286033,1534.38982
10.1000,-39.88027533,31.91799143,1533.98433
10.1050,-40.28304376,32.06741593,1533.576079
10.1100,-40.69316427,32.22068891,1533.165271
10.1150,-41.10898848,32.37874764,1532.752179
10.1200,-41.53163315,32.54111255,1532.336294
10.1250,-41.96071364,32.70890445,1531.918979
10.1300,-42.39520481,32.88167695,1531.49971
10.1350,-42.83647027,33.05749923,1531.078744
10.1400,-43.28426689,33.2363121,1530.655588
10.1450,-43.73875877,33.42017178,1530.230648
10.1500,-44.20043762,33.60844742,1529.804265
10.1550,-44.66982924,33.80098034,1529.377113
10.1600,-45.14670333,33.99686715,1528.948806
10.1650,-45.63034439,34.19626856,1528.519322
10.1700,-46.12078428,34.39990689,1528.088498
10.1750,-46.61813895,34.60814584,1527.657128
10.1800,-47.12178862,34.82104337,1527.224096
10.1850,-47.63176403,35.03934544,1526.789753
10.1900,-48.14618032,35.26309839,1526.353553
10.1950,-48.66619157,35.49253947,1525.915439
10.2000,-49.19119029,35.72718107,1525.474806
10.2050,-49.7201942,35.96789712,1525.030821
10.2100,-50.25466207,36.21361581,1524.583366
10.2150,-50.79293483,36.46491922,1524.131943
10.2200,-51.33566549,36.7189403,1523.675488
10.2250,-51.88347664,36.97722901,1523.21385
10.2300,-52.43649819,37.2373617,1522.746864
10.2350,-52.99382033,37.50136115,1522.273886
10.2400,-53.55591076,37.77011362,1521.795002
10.2450,-54.12232819,38.04225638,1521.309278
10.2500,-54.69149254,38.31905405,1520.816063
10.2550,-55.26402102,38.59969319,1520.314815
10.2600,-55.83949818,38.88307727,1519.804613
10.2650,-56.41640633,39.17144273,1519.284597
10.2700,-56.99537286,39.46166319,1518.754297
10.2750,-57.57543478,39.75644867,1518.213822
10.2800,-58.15820479,40.0534596,1517.662171
10.2850,-58.74283909,40.35362918,1517.099263
10.2900,-59.33032254,40.65728413,1516.524653
10.2950,-59.91988313,40.96315425,1515.937369
10.3000,-60.51116758,41.27243714,1515.338317
10.3050,-61.10230979,41.58571167,1514.726081
10.3100,-61.69457942,41.90307779,1514.100258
10.3150,-62.2867267,42.2243613,1513.460868
10.3200,-62.87853551,42.55080021,1512.807383
10.3250,-63.4705303,42.88154146,1512.139185
10.3300,-64.06248161,43.21657165,1511.455174
10.3350,-64.65291827,43.55578805,1510.753946
10.3400,-65.24244166,43.89780278,1510.036132
10.3450,-65.83074395,44.24215996,1509.300888
10.3500,-66.41825936,44.5888684,1508.548771
10.3550,-67.00463561,44.93750161,1507.778628
10.3600,-67.5904641,45.28875538,1506.991165
10.3650,-68.17585193,45.64186209,1506.185839
10.3700,-68.76005759,45.99724757,1505.363261
10.3750,-69.34311354,46.35571075,1504.522867
10.3800,-69.9246277,46.71717947,1503.665039
10.3850,-70.50473703,47.0811188,1502.789645
10.3900,-71.08280061,47.44828102,1501.896238
10.3950,-71.65832298,47.81860904,1500.984806
10.4000,-72.23187721,48.19052604,1500.055671
10.4050,-72.80428529,48.56467217,1499.109054
10.4100,-73.37472627,48.9407206,1498.144953
10.4150,-73.9451267,49.31674352,1497.163819
10.4200,-74.51362154,49.69430049,1496.166316
10.4250,-75.07982377,50.07194855,1495.152179
10.4300,-75.64481097,50.45036408,1494.121844
10.4350,-76.20715314,50.82886618,1493.074977
10.4400,-76.76676141,51.20865406,1492.012769
10.4450,-77.32158583,51.58766453,1490.93527
10.4500,-77.87161,51.96622708,1489.843296
10.4550,-78.41728085,52.34365615,1488.735991
10.4600,-78.9576638,52.72050213,1487.614539
10.4650,-79.49393026,53.09576769,1486.479271
10.4700,-80.02526026,53.46988115,1485.330846
10.4750,-80.55004425,53.84222618,1484.168869
10.4800,-81.06900046,54.21213073,1482.994379
10.4850,-81.58167155,54.57750882,1481.807672
10.4900,-82.08863282,54.93874421,1480.608966
10.4950,-82.5890911,55.29438632,1479.398954
10.5000,-83.08361758,55.64386766,1478.179101
10.5050,-83.57218641,55.98528046,1476.950058
10.5100,-84.05370221,56.31978694,1475.712303
10.5150,-84.52837113,56.64597352,1474.466753
10.5200,-84.99529683,56.96532714,1473.214004
10.5250,-85.45407306,57.2764673,1471.955034
10.5300,-85.90536584,57.58034111,1470.690666
10.5350,-86.34922119,57.87267975,1469.420333
10.5400,-86.78622947,58.15413998,1468.145249
10.5450,-87.2166172,58.42421022,1466.866603
10.5500,-87.64155609,58.68262552,1465.584764
10.5550,-88.06124059,58.92903672,1464.300499
10.5600,-88.47641443,59.16385166,1463.01484
10.5650,-88.88762624,59.38480717,1461.72842
10.5700,-89.29568611,59.5936428,1460.441408
10.5750,-89.70072165,59.78996474,1459.154425
10.5800,-90.10238101,59.97433798,1457.867638
10.5850,-90.50068554,60.14637103,1456.581167
10.5900,-90.89625678,60.30648814,1455.295564
10.5950,-91.28960648,60.45571918,1454.011879
10.6000,-91.68064652,60.5940814,1452.729203
10.6050,-92.07010841,60.72243127,1451.447596
10.6100,-92.45751503,60.83997043,1450.167967
10.6150,-92.84307442,60.95009433,1448.889462
10.6200,-93.2262736,61.05173653,1447.611943
10.6250,-93.60699538,61.14626559,1446.335901
10.6300,-93.98497235,61.23345559,1445.060132
10.6350,-94.36080786,61.31490214,1443.785594
10.6400,-94.7349414,61.39130023,1442.510444
10.6450,-95.10848477,61.46356555,1441.235337
10.6500,-95.48021831,61.5321829,1439.958794
10.6550,-95.85095583,61.59784949,1438.681688
10.6600,-96.21905933,61.66121907,1437.40299
10.6650,-96.58537668,61.72484061,1436.122992
10.6700,-96.95086606,61.78718185,1434.84016
10.6750,-97.31444253,61.84929223,1433.555188
10.6800,-97.67705895,61.91264901,1432.267459
10.6850,-98.03755347,61.97752623,1430.976044
10.6900,-98.39759434,62.04603685,1429.681092
10.6950,-98.75653047,62.1170256,1428.381884
10.7000,-99.11385459,62.19273892,1427.077101
10.7050,-99.46938497,62.27317487,1425.766391
10.7100,-99.82246841,62.35939527,1424.449339
10.7150,-100.1712319,62.45272675,1423.124908
10.7200,-100.5179268,62.55222384,1421.792679
10.7250,-100.8617699,62.658005,1420.4515
10.7300,-101.2026202,62.76885488,1419.100454
10.7350,-101.5400892,62.8858728,1417.740269
10.7400,-101.8734052,63.00929041,1416.369839
10.7450,-102.2040548,63.13835449,1414.98852
10.7500,-102.5308958,63.27283511,1413.595699
10.7550,-102.8537922,63.41287837,1412.191906
10.7600,-103.1722673,63.55770713,1410.775164
10.7650,-103.4860713,63.70718329,1409.34565
10.7700,-103.7960357,63.86116821,1407.903047
10.7750,-104.1021706,64.01970266,1406.446837
10.7800,-104.4052646,64.18138274,1404.976339
10.7850,-104.705041,64.34686747,1403.491688
10.7900,-105.002375,64.51428693,1401.992056
10.7950,-105.2967617,64.68417546,1400.478331
10.8000,-105.587459,64.85523771,1398.949071
10.8050,-105.8753136,65.02802675,1397.405401
10.8100,-106.1593248,65.20152477,1395.847574
10.8150,-106.439705,65.3745854,1394.275088
10.8200,-106.7165895,65.54816108,1392.688228
10.8250,-106.9873897,65.72369103,1391.087371
10.8300,-107.252833,65.89938871,1389.472527
10.8350,-107.5121728,66.07772419,1387.844415
10.8400,-107.7646457,66.25705641,1386.202377
10.8450,-108.0098571,66.43649416,1384.547205
10.8500,-108.2471762,66.6159304,1382.879258
10.8550,-108.4752745,66.79514427,1381.198924
10.8600,-108.6936072,66.97409965,1379.50607
10.8650,-108.9009206,67.1528113,1377.800969
10.8700,-109.096597,67.32989503,1376.08469
10.8750,-109.28164,67.50354636,1374.356609
10.8800,-109.4551398,67.67514144,1372.61869
10.8850,-109.6182355,67.84234664,1370.871055
10.8900,-109.7710555,68.00421621,1369.114257
10.8950,-109.9137706,68.16067254,1367.348273
10.9000,-110.0481224,68.31154035,1365.573367
10.9050,-110.1743059,68.45565386,1363.791293
10.9100,-110.2927858,68.59318406,1362.000954
10.9150,-110.4038243,68.72279264,1360.203923
10.9200,-110.5084823,68.84704559,1358.399353
10.9250,-110.606322,68.96480684,1356.58678
10.9300,-110.6980921,69.07715201,1354.767543
10.9350,-110.7838864,69.18498744,1352.941199
10.9400,-110.862661,69.28887111,1351.108376
10.9450,-110.9337183,69.38853027,1349.268411
10.9500,-110.9975502,69.48517757,1347.422932
10.9550,-111.0535132,69.58025872,1345.570495
10.9600,-111.1042481,69.67363839,1343.711594
10.9650,-111.1487329,69.76469135,1341.846617
10.9700,-111.1874662,69.85548282,1339.975217
10.9750,-111.2207382,69.94744902,1338.096932
10.9800,-111.2486442,70.04002936,1336.210707
10.9850,-111.2708489,70.13459175,1334.317784
10.9900,-111.2869327,70.23023075,1332.417303
10.9950,-111.2964124,70.32804403,1330.50921
11.0000,-111.2999985,70.42780976,1328.593979
11.0050,-111.2978566,70.52982373,1326.671142
11.0100,-111.2906459,70.63260981,1324.739904
11.0150,-111.2792342,70.73629257,1322.800335
11.0200,-111.2614585,70.84152046,1320.850628
11.0250,-111.2374452,70.94796572,1318.890058
11.0300,-111.2060385,71.0575089,1316.919848
11.0350,-111.1665917,71.16997785,1314.938708
11.0400,-111.1192992,71.2851687,1312.946388
11.0450,-111.0641175,71.40223086,1310.94272
11.0500,-111.0016813,71.52201527,1308.927602
11.0550,-110.9311926,71.64361896,1306.901083
11.0600,-110.8528564,71.76848149,1304.86347
11.0650,-110.7674358,71.89559493,1302.814594
11.0700,-110.6733533,72.02506624,1300.753238
11.0750,-110.5718859,72.15549991,1298.680078
11.0800,-110.4611572,72.28754259,1296.595056
11.0850,-110.341136,72.42091826,1294.497687
11.0900,-110.2119305,72.55465045,1292.38875
11.0950,-110.07362,72.68934002,1290.267002
11.1000,-109.926092,72.82527257,1288.133268
11.1050,-109.7677781,72.96301352,1285.986919
11.1100,-109.5980093,73.10086875,1283.828387
11.1150,-109.415543,73.24081618,1281.658864
11.1200,-109.2200306,73.37945361,1279.478553
11.1250,-109.0109318,73.51575752,1277.287485
11.1300,-108.7872914,73.65039782,1275.08572
11.1350,-108.5483498,73.78349484,1272.875101
11.1400,-108.291657,73.91423838,1270.655474
11.1450,-108.0160949,74.04367381,1268.426374
11.1500,-107.7208581,74.17058411,1266.189705
11.1550,-107.403244,74.29537253,1263.945448
11.1600,-107.0632044,74.41675442,1261.694899
11.1650,-106.6997352,74.53385782,1259.438942
11.1700,-106.3116957,74.64628627,1257.177327
11.1750,-105.897949,74.75206655,1254.912279
11.1800,-105.4598928,74.84990484,1252.643737
11.1850,-104.9961982,74.94043449,1250.371677
11.1900,-104.5072309,75.02330309,1248.097827
11.1950,-103.9931294,75.09765294,1245.822135
11.2000,-103.4536125,75.16254836,1243.546061
11.2050,-102.8898588,75.21771051,1241.269342
11.2100,-102.3017988,75.26213862,1238.993094
11.2150,-101.6897961,75.29421979,1236.716933
11.2200,-101.0561355,75.31296407,1234.442989
11.2250,-100.4009889,75.31825146,1232.172188
11.2300,-99.72565772,75.30872875,1229.904562
11.2350,-99.03115074,75.28324095,1227.641292
11.2400,-98.31904837,75.24166685,1225.383117
11.2450,-97.59038233,75.18522543,1223.131662
11.2500,-96.84701692,75.11274596,1220.887408
11.2550,-96.09034318,75.02309225,1218.651628
11.2600,-95.32063667,74.91830366,1216.425403
11.2650,-94.53904942,74.79818775,1214.208813
11.2700,-93.74717821,74.66392416,1212.003483
11.2750,-92.94537157,74.51497897,1209.810009
11.2800,-92.13518297,74.35145112,1207.629349
11.2850,-91.31705438,74.1734614,1205.461288
11.2900,-90.49016125,73.98241097,1203.306289
11.2950,-89.65540408,73.77755473,1201.164911
11.3000,-88.81280938,73.55942001,1199.03684
11.3050,-87.96236915,73.32889473,1196.923335
11.3100,-87.1043415,73.08675808,1194.824838
11.3150,-86.23951094,72.83207405,1192.74152
11.3200,-85.36982956,72.56447632,1190.675512
11.3250,-84.49607957,72.28571556,1188.62774
11.3300,-83.62048598,71.99462075,1186.597632
11.3350,-82.74339723,71.69116421,1184.585088
11.3400,-81.86575277,71.37523517,1182.590775
11.3450,-80.9874975,71.04911586,1180.614921
11.3500,-80.10878626,70.71311011,1178.656576
11.3550,-79.22989821,70.36891994,1176.715839
11.3600,-78.35032117,70.01672467,1174.793542
11.3650,-77.46898654,69.65859072,1172.88925
11.3700,-76.58765642,69.29395794,1171.003958
11.3750,-75.70632896,68.92428996,1169.136786
11.3800,-74.82527563,68.55018473,1167.287394
11.3850,-73.94575102,68.17185503,1165.457145
11.3900,-73.06689911,67.7909453,1163.64603
11.3950,-72.18986839,67.40644864,1161.854777
11.4000,-71.3146485,67.02033308,1160.084429
11.4050,-70.4425742,66.6321661,1158.334553
11.4100,-69.57356191,66.24354386,1156.604862
11.4150,-68.70764646,65.85428072,1154.895076
11.4200,-67.84451537,65.46613884,1153.204951
11.4250,-66.98484468,65.08098962,1151.534523
11.4300,-66.12630055,64.69872968,1149.882819
11.4350,-65.26864992,64.32049129,1148.248882
11.4400,-64.41280336,63.94711843,1146.633357
11.4450,-63.55761444,63.57939996,1145.036378
11.4500,-62.70184801,63.21833747,1143.456676
11.4550,-61.84752351,62.86452996,1141.894636
11.4600,-60.99370647,62.51720617,1140.349533
11.4650,-60.14104878,62.17719537,1138.820878
11.4700,-59.29115292,61.84459413,1137.309139
11.4750,-58.4443086,61.5202675,1135.813235
11.4800,-57.60107503,61.20416823,1134.334078
11.4850,-56.76161542,60.89626819,1132.871793
11.4900,-55.92587786,60.59651683,1131.425353
11.4950,-55.09631254,60.30598216,1129.995991
11.5000,-54.27162941,60.02398103,1128.581873
11.5050,-53.4527297,59.75109589,1127.182816
11.5100,-52.64034954,59.48730433,1125.797434
11.5150,-51.83486667,59.23323289,1124.424687
11.5200,-51.035541,58.98793106,1123.063713
11.5250,-50.24207224,58.75246588,1121.713433
11.5300,-49.45529237,58.52782433,1120.374922
11.5350,-48.67538585,58.31404299,1119.04739
11.5400,-47.903251,58.11092032,1117.730518
11.5450,-47.14020299,57.91828896,1116.424
11.5500,-46.38638585,57.73728644,1115.127815
11.5550,-45.64344944,57.56774584,1113.84133
11.5600,-44.91105157,57.40944816,1112.563722
11.5650,-44.19031579,57.2637464,1111.295476
11.5700,-43.48055029,57.13041793,1110.036606
11.5750,-42.78146532,57.01027398,1108.785976
11.5800,-42.09285247,56.90391014,1107.543658
11.5850,-41.41562877,56.81099794,1106.309225
11.5900,-40.7499971,56.73124676,1105.082346
11.5950,-40.09542403,56.66443886,1103.862133
11.6000,-39.45138377,56.61145679,1102.649105
11.6050,-38.81856135,56.57000573,1101.442059
11.6100,-38.19597605,56.54100292,1100.241163
11.6150,-37.58353192,56.52302011,1099.046341
11.6200,-36.98048872,56.51534741,1097.85724
11.6250,-36.38552403,56.51783081,1096.673695
11.6300,-35.79794522,56.52929827,1095.496078
11.6350,-35.21678328,56.54985823,1094.324502
11.6400,-34.63965449,56.57915226,1093.158727
11.6450,-34.06605101,56.61586301,1091.999198
11.6500,-33.49452655,56.6582954,1090.846319
11.6550,-32.92285714,56.70482753,1089.700463
11.6600,-32.35125013,56.75410495,1088.562218
11.6650,-31.77828026,56.80483499,1087.431735
11.6700,-31.20354739,56.85456041,1086.310007
11.6750,-30.62485471,56.9017735,1085.197311
11.6800,-30.04238488,56.94552584,1084.094994
11.6850,-29.45570157,56.98395053,1083.003311
11.6900,-28.86432952,57.01611226,1081.922869
11.6950,-28.26768395,57.04148523,1080.854118
11.7000,-27.66563403,57.05869774,1079.796968
11.7050,-27.05682353,57.06847221,1078.751969
11.7100,-26.44172858,57.06898561,1077.718929
11.7150,-25.82013085,57.05991819,1076.697648
11.7200,-25.19142407,57.04007642,1075.687579
11.7250,-24.55594336,57.00753801,1074.688624
11.7300,-23.9143875,56.96190452,1073.700806
11.7350,-23.26772496,56.90159306,1072.723933
11.7400,-22.61494138,56.82744604,1071.75712
11.7450,-21.9569524,56.73713111,1070.79982
11.7500,-21.2952624,56.63080903,1069.852243
11.7550,-20.63142113,56.50829952,1068.914337
11.7600,-19.96665984,56.37102957,1067.986493
11.7650,-19.30216044,56.21897121,1067.068562
11.7700,-18.63683197,56.05290742,1066.159793
11.7750,-17.97183459,55.87434667,1065.260523
11.7800,-17.30680389,55.68415244,1064.369761
11.7850,-16.64360628,55.48321507,1063.487144
11.7900,-15.98088672,55.27167994,1062.611414
11.7950,-15.31767684,55.04899385,1061.741552
11.8000,-14.65555923,54.81612035,1060.877899
11.8050,-13.9937955,54.57304515,1060.020107
11.8100,-13.33207854,54.31965687,1059.168088
11.8150,-12.67022849,54.05615389,1058.322135
11.8200,-12.008288,53.78384643,1057.482119
11.8250,-11.34724701,53.50293714,1056.648372
11.8300,-10.68634021,53.21369436,1055.820255
11.8350,-10.02525292,52.9172513,1054.997924
11.8400,-9.362216335,52.61588258,1054.181282
11.8450,-8.696149527,52.30788069,1053.369965
11.8500,-8.02650735,51.99473054,1052.563885
11.8550,-7.351924286,51.67826814,1051.763519
11.8600,-6.672218458,51.3582066,1050.969155
11.8650,-5.986238572,51.0346664,1050.1807
11.8700,-5.293814498,50.70796872,1049.397558
11.8750,-4.594814021,50.37730743,1048.619891
11.8800,-3.890215204,50.04336145,1047.84876
11.8850,-3.179053494,49.70634487,1047.083906
11.8900,-2.462571069,49.36545613,1046.326009
11.8950,-1.74120093,49.02140343,1045.575852
11.9000,-1.016498789,48.67358096,1044.834056
11.9050,-0.2891359508,48.3229451,1044.101474
11.9100,0.4393198581,47.96807781,1043.378556
11.9150,1.1706286,47.60962958,1042.665069
11.9200,1.903460587,47.2465981,1041.961255
11.9250,2.636369918,46.87896173,1041.267596
11.9300,3.370105306,46.50769641,1040.584049
11.9350,4.103868559,46.13155948,1039.910572
11.9400,4.836039336,45.74901813,1039.247543
11.9450,5.567932919,45.36067731,1038.594481
11.9500,6.298966541,44.96735815,1037.951583
11.9550,7.030042521,44.5691301,1037.318484
11.9600,7.760641992,44.16633034,1036.695012
11.9650,8.489975764,43.75856638,1036.081198
11.9700,9.218067049,43.34616518,1035.476563
11.9750,9.943259011,42.92889912,1034.881442
11.9800,10.66497639,42.50689548,1034.295689
11.9850,11.38299048,42.0809064,1033.718949
11.9900,12.09716255,41.65074989,1033.151147
11.9950,12.80725524,41.21564294,1032.591911
12.0000,13.51287121,40.77554633,1032.040908
12.0050,14.21390011,40.33001644,1031.497853
12.0100,14.91026277,39.8796443,1030.962684
12.0150,15.60248744,39.42290642,1030.434658
12.0200,16.28822932,38.96133904,1029.914721
12.0250,16.96949492,38.49580141,1029.402018
12.0300,17.64496214,38.02538902,1028.896571
12.0350,18.31687752,37.55184186,1028.397719
12.0400,18.98424138,37.07444166,1027.905544
12.0450,19.64612911,36.59514291,1027.420383
12.0500,20.30499189,36.11299607,1026.940893
12.0550,20.96149507,35.62860218,1026.466824
12.0600,21.61626683,35.14277657,1025.998003
12.0650,22.27041276,34.65543936,1025.533579
12.0700,22.92220693,34.16710451,1025.074153
12.0750,23.57332844,33.67742981,1024.618795
12.0800,24.22300652,33.18592824,1024.16764
12.0850,24.87337421,32.69364834,1023.720178
12.0900,25.52167898,32.20106524,1023.277377
12.0950,26.168685,31.70883249,1022.838873
12.1000,26.81466248,31.21710864,1022.404581
12.1050,27.45900258,30.72636303,1021.974526
12.1100,28.10050966,30.23844041,1021.549416
12.1150,28.73915496,29.75359652,1021.129034
12.1200,29.37557933,29.27192811,1020.713216
12.1250,30.0106317,28.79409205,1020.30191
12.1300,30.64349433,28.32043988,1019.895365
12.1350,31.27491635,27.85148233,1019.493432
12.1400,31.90450429,27.3857847,1019.095918
12.1450,32.53237905,26.92581182,1018.702925
12.1500,33.15987907,26.4713934,1018.313961
12.1550,33.78785324,26.02219999,1017.928687
12.1600,34.41605721,25.57784969,1017.54709
12.1650,35.04596171,25.13923418,1017.168459
12.1700,35.67741392,24.70633927,1016.793008
12.1750,36.31017288,24.27844346,1016.420552
12.1800,36.94625836,23.85657402,1016.0504
12.1850,37.58610997,23.43977545,1015.682091
12.1900,38.22913021,23.02925884,1015.315949
12.1950,38.87568568,22.62436863,1014.9514
12.2000,39.52642896,22.22427581,1014.588139
12.2050,40.18352698,21.82848526,1014.225223
12.2100,40.84680584,21.43831259,1013.862833
12.2150,41.51552169,21.05303958,1013.50094
12.2200,42.19049583,20.67290504,1013.139314
12.2250,42.87168657,20.29758102,1012.778038
12.2300,43.55815648,19.92552771,1012.41721
12.2350,44.2509061,19.55636034,1012.056672
12.2400,44.95029127,19.19186184,1011.696597
12.2450,45.65531351,18.83103145,1011.337386
12.2500,46.36604593,18.47344637,1010.979313
12.2550,47.08066733,18.11845914,1010.622927
12.2600,47.80006297,17.76610735,1010.268256
12.2650,48.52278677,17.41498319,1009.915902
12.2700,49.24911629,17.06571492,1009.566263
12.2750,49.98121399,16.7188352,1009.218985
12.2800,50.71789927,16.3742285,1008.874478
12.2850,51.45939085,16.03148335,1008.532853
12.2900,52.20496149,15.69140429,1008.194365
12.2950,52.95455569,15.35329624,1007.858887
12.3000,53.70664211,15.01704072,1007.527064
12.3050,54.46022171,14.68230957,1007.199013
12.3100,55.2145795,14.34903699,1006.874768
12.3150,55.96722628,14.01750497,1006.555053
12.3200,56.71893265,13.68753547,1006.239376
12.3250,57.46667561,13.35826772,1005.928422
12.3300,58.21197421,13.03175745,1005.621861
12.3350,58.95248484,12.70483538,1005.319838
12.3400,59.68715868,12.37844642,1005.022621
12.3450,60.41613476,12.05219283,1004.730028
12.3500,61.13609115,11.72541385,1004.442804
12.3550,61.84706383,11.39893499,1004.160887
12.3600,62.54773675,11.07026657,1003.884213
12.3650,63.23619102,10.74040116,1003.613535
12.3700,63.91277848,10.40836438,1003.348446
12.3750,64.57569403,10.07383483,1003.089365
12.3800,65.22495333,9.737227067,1002.83634
12.3850,65.85880809,9.396478045,1002.589742
12.3900,66.47906184,9.053007028,1002.349067
12.3950,67.08494079,8.705144951,1002.11452
12.4000,67.67524114,8.353204561,1001.886217
12.4050,68.25099276,7.996268877,1001.663939
12.4100,68.81263477,7.633679915,1001.447375
12.4150,69.35890081,7.26544263,1001.236956
12.4200,69.89018117,6.891309522,1001.032431
12.4250,70.40550395,6.510069534,1000.833767
12.4300,70.90423513,6.122242012,1000.640953
12.4350,71.38614724,5.727427591,1000.453859
12.4400,71.85078633,5.325984213,1000.272449
12.4450,72.29849191,4.917581109,1000.096481
12.4500,72.72900507,4.502630259,999.9258365
12.4550,73.14129632,4.080618298,999.7605456
12.4600,73.53717762,3.653435147,999.6001083
12.4650,73.91576777,3.220806009,999.4445519
12.4700,74.27825789,2.784240106,999.293513
12.4750,74.62547087,2.344623231,999.1467437
12.4800,74.95719051,1.901671396,999.0040819
12.4850,75.27353955,1.456482602,998.8655267
12.4900,75.57628411,1.008247513,998.7303978
12.4950,75.865776,0.5584110873,998.5986086
12.5000,76.14286803,0.1067917691,998.4698114
12.5050,76.40684424,-0.3445029753,998.3444212
12.5100,76.66022812,-0.7960462835,998.2216589
12.5150,76.9029691,-1.246264752,998.1017084
12.5200,77.1374541,-1.693365626,997.984061
12.5250,77.36507473,-2.135989586,997.8685584
12.5300,77.58660843,-2.573797883,997.7550608
12.5350,77.80288744,-3.005321065,997.64343
12.5400,78.01563675,-3.429094487,997.5333539
12.5450,78.22497502,-3.84466819,997.4249087
12.5500,78.43262267,-4.250480828,997.3176548
12.5550,78.63963763,-4.645172758,997.2115271
12.5600,78.84682814,-5.028661182,997.1062833
12.5650,79.05628809,-5.397538453,997.0017241
12.5700,79.26840593,-5.752198571,996.8976436
12.5750,79.48112605,-6.090391094,996.7947574
12.5800,79.69524926,-6.413246438,996.6928263
12.5850,79.91118916,-6.720094932,996.5916431
12.5900,80.12870165,-7.009418478,996.4915242
12.5950,80.34885682,-7.279417788,996.3923575
12.6000,80.57170557,-7.529831494,996.2940711
12.6050,80.79805333,-7.758581058,996.1967377
12.6100,81.02725082,-7.964815831,996.1005777
12.6150,81.26030771,-8.148099784,996.0053022
12.6200,81.49633043,-8.306542776,995.91147
12.6250,81.7362237,-8.440264655,995.81876
12.6300,81.97815926,-8.549797478,995.7276303
12.6350,82.22087851,-8.632637106,995.6386135
12.6400,82.46513257,-8.690245933,995.5514981
12.6450,82.7095369,-8.722189375,995.4665278
12.6500,82.95429219,-8.726265429,995.3839771
12.6550,83.19804223,-8.706442575,995.3038813
12.6600,83.44059381,-8.660021004,995.2265841
12.6650,83.68187363,-8.590169469,995.1518034
12.6700,83.92147362,-8.497218172,995.07975
12.6750,84.15869407,-8.3820538,995.0106291
12.6800,84.39325349,-8.246872216,994.9444363
12.6850,84.62453253,-8.091798662,994.8813005
12.6900,84.85063432,-7.920842325,994.8215726
12.6950,85.07014168,-7.73551564,994.7653905
12.7000,85.28468093,-7.538066316,994.7124382
12.7050,85.49290788,-7.329907261,994.6628394
12.7100,85.69396489,-7.113567604,994.6167178
12.7150,85.89012498,-6.891716197,994.5733781
12.7200,86.07904124,-6.666282592,994.5331464
12.7250,86.2617509,-6.439804906,994.4956393
12.7300,86.43817015,-6.213094764,994.4608289
12.7350,86.60718373,-5.987832237,994.4288063
12.7400,86.7683796,-5.765472277,994.3995383
12.7450,86.92055974,-5.547218082,994.3730907
12.7500,87.06355633,-5.335216932,994.3492513
12.7550,87.19667101,-5.129326488,994.3281186
12.7600,87.31863776,-4.932989699,994.3096626
12.7650,87.42855896,-4.746523929,994.2939557
12.7700,87.52594189,-4.571246474,994.2809505
12.7750,87.60899466,-4.408076229,994.2708874
12.7800,87.6774659,-4.257505758,994.2637587
12.7850,87.72966335,-4.120157939,994.259798
12.7900,87.76544773,-3.995285342,994.2590609
12.7950,87.78400299,-3.885163367,994.2615805
12.8000,87.78578211,-3.788310355,994.2673751
12.8050,87.77043088,-3.706893583,994.2763067
12.8100,87.73733716,-3.640540408,994.2886982
12.8150,87.68561233,-3.590311955,994.3046391
12.8200,87.61349767,-3.556435364,994.3246659
12.8250,87.52078072,-3.540839061,994.3486918
12.8300,87.40962615,-3.540947534,994.3765278
12.8350,87.27947442,-3.557768633,994.4083602
12.8400,87.12980173,-3.592327734,994.4444015
12.8450,86.96288142,-3.64426444,994.4841161
12.8500,86.77913552,-3.713649999,994.5275704
12.8550,86.5793375,-3.799138376,994.5747331
12.8600,86.36492546,-3.899339854,994.6255453
12.8650,86.13621019,-4.014342609,994.6798303
12.8700,85.89449057,-4.142807063,994.7374798
12.8750,85.6426726,-4.284278735,994.7978307
12.8800,85.38122142,-4.435312916,994.8610015
12.8850,85.11277366,-4.593517807,994.9266662
12.8900,84.8389114,-4.759033609,994.9943849
12.8950,84.56052345,-4.929030079,995.0640619
12.9000,84.28056228,-5.100983476,995.1352145
12.9050,83.99891274,-5.274952121,995.2077646
12.9100,83.71730405,-5.447822991,995.2816004
12.9150,83.43661334,-5.617856719,995.3565569
12.9200,83.15845526,-5.784486835,995.4322654
12.9250,82.88349727,-5.944258535,995.5088063
12.9300,82.61133086,-6.095459833,995.5864236
12.9350,82.34352372,-6.237678429,995.6645998
12.9400,82.07862454,-6.368803153,995.7438568
12.9450,81.81753282,-6.488146275,995.8241935
12.9500,81.55994216,-6.595779085,995.9055299
12.9550,81.30532941,-6.689109738,995.9882323
12.9600,81.05365142,-6.769295969,996.0722031
12.9650,80.80237775,-6.835353534,996.1582548
12.9700,80.55090433,-6.886099451,996.2464984
12.9750,80.29817559,-6.922726574,996.3371972
12.9800,80.0423043,-6.94482259,996.4307971
12.9850,79.78323141,-6.952558094,996.5272827
12.9900,79.51713525,-6.946242983,996.6276278
12.9950,79.24637017,-6.924469605,996.7314282
13.0000,78.96708199,-6.88786746,996.8396143
13.0050,78.6788198,-6.836885159,996.9523838
13.0100,78.37874442,-6.772381406,997.0704174
13.0150,78.06550392,-6.69451518,997.1940648
13.0200,77.73740151,-6.603116623,997.3240373
13.0250,77.39331782,-6.497970256,997.4606614
13.0300,77.03283515,-6.381084575,997.6041411
13.0350,76.65492235,-6.253181239,997.7549099
13.0400,76.25940466,-6.112622193,997.9133212
13.0450,75.84560005,-5.961079324,998.0796447
13.0500,75.41307325,-5.798187359,998.2542543
13.0550,74.96189605,-5.625312899,998.4372497
13.0600,74.490515,-5.442166098,998.6291524
13.0650,74.00005214,-5.250050045,998.8299362
13.0700,73.4889377,-5.049196365,999.0402318
13.0750,72.95858222,-4.839590919,999.2598676
13.0800,72.40849981,-4.622807841,999.4889986
13.0850,71.83886843,-4.398287894,999.7280413
13.0900,71.24897892,-4.168235283,999.9771483
13.0950,70.63910675,-3.931714613,1000.236552
13.1000,70.00901316,-3.691097781,1000.506389
13.1050,69.35867372,-3.444613914,1000.787031
13.1100,68.68679289,-3.194012482,1001.078691
13.1150,67.99446705,-2.938763323,1001.381569
13.1200,67.2821093,-2.679928969,1001.695539
13.1250,66.55037377,-2.41630946,1002.020729
13.1300,65.79659519,-2.14972768,1002.357912
13.1350,65.02169842,-1.879304936,1002.706936
13.1400,64.22654241,-1.604630895,1003.067643
13.1450,63.41103757,-1.324032358,1003.440603
13.1500,62.57510894,-1.037832786,1003.825875
13.1550,61.71896572,-0.7458675136,1004.22338
13.1600,60.84208324,-0.4492348853,1004.633292
13.1650,59.94523127,-0.14699112,1005.055672
13.1700,59.0277885,0.1615557904,1005.490754
13.1750,58.08969751,0.4763757944,1005.93865
13.1800,57.13329541,0.7981614131,1006.398969
13.1850,56.15696803,1.126128132,1006.872183
13.1900,55.16075659,1.461068797,1007.358355
13.1950,54.14598991,1.803084392,1007.857495
13.2000,53.11196084,2.152278821,1008.369912
13.2050,52.06060713,2.508744813,1008.895212
13.2100,50.992112,2.871491198,1009.433312
13.2150,49.90781099,3.242427279,1009.984346
13.2200,48.80729375,3.621671123,1010.54841
13.2250,47.69156412,4.007398166,1011.12531
13.2300,46.56073143,4.399253185,1011.7151
13.2350,45.41519159,4.797602687,1012.318206
13.2400,44.25555617,5.202426911,1012.934387
13.2450,43.08171947,5.613958095,1013.563762
13.2500,41.89487324,6.033352961,1014.206419
13.2550,40.69623267,6.459614422,1014.862215
13.2600,39.48485366,6.892830939,1015.531606
13.2650,38.26394287,7.333996855,1016.214001
13.2700,37.03259989,7.781112812,1016.909955
13.2750,35.79187465,8.234132385,1017.619159
13.2800,34.54229326,8.693223049,1018.341866
13.2850,33.28338553,9.155817554,1019.078245
13.2900,32.01734637,9.621923443,1019.82809
13.2950,30.74223949,10.08940483,1020.592157
13.3000,29.46126131,10.55891091,1021.369885
13.3050,28.17330173,11.02881438,1022.161628
13.3100,26.87992017,11.50006141,1022.967312
13.3150,25.58313411,11.97278053,1023.787148
13.3200,24.2845774,12.44422578,1024.620138
13.3250,22.98275441,12.91549082,1025.467403
13.3300,21.67858468,13.38625446,1026.328788
13.3350,20.37303245,13.85593111,1027.20382
13.3400,19.06700673,14.32435947,1028.092443
13.3450,17.76198245,14.79047485,1028.994341
13.3500,16.45670511,15.25588626,1029.910642
13.3550,15.15188078,15.71973291,1030.840796
13.3600,13.84803323,16.18300261,1031.785059
13.3650,12.54475228,16.64541752,1032.743282
13.3700,11.24298289,17.10603704,1033.714674
13.3750,9.941766133,17.56608184,1034.699794
13.3800,8.641790787,18.02481809,1035.698269
13.3850,7.343623587,18.4829096,1036.709753
13.3900,6.049212258,18.94129658,1037.733561
13.3950,4.758569442,19.39987279,1038.769869
13.4000,3.470550579,19.85988913,1039.81858
13.4050,2.185378756,20.31946703,1040.879685
13.4100,0.9047000239,20.78101275,1041.952589
13.4150,-0.3718377745,21.24503681,1043.037356
13.4200,-1.643113359,21.71212437,1044.133841
13.4250,-2.908898892,22.18188235,1045.241833
13.4300,-4.168712775,22.65458871,1046.361177
13.4350,-5.422676639,23.13042441,1047.492132
13.4400,-6.670914684,23.60944882,1048.634775
13.4450,-7.913547203,24.09190818,1049.788979
13.4500,-9.151008431,24.57914212,1050.955338
13.4550,-10.38335501,25.07023541,1052.133927
13.4600,-11.61027598,25.56591404,1053.324509
13.4650,-12.83224778,26.06646867,1054.527734
13.4700,-14.04861014,26.57300885,1055.743284
13.4750,-15.26104874,27.08513441,1056.971745
13.4800,-16.47071711,27.60231463,1058.213201
13.4850,-17.67653299,28.12453975,1059.46741
13.4900,-18.87872888,28.65192067,1060.733956
13.4950,-20.07956573,29.18357246,1062.013678
13.5000,-21.27789016,29.71930589,1063.305562
13.5050,-22.47536167,30.25909003,1064.610082
13.5100,-23.67157034,30.80288581,1065.927191
13.5150,-24.86777882,31.3498345,1067.256838
13.5200,-26.06212031,31.89937842,1068.598269
13.5250,-27.25693878,32.44998396,1069.951984
13.5300,-28.45019492,33.0035633,1071.317735
13.5350,-29.64292847,33.55880318,1072.695403
13.5400,-30.83371245,34.11457172,1074.084139
13.5450,-32.02240411,34.67109913,1075.484468
13.5500,-33.20917474,35.22673936,1076.896157
13.5550,-34.39375309,35.7817922,1078.31926
13.5600,-35.57510068,36.33618182,1079.753432
13.5650,-36.75552724,36.88953955,1081.199329
13.5700,-37.93262736,37.44128986,1082.655544
13.5750,-39.10707329,37.99215303,1084.122853
13.5800,-40.27837074,38.5405502,1085.600226
13.5850,-41.44632219,39.08773429,1087.087974
13.5900,-42.60960134,39.63398759,1088.585279
13.5950,-43.76786198,40.18054589,1090.09197
13.6000,-44.92236008,40.72506344,1091.608156
13.6050,-46.07108152,41.26943073,1093.133384
13.6100,-47.21463174,41.81169208,1094.667611
13.6150,-48.353003,42.35194659,1096.209885
13.6200,-49.48641286,42.8919723,1097.761475
13.6250,-50.61360678,43.43094784,1099.320787
13.6300,-51.73398707,43.96931902,1100.887435
13.6350,-52.84692744,44.50830657,1102.461999
13.6400,-53.95192935,45.04509668,1104.043633
13.6450,-55.04942746,45.5815132,1105.632635
13.6500,-56.13871517,46.11549412,1107.228437
13.6550,-57.21792724,46.64744761,1108.830573
13.6600,-58.28814103,47.17657303,1110.438942
13.6650,-59.34812111,47.70203439,1112.053414
13.6700,-60.39669724,48.22467162,1113.674182
13.6750,-61.43303648,48.74359109,1115.300722
13.6800,-62.45612363,49.25888824,1116.932388
13.6850,-63.46634663,49.77035695,1118.568773
13.6900,-64.46451125,50.27851119,1120.210699
