type,name,time_units,begin_time,frequency,count,units
signal_3d,"Noraxon MyoMotion-Trajectories-Lateral humeral epicondyle RT","s",0.0000,200,5008,"mm"

time,x,y,z
0.0000,195.4688127,-19.59305643,1237.903447
0.0050,195.4840449,-19.59860932,1237.901336
0.0100,195.4992766,-19.60416352,1237.899226
0.0150,195.514508,-19.60971903,1237.897117
0.0200,195.5306761,-19.61570632,1237.894861
0.0250,195.5476403,-19.62207718,1237.892477
0.0300,195.5652414,-19.62878374,1237.889984
0.0350,195.5833089,-19.63578798,1237.887401
0.0400,195.6016709,-19.64306468,1237.884748
0.0450,195.6201626,-19.65059746,1237.882044
0.0500,195.6386296,-19.6583727,1237.879304
0.0550,195.6569258,-19.66637737,1237.876548
0.0600,195.6749118,-19.67459696,1237.873795
0.0650,195.6924548,-19.68300832,1237.871065
0.0700,195.7094344,-19.69157252,1237.868381
0.0750,195.7257474,-19.70023507,1237.865761
0.0800,195.7413092,-19.70893115,1237.863225
0.0850,195.7560491,-19.7175916,1237.860788
0.0900,195.7699082,-19.72615008,1237.858462
0.0950,195.7828414,-19.73455028,1237.856255
0.1000,195.7948155,-19.7427499,1237.854173
0.1050,195.8058058,-19.75072041,1237.852219
0.1100,195.8157954,-19.75844443,1237.850395
0.1150,195.8247767,-19.7659145,1237.848698
0.1200,195.832749,-19.77313102,1237.847127
0.1250,195.8397113,-19.78009591,1237.845681
0.1300,195.8456612,-19.78680618,1237.84436
0.1350,195.8505958,-19.79325205,1237.843169
0.1400,195.8545126,-19.79941645,1237.842112
0.1450,195.8574175,-19.80527294,1237.841198
0.1500,195.8593383,-19.81078388,1237.840435
0.1550,195.8732349,-19.81299017,1237.838224
0.1600,195.8862303,-19.81467863,1237.836081
0.1650,195.8984801,-19.81579643,1237.834117
0.1700,195.9100717,-19.81569576,1237.832258
0.1750,195.9220561,-19.81269568,1237.830592
0.1800,195.9332564,-19.80834386,1237.829154
0.1850,195.9438379,-19.8020586,1237.828019
0.1900,195.9541042,-19.79470994,1237.826971
0.1950,195.9641179,-19.78627744,1237.826037
0.2000,195.9745137,-19.77668808,1237.825123
0.2050,195.9853424,-19.76594351,1237.824288
0.2100,195.9955299,-19.75415284,1237.823587
0.2150,196.0061545,-19.74124572,1237.822926
0.2200,196.0162285,-19.72696249,1237.822495
0.2250,196.0276086,-19.71159319,1237.821906
0.2300,196.0392626,-19.69489846,1237.8214
0.2350,196.0511312,-19.6774699,1237.820926
0.2400,196.0625124,-19.65895791,1237.820518
0.2450,196.073915,-19.63993079,1237.820099
0.2500,196.0856904,-19.61948529,1237.819633
0.2550,196.0981372,-19.59922343,1237.818933
0.2600,196.1093355,-19.57836853,1237.818315
0.2650,196.1205397,-19.55747805,1237.817641
0.2700,196.1322638,-19.53654647,1237.816638
0.2750,196.1438805,-19.51623037,1237.815472
0.2800,196.1552913,-19.49512376,1237.814234
0.2850,196.1670944,-19.4742074,1237.812647
0.2900,196.1786041,-19.45311637,1237.810956
0.2950,196.1883847,-19.43311836,1237.809336
0.3000,196.1978666,-19.41266162,1237.807547
0.3050,196.2064932,-19.39334809,1237.805684
0.3100,196.2146695,-19.37469813,1237.803694
0.3150,196.2217828,-19.35636619,1237.801677
0.3200,196.2288845,-19.33835694,1237.799468
0.3250,196.2368524,-19.32114446,1237.796967
0.3300,196.2451825,-19.30481876,1237.794194
0.3350,196.2522879,-19.28862448,1237.791536
0.3400,196.2589367,-19.27352651,1237.788757
0.3450,196.2641214,-19.25909219,1237.786076
0.3500,196.2694353,-19.24607601,1237.78325
0.3550,196.2743247,-19.23340431,1237.780375
0.3600,196.2783842,-19.2220366,1237.777605
0.3650,196.2823853,-19.21135012,1237.774789
0.3700,196.2856255,-19.20125079,1237.772091
0.3750,196.2874389,-19.19208123,1237.769573
0.3800,196.2880032,-19.18378534,1237.767285
0.3850,196.2877987,-19.17616018,1237.765148
0.3900,196.2870762,-19.16853319,1237.763263
0.3950,196.2854862,-19.16237678,1237.761581
0.4000,196.2832018,-19.15555255,1237.760249
0.4050,196.280335,-19.14949407,1237.759162
0.4100,196.2772582,-19.14357596,1237.758283
0.4150,196.2736535,-19.13676475,1237.75781
0.4200,196.2701743,-19.12999089,1237.757544
0.4250,196.2652862,-19.12292709,1237.757758
0.4300,196.2604769,-19.11642412,1237.758175
0.4350,196.2554904,-19.10898463,1237.75899
0.4400,196.2494542,-19.10174923,1237.760236
0.4450,196.2428925,-19.09417143,1237.761815
0.4500,196.236688,-19.08565547,1237.763656
0.4550,196.2305216,-19.07777462,1237.765723
0.4600,196.2243346,-19.06955069,1237.767993
0.4650,196.2168313,-19.06123282,1237.770623
0.4700,196.2100841,-19.05311965,1237.773247
0.4750,196.2026954,-19.04590949,1237.77593
0.4800,196.1957332,-19.03907274,1237.778632
0.4850,196.1889313,-19.03221824,1237.781238
0.4900,196.18279,-19.02434744,1237.783739
0.4950,196.1773268,-19.0175246,1237.785938
0.5000,196.1729093,-19.0096898,1237.787871
0.5050,196.1704672,-19.00221513,1237.789153
0.5100,196.1708445,-18.99455358,1237.78972
0.5150,196.1732976,-18.98724256,1237.789584
0.5200,196.1780997,-18.98015077,1237.788641
0.5250,196.1846648,-18.97282837,1237.787002
0.5300,196.1944325,-18.96603615,1237.784318
0.5350,196.2075846,-18.95911263,1237.780538
0.5400,196.2246376,-18.9524924,1237.775474
0.5450,196.245795,-18.94556492,1237.76914
0.5500,196.2700544,-18.9389756,1237.761603
0.5550,196.2978005,-18.93206128,1237.752743
0.5600,196.3297337,-18.92544318,1237.742482
0.5650,196.3657007,-18.91855502,1237.730747
0.5700,196.4058168,-18.91146762,1237.71745
0.5750,196.4485095,-18.90391857,1237.702951
0.5800,196.4941695,-18.89592011,1237.687125
0.5850,196.5427444,-18.88809063,1237.669967
0.5900,196.5934198,-18.88105593,1237.651623
0.5950,196.6469157,-18.87241656,1237.632089
0.6000,196.702351,-18.86377348,1237.611473
0.6050,196.75951,-18.85533228,1237.589824
0.6100,196.8184608,-18.84669283,1237.567156
0.6150,196.8789226,-18.83849833,1237.543575
0.6200,196.9395124,-18.83104236,1237.519339
0.6250,196.9998929,-18.82399648,1237.494525
0.6300,197.060158,-18.81748228,1237.469218
0.6350,197.1203094,-18.81202638,1237.443366
0.6400,197.1796073,-18.80834297,1237.417082
0.6450,197.2380493,-18.80596179,1237.390517
0.6500,197.2941948,-18.80503136,1237.3638
0.6550,197.3481387,-18.80652668,1237.337007
0.6600,197.3987182,-18.80993071,1237.310437
0.6650,197.4453541,-18.8160459,1237.28419
0.6700,197.4885391,-18.82315996,1237.258441
0.6750,197.5283178,-18.83196595,1237.233203
0.6800,197.5627554,-18.84238085,1237.208888
0.6850,197.5919363,-18.85404159,1237.185648
0.6900,197.6159376,-18.8665353,1237.163491
0.6950,197.634491,-18.87904248,1237.142514
0.7000,197.6466199,-18.8918612,1237.122885
0.7050,197.6526344,-18.90413579,1237.104644
0.7100,197.6531051,-18.91603081,1237.087669
0.7150,197.6472815,-18.92699087,1237.072215
0.7200,197.6357242,-18.93721071,1237.05814
0.7250,197.6189724,-18.94599598,1237.045471
0.7300,197.5957541,-18.95245165,1237.034507
0.7350,197.5666099,-18.95854061,1237.024906
0.7400,197.5317065,-18.96284221,1237.016791
0.7450,197.4918151,-18.96689021,1237.009943
0.7500,197.4465899,-18.97150885,1237.004122
0.7550,197.3973034,-18.97581418,1236.999194
0.7600,197.3443516,-18.98062897,1236.994947
0.7650,197.2890221,-18.98611885,1236.991007
0.7700,197.2306817,-18.99274951,1236.987395
0.7750,197.1708192,-19.00125597,1236.98373
0.7800,197.1096237,-19.01145782,1236.979892
0.7850,197.0483728,-19.02500118,1236.975538
0.7900,196.9864367,-19.04229885,1236.970835
0.7950,196.924775,-19.06241399,1236.965663
0.8000,196.863332,-19.08608424,1236.959964
0.8050,196.8021852,-19.11239605,1236.953876
0.8100,196.7410821,-19.14241526,1236.947386
0.8150,196.6817666,-19.17499373,1236.940334
0.8200,196.6236357,-19.21025277,1236.932738
0.8250,196.5678266,-19.24797524,1236.924472
0.8300,196.5137253,-19.28821542,1236.915512
0.8350,196.4622947,-19.32998359,1236.905809
0.8400,196.4126753,-19.3733193,1236.895535
0.8450,196.3657037,-19.41866917,1236.884404
0.8500,196.3226655,-19.46639239,1236.872058
0.8550,196.282826,-19.5161811,1236.85868
0.8600,196.2465093,-19.56700486,1236.844216
0.8650,196.2142185,-19.62001046,1236.828447
0.8700,196.1850664,-19.67594257,1236.811511
0.8750,196.1609377,-19.73527357,1236.792896
0.8800,196.142099,-19.79819608,1236.772586
0.8850,196.1282651,-19.86394914,1236.750637
0.8900,196.1199474,-19.93268669,1236.726877
0.8950,196.1174905,-20.00643368,1236.701143
0.9000,196.1206962,-20.08434805,1236.673536
0.9050,196.1301699,-20.16537896,1236.643956
0.9100,196.146623,-20.25040791,1236.612338
0.9150,196.1695004,-20.33797174,1236.578911
0.9200,196.1988561,-20.42886708,1236.543575
0.9250,196.2344087,-20.5224646,1236.50652
0.9300,196.275752,-20.61897925,1236.46784
0.9350,196.3225714,-20.71724477,1236.427803
0.9400,196.3730685,-20.81656873,1236.386977
0.9450,196.427753,-20.91752134,1236.345166
0.9500,196.4854374,-21.01941183,1236.302811
0.9550,196.5450145,-21.12044316,1236.260318
0.9600,196.605492,-21.22093827,1236.217754
0.9650,196.6659664,-21.3206784,1236.175316
0.9700,196.7260775,-21.42032723,1236.132992
0.9750,196.7836159,-21.51841525,1236.091196
0.9800,196.8391067,-21.61455884,1236.049954
0.9850,196.8912874,-21.70956342,1236.009241
0.9900,196.9383546,-21.80286607,1235.969485
0.9950,196.980169,-21.89468693,1235.930727
1.0000,197.0174743,-21.98508952,1235.892831
1.0050,197.0486456,-22.07297811,1235.856175
1.0100,197.0731596,-22.15903392,1235.82087
1.0150,197.0919682,-22.24275589,1235.786703
1.0200,197.1039378,-22.32400023,1235.753984
1.0250,197.109315,-22.4029069,1235.722712
1.0300,197.1078798,-22.47867039,1235.692931
1.0350,197.1009796,-22.55032858,1235.664516
1.0400,197.0880678,-22.6181583,1235.637525
1.0450,197.0693074,-22.68195488,1235.61194
1.0500,197.0449996,-22.7414149,1235.587837
1.0550,197.0137776,-22.79711545,1235.565264
1.0600,196.9759184,-22.84836736,1235.544366
1.0650,196.9309383,-22.89526868,1235.525237
1.0700,196.8800313,-22.93872701,1235.507487
1.0750,196.8220312,-22.97846344,1235.491287
1.0800,196.7582354,-23.01605975,1235.476256
1.0850,196.6875858,-23.05033763,1235.462624
1.0900,196.6112963,-23.0819536,1235.449844
1.0950,196.529453,-23.11070442,1235.437938
1.1000,196.4424524,-23.13764593,1235.426707
1.1050,196.3519717,-23.16432901,1235.415626
1.1100,196.2595874,-23.19051911,1235.404353
1.1150,196.1660019,-23.21759302,1235.392583
1.1200,196.0726541,-23.24525045,1235.380019
1.1250,195.9809962,-23.27436392,1235.366238
1.1300,195.893123,-23.30511967,1235.350891
1.1350,195.8091732,-23.33789326,1235.333754
1.1400,195.7318953,-23.37444475,1235.314075
1.1450,195.6617154,-23.41479674,1235.291757
1.1500,195.599575,-23.45943562,1235.266554
1.1550,195.5458214,-23.5083848,1235.238198
1.1600,195.5029307,-23.56295082,1235.206136
1.1650,195.4703097,-23.62339243,1235.170338
1.1700,195.4494462,-23.69025425,1235.13042
1.1750,195.4396044,-23.76334425,1235.086455
1.1800,195.4418607,-23.8438194,1235.038081
1.1850,195.4572101,-23.93229974,1234.984934
1.1900,195.486987,-24.02834492,1234.926738
1.1950,195.5319274,-24.13260675,1234.863184
1.2000,195.5930972,-24.24507588,1234.793881
1.2050,195.6713231,-24.36677569,1234.718658
1.2100,195.7652463,-24.49789251,1234.637551
1.2150,195.8779596,-24.63937046,1234.549892
1.2200,196.0091702,-24.7899969,1234.455836
1.2250,196.1599627,-24.95078846,1234.355137
1.2300,196.3306962,-25.12176352,1234.247683
1.2350,196.5218666,-25.30280567,1234.133474
1.2400,196.7348323,-25.4931055,1234.012348
1.2450,196.9690061,-25.6935149,1233.884389
1.2500,197.2235742,-25.90279548,1233.749822
1.2550,197.4989191,-26.12145536,1233.608582
1.2600,197.7949999,-26.34744307,1233.461037
1.2650,198.1097189,-26.58033353,1233.307665
1.2700,198.4408494,-26.81923416,1233.148991
1.2750,198.7869829,-27.06299425,1232.98554
1.2800,199.1466772,-27.31130705,1232.817624
1.2850,199.5162824,-27.56174408,1232.646103
1.2900,199.8942073,-27.81501513,1232.471353
1.2950,200.2759857,-28.06864252,1232.294338
1.3000,200.658463,-28.32249662,1232.115688
1.3050,201.0393089,-28.57528493,1231.935932
1.3100,201.4159461,-28.82636009,1231.755627
1.3150,201.784951,-29.07422771,1231.575534
1.3200,202.1448883,-29.31805913,1231.395892
1.3250,202.4932691,-29.55737455,1231.21713
1.3300,202.8288164,-29.79212815,1231.039584
1.3350,203.1488017,-30.0215622,1230.863687
1.3400,203.4528049,-30.24479645,1230.689508
1.3450,203.7399761,-30.46106406,1230.517251
1.3500,204.0090862,-30.66976653,1230.347123
1.3550,204.2607375,-30.8711854,1230.178958
1.3600,204.4950614,-31.06425617,1230.012856
1.3650,204.7109097,-31.24958985,1229.848854
1.3700,204.9072376,-31.42576914,1229.687342
1.3750,205.0840608,-31.59236421,1229.528456
1.3800,205.2411573,-31.74837579,1229.37223
1.3850,205.3776881,-31.89464032,1229.218806
1.3900,205.4946421,-32.03052911,1229.068223
1.3950,205.5917198,-32.1566662,1228.92046
1.4000,205.6683868,-32.27239761,1228.775618
1.4050,205.7233852,-32.37619266,1228.633974
1.4100,205.7567096,-32.46864423,1228.495476
1.4150,205.7660188,-32.54972727,1228.360511
1.4200,205.7528453,-32.61941734,1228.228885
1.4250,205.715162,-32.67663755,1228.101047
1.4300,205.6532268,-32.72163365,1227.976881
1.4350,205.568019,-32.75509904,1227.856314
1.4400,205.4591546,-32.77578688,1227.739579
1.4450,205.3276062,-32.78430275,1227.626486
1.4500,205.1736079,-32.78091961,1227.517144
1.4550,204.9989917,-32.76620878,1227.411481
1.4600,204.8040296,-32.73994116,1227.309468
1.4650,204.5912899,-32.7025886,1227.210807
1.4700,204.3616772,-32.65328856,1227.115551
1.4750,204.117683,-32.59356243,1227.023226
1.4800,203.8609115,-32.52386011,1226.933601
1.4850,203.5924741,-32.44369225,1226.846661
1.4900,203.314735,-32.35385558,1226.761991
1.4950,203.0287295,-32.25375712,1226.679524
1.5000,202.7366261,-32.14510428,1226.599051
1.5050,202.439345,-32.02716696,1226.52037
1.5100,202.1386856,-31.89912642,1226.443349
1.5150,201.8348595,-31.76083207,1226.368065
1.5200,201.5298458,-31.61296883,1226.294249
1.5250,201.2240982,-31.45487579,1226.221953
1.5300,200.919227,-31.28631638,1226.150946
1.5350,200.615373,-31.10775608,1226.08117
1.5400,200.3134659,-30.91903163,1226.012513
1.5450,200.0141729,-30.71960524,1225.944998
1.5500,199.7190726,-30.51084672,1225.878316
1.5550,199.4284524,-30.2928871,1225.812446
1.5600,199.142143,-30.06745627,1225.747267
1.5650,198.8609701,-29.83381172,1225.682671
1.5700,198.5845987,-29.59433452,1225.618566
1.5750,198.3141913,-29.3493014,1225.554655
1.5800,198.0493936,-29.09931535,1225.490913
1.5850,197.7914186,-28.84514889,1225.427116
1.5900,197.539378,-28.58701842,1225.363282
1.5950,197.2955082,-28.32656159,1225.299001
1.6000,197.0604565,-28.06264709,1225.23408
1.6050,196.8347631,-27.79772191,1225.168335
1.6100,196.6171268,-27.53091296,1225.101859
1.6150,196.4087343,-27.26289422,1225.034466
1.6200,196.2103884,-26.99438767,1224.965952
1.6250,196.0216167,-26.7246647,1224.896326
1.6300,195.8438302,-26.45473876,1224.825248
1.6350,195.6763851,-26.18490457,1224.752767
1.6400,195.5188189,-25.91528182,1224.679056
1.6450,195.3710285,-25.64646332,1224.604019
1.6500,195.232668,-25.37900196,1224.527644
1.6550,195.1028472,-25.11199786,1224.450335
1.6600,194.9807158,-24.84766343,1224.371894
1.6650,194.8668425,-24.58483927,1224.292445
1.6700,194.7592455,-24.32485151,1224.212141
1.6750,194.6588741,-24.06852904,1224.130669
1.6800,194.5642259,-23.81660531,1224.048254
1.6850,194.4754672,-23.56835483,1223.964866
1.6900,194.3920847,-23.32427178,1223.880616
1.6950,194.3129706,-23.08431807,1223.795621
1.7000,194.2386531,-22.8486512,1223.709767
1.7050,194.169511,-22.61781359,1223.62296
1.7100,194.1040064,-22.39114159,1223.5354
1.7150,194.0433903,-22.16743195,1223.446978
1.7200,193.9863023,-21.94694515,1223.357907
1.7250,193.9332336,-21.72963816,1223.268016
1.7300,193.8836441,-21.51513568,1223.177465
1.7350,193.837836,-21.30298675,1223.086256
1.7400,193.7955851,-21.0924233,1222.994327
1.7450,193.7568417,-20.88282222,1222.901869
1.7500,193.7215273,-20.67305564,1222.80898
1.7550,193.6893856,-20.46422385,1222.715477
1.7600,193.6600406,-20.25607951,1222.621471
1.7650,193.6320348,-20.04806286,1222.527309
1.7700,193.6049796,-19.84166325,1222.432798
1.7750,193.578942,-19.63774813,1222.338049
1.7800,193.5515343,-19.43569155,1222.243535
1.7850,193.5214319,-19.23668353,1222.149445
1.7900,193.4875155,-19.0429246,1222.055753
1.7950,193.4490548,-18.85448826,1221.962705
1.8000,193.4043395,-18.67052805,1221.870656
1.8050,193.353277,-18.4918461,1221.7797
1.8100,193.2960639,-18.31907633,1221.689741
1.8150,193.2326254,-18.1518316,1221.600767
1.8200,193.1621986,-17.99012032,1221.512844
1.8250,193.0861139,-17.83356763,1221.425839
1.8300,193.0038692,-17.68084713,1221.339962
1.8350,192.9165849,-17.53188893,1221.25507
1.8400,192.8242497,-17.38567147,1221.171166
1.8450,192.7275807,-17.24146125,1221.08824
1.8500,192.6266612,-17.09758791,1221.006413
1.8550,192.5223779,-16.95422235,1220.925504
1.8600,192.4147995,-16.80864628,1220.845684
1.8650,192.3051804,-16.66144872,1220.766844
1.8700,192.1956929,-16.51016134,1220.688891
1.8750,192.0860905,-16.35531848,1220.611916
1.8800,191.9767898,-16.19540162,1220.535995
1.8850,191.8686754,-16.03151426,1220.460973
1.8900,191.7623647,-15.86280658,1220.386875
1.8950,191.6575125,-15.6893664,1220.313842
1.9000,191.5528295,-15.51245115,1220.241988
1.9050,191.4492895,-15.33099561,1220.171303
1.9100,191.3475488,-15.14559128,1220.101821
1.9150,191.2471324,-14.95702599,1220.033501
1.9200,191.1465936,-14.76482972,1219.966633
1.9250,191.047159,-14.57054578,1219.900969
1.9300,190.9490486,-14.37275507,1219.836712
1.9350,190.8516316,-14.17166277,1219.773958
1.9400,190.7559715,-13.96833122,1219.712323
1.9450,190.6613873,-13.76193831,1219.652166
1.9500,190.568111,-13.55161608,1219.593487
1.9550,190.4762728,-13.33799213,1219.536107
1.9600,190.3873457,-13.11994222,1219.480048
1.9650,190.3005498,-12.89739921,1219.425331
1.9700,190.2179602,-12.67024565,1219.371575
1.9750,190.1386675,-12.43848683,1219.318847
1.9800,190.0631189,-12.20134736,1219.267241
1.9850,189.9924084,-11.95997601,1219.216384
1.9900,189.9245891,-11.71507905,1219.166391
1.9950,189.8600976,-11.46640499,1219.117228
2.0000,189.7995237,-11.21463145,1219.068609
2.0050,189.7413862,-10.95975456,1219.020745
2.0100,189.6856986,-10.70191547,1218.973667
2.0150,189.6340453,-10.44141577,1218.927106
2.0200,189.5851026,-10.17900489,1218.881077
2.0250,189.5393001,-9.914498823,1218.835486
2.0300,189.4961792,-9.647801752,1218.790467
2.0350,189.4538301,-9.379529628,1218.746083
2.0400,189.4129035,-9.109277491,1218.702468
2.0450,189.3721772,-8.837316309,1218.659728
2.0500,189.3308279,-8.563982366,1218.61787
2.0550,189.2895307,-8.287668145,1218.577169
2.0600,189.2477327,-8.009102798,1218.537606
2.0650,189.205671,-7.727370564,1218.499321
2.0700,189.1634892,-7.441658308,1218.462358
2.0750,189.1192755,-7.151567328,1218.427086
2.0800,189.0740352,-6.856733014,1218.393532
2.0850,189.0263305,-6.557859782,1218.361666
2.0900,188.9760681,-6.253953038,1218.331777
2.0950,188.9222014,-5.945296615,1218.304004
2.1000,188.8655132,-5.632398051,1218.278143
2.1050,188.8039742,-5.316401258,1218.254354
2.1100,188.7373285,-4.997659756,1218.232677
2.1150,188.6641338,-4.678412732,1218.21304
2.1200,188.5834999,-4.357712048,1218.195789
2.1250,188.4938963,-4.0368446,1218.180918
2.1300,188.3943999,-3.716508311,1218.168436
2.1350,188.2849138,-3.397137752,1218.158224
2.1400,188.1648867,-3.078675664,1218.150463
2.1450,188.0348963,-2.760825512,1218.1451
2.1500,187.8947126,-2.444363928,1218.142045
2.1550,187.7441646,-2.128513713,1218.141443
2.1600,187.5842415,-1.814673645,1218.143054
2.1650,187.414538,-1.502493692,1218.146882
2.1700,187.2334883,-1.191210812,1218.153313
2.1750,187.0415759,-0.8800657683,1218.162397
2.1800,186.839527,-0.5708969225,1218.173816
2.1850,186.6272812,-0.2631419463,1218.187526
2.1900,186.4057183,0.04405916509,1218.203534
2.1950,186.1751715,0.351471091,1218.221875
2.2000,185.9362371,0.6593447044,1218.24251
2.2050,185.6896045,0.9678720494,1218.265408
2.2100,185.435298,1.278144755,1218.290664
2.2150,185.1739123,1.590354778,1218.318231
2.2200,184.9064605,1.90425919,1218.34793
2.2250,184.6329629,2.22091974,1218.380008
2.2300,184.3523967,2.539736205,1218.414427
2.2350,184.0664539,2.861618431,1218.451107
2.2400,183.7750526,3.186759398,1218.490162
2.2450,183.478457,3.514851916,1218.531453
2.2500,183.1783204,3.845475752,1218.574653
2.2550,182.8737123,4.179244693,1218.62
2.2600,182.5642114,4.515463216,1218.667355
2.2650,182.2508923,4.854152247,1218.716538
2.2700,181.9341894,5.196313826,1218.767727
2.2750,181.614528,5.542371205,1218.820937
2.2800,181.292625,5.892283145,1218.875944
2.2850,180.968364,6.247205838,1218.933003
2.2900,180.6426594,6.60749736,1218.992014
2.2950,180.3161531,6.972452958,1219.052767
2.3000,179.9878479,7.342878574,1219.1156
2.3050,179.6570506,7.71773815,1219.180406
2.3100,179.3244577,8.097782815,1219.247276
2.3150,178.9878268,8.481658654,1219.316279
2.3200,178.6474089,8.871059164,1219.387766
2.3250,178.3024062,9.26544696,1219.461823
2.3300,177.9533399,9.665526685,1219.538468
2.3350,177.6005399,10.07261024,1219.618113
2.3400,177.2422687,10.48702611,1219.701083
2.3450,176.8792757,10.90797477,1219.787188
2.3500,176.5113804,11.33590575,1219.876635
2.3550,176.1382991,11.77016829,1219.969406
2.3600,175.7585595,12.21079392,1220.065829
2.3650,175.3709182,12.65572045,1220.165761
2.3700,174.9752957,13.1051043,1220.269426
2.3750,174.571053,13.55890928,1220.377001
2.3800,174.1564573,14.01476606,1220.488289
2.3850,173.7320085,14.47284088,1220.603371
2.3900,173.2974898,14.93252837,1220.722293
2.3950,172.8536219,15.39248299,1220.844666
2.4000,172.398784,15.85204249,1220.970758
2.4050,171.9332947,16.3108711,1221.100428
2.4100,171.456453,16.76914146,1221.233939
2.4150,170.969389,17.22797193,1221.37138
2.4200,170.4729496,17.68574289,1221.512314
2.4250,169.966881,18.14293828,1221.656893
2.4300,169.4513495,18.59853419,1221.804917
2.4350,168.9253402,19.05286463,1221.9567
2.4400,168.3893179,19.50401574,1222.111633
2.4450,167.8413392,19.95181234,1222.270072
2.4500,167.2811207,20.3964139,1222.432166
2.4550,166.7081954,20.8380016,1222.598113
2.4600,166.1233185,21.27653544,1222.767827
2.4650,165.5259688,21.71362932,1222.941843
2.4700,164.9178892,22.14938235,1223.119931
2.4750,164.2996544,22.58451808,1223.302249
2.4800,163.6721902,23.02074887,1223.489001
2.4850,163.035544,23.45858843,1223.68045
2.4900,162.3901016,23.89725457,1223.876389
2.4950,161.7365747,24.33511004,1224.076297
2.5000,161.0765617,24.77102672,1224.279652
2.5050,160.4092346,25.20394701,1224.486345
2.5100,159.733845,25.63290705,1224.69643
2.5150,159.0507756,26.05598355,1224.909397
2.5200,158.3601203,26.47328018,1225.125293
2.5250,157.6615753,26.88447583,1225.344022
2.5300,156.9566014,27.28953498,1225.565354
2.5350,156.2463826,27.68801613,1225.78888
2.5400,155.5312364,28.08040837,1226.014677
2.5450,154.8115081,28.46582173,1226.242321
2.5500,154.0853773,28.84390369,1226.472178
2.5550,153.3559161,29.2159999,1226.703941
2.5600,152.6229688,29.58332655,1226.937951
2.5650,151.887107,29.94630092,1227.174283
2.5700,151.148187,30.30465546,1227.412798
2.5750,150.4075668,30.65847582,1227.653228
2.5800,149.6647078,31.00743378,1227.895659
2.5850,148.9201649,31.35204887,1228.140073
2.5900,148.173824,31.69173699,1228.386375
2.5950,147.4263636,32.02848403,1228.634934
2.6000,146.6785208,32.36278831,1228.885759
2.6050,145.9328544,32.69544136,1229.138415
2.6100,145.1893268,33.02615961,1229.392782
2.6150,144.4490144,33.35562339,1229.648729
2.6200,143.7125418,33.68238823,1229.905688
2.6250,142.9806844,34.00688616,1230.163517
2.6300,142.2529782,34.32826724,1230.422073
2.6350,141.5298936,34.64558419,1230.68089
2.6400,140.8128492,34.9582328,1230.939413
2.6450,140.1001019,35.2660426,1231.197988
2.6500,139.3931655,35.56851211,1231.456036
2.6550,138.6897041,35.8655427,1231.714032
2.6600,137.991609,36.15721807,1231.971507
2.6650,137.2980163,36.4447875,1232.229039
2.6700,136.6089458,36.72609175,1232.485947
2.6750,135.9264287,37.00194605,1232.74184
2.6800,135.25033,37.27316714,1232.996943
2.6850,134.5816254,37.53887917,1233.250648
2.6900,133.9192371,37.79925678,1233.503227
2.6950,133.2626584,38.0546074,1233.754937
2.7000,132.6117622,38.30423762,1234.005517
2.7050,131.9667388,38.54972111,1234.255358
2.7100,131.3278406,38.78943555,1234.503799
2.7150,130.694246,39.02309802,1234.750932
2.7200,130.0662007,39.25144319,1234.996776
2.7250,129.4438996,39.47427451,1235.241243
2.7300,128.8283512,39.69249312,1235.484231
2.7350,128.2190959,39.90604502,1235.725821
2.7400,127.6164741,40.11522275,1235.965989
2.7450,127.0212338,40.32201609,1236.205011
2.7500,126.4324308,40.52597431,1236.442964
2.7550,125.8507741,40.72817713,1236.679852
2.7600,125.2764447,40.929635,1236.915842
2.7650,124.7093854,41.12882986,1237.150502
2.7700,124.1490317,41.32559403,1237.383825
2.7750,123.595722,41.51839559,1237.615118
2.7800,123.0473284,41.70732596,1237.845029
2.7850,122.5045778,41.89126865,1238.072876
2.7900,121.9670131,42.07175212,1238.299231
2.7950,121.4325963,42.24788768,1238.524447
2.8000,120.9013941,42.4214449,1238.748984
2.8050,120.3723673,42.59427374,1238.973754
2.8100,119.8475762,42.76634815,1239.198037
2.8150,119.3267658,42.93911915,1239.422352
2.8200,118.8092735,43.11243235,1239.646804
2.8250,118.2952974,43.28620146,1239.871304
2.8300,117.7843261,43.46021169,1240.095998
2.8350,117.2753151,43.63386304,1240.321042
2.8400,116.767667,43.80700254,1240.546683
2.8450,116.2628199,43.98074614,1240.772843
2.8500,115.7603538,44.15432438,1240.999415
2.8550,115.2590413,44.3264297,1241.226417
2.8600,114.7584136,44.49572518,1241.453577
2.8650,114.2579632,44.66191035,1241.680937
2.8700,113.7588522,44.82505768,1241.908139
2.8750,113.2598805,44.98468334,1242.135474
2.8800,112.7611847,45.14149206,1242.363093
2.8850,112.2622176,45.29405489,1242.59074
2.8900,111.7640621,45.44371488,1242.818409
2.8950,111.2667197,45.59002181,1243.045969
2.9000,110.7699192,45.7327549,1243.273345
2.9050,110.2728843,45.87278729,1243.501117
2.9100,109.7755382,46.00933494,1243.729029
2.9150,109.2760617,46.14252169,1243.957761
2.9200,108.7764243,46.27423971,1244.187256
2.9250,108.2760067,46.40396458,1244.417559
2.9300,107.7755267,46.53173478,1244.648397
2.9350,107.2739241,46.65839295,1244.880364
2.9400,106.7710602,46.78285492,1245.113173
2.9450,106.2681563,46.90585304,1245.346627
2.9500,105.7646234,47.02791238,1245.581127
2.9550,105.2614237,47.14948673,1245.816493
2.9600,104.7578121,47.27024875,1246.05288
2.9650,104.2541381,47.39036473,1246.290186
2.9700,103.7513656,47.51094847,1246.528476
2.9750,103.2473788,47.63149252,1246.768348
2.9800,102.7436814,47.75169709,1247.009168
2.9850,102.2400506,47.87320466,1247.251579
2.9900,101.7369411,47.99590327,1247.495383
2.9950,101.2344512,48.11972234,1247.74044
3.0000,100.7341429,48.24506955,1247.986367
3.0050,100.2353869,48.3708919,1248.23293
3.0100,99.73829978,48.49793144,1248.480348
3.0150,99.24265367,48.62497949,1248.728259
3.0200,98.7480965,48.75273892,1248.977001
3.0250,98.25461366,48.88033565,1249.226253
3.0300,97.76090856,49.00833327,1249.476702
3.0350,97.26827567,49.13710666,1249.727982
3.0400,96.77738629,49.26864197,1249.980477
3.0450,96.28814333,49.40206922,1250.233927
3.0500,95.80213167,49.53743797,1250.487741
3.0550,95.31952703,49.67583781,1250.742228
3.0600,94.83893887,49.81739435,1250.997995
3.0650,94.36220528,49.96309975,1251.25455
3.0700,93.88892351,50.113198,1251.512142
3.0750,93.41936111,50.2686295,1251.771046
3.0800,92.95436026,50.42882258,1252.030721
3.0850,92.49461401,50.59435534,1252.291127
3.0900,92.03983424,50.7643474,1252.552058
3.0950,91.59125351,50.93975493,1252.813332
3.1000,91.14842095,51.11916425,1253.074689
3.1050,90.71324963,51.30122553,1253.334817
3.1100,90.28508326,51.48518629,1253.593684
3.1150,89.863254,51.67022891,1253.851237
3.1200,89.44895689,51.85596939,1254.106863
3.1250,89.04233286,52.04209675,1254.360392
3.1300,88.64296818,52.22820977,1254.61168
3.1350,88.2519858,52.41442465,1254.860338
3.1400,87.86921848,52.60012883,1255.106082
3.1450,87.49390341,52.78525077,1255.349158
3.1500,87.12716395,52.97081846,1255.589427
3.1550,86.76908235,53.15534515,1255.826225
3.1600,86.41917358,53.33943782,1256.059987
3.1650,86.077552,53.52246926,1256.290367
3.1700,85.74315576,53.70354228,1256.517502
3.1750,85.41635876,53.88243083,1256.741113
3.1800,85.09707055,54.05929829,1256.961274
3.1850,84.78518707,54.23517733,1257.178442
3.1900,84.47939394,54.40812401,1257.392457
3.1950,84.17894915,54.57713879,1257.603227
3.2000,83.8838728,54.74232284,1257.810803
3.2050,83.59446036,54.90380208,1258.01511
3.2100,83.31050406,55.06079132,1258.21591
3.2150,83.03266332,55.21280171,1258.4127
3.2200,82.76008803,55.35871843,1258.605387
3.2250,82.49161389,55.49867917,1258.794427
3.2300,82.22630407,55.6317706,1258.979953
3.2350,81.9649543,55.75824778,1259.161709
3.2400,81.70623713,55.87744909,1259.339971
3.2450,81.45086934,55.99052907,1259.5148
3.2500,81.19812742,56.0962031,1259.686038
3.2550,80.94785706,56.19453757,1259.853739
3.2600,80.70042663,56.28694401,1260.018286
3.2650,80.45584281,56.37292469,1260.179416
3.2700,80.21235683,56.45268272,1260.337989
3.2750,79.97076958,56.52581119,1260.493526
3.2800,79.73027378,56.5942973,1260.647058
3.2850,79.48986013,56.65643928,1260.798349
3.2900,79.24882831,56.71355474,1260.948192
3.2950,79.00626271,56.76657739,1261.097345
3.3000,78.76187251,56.81615438,1261.246114
3.3050,78.51550575,56.86260682,1261.394765
3.3100,78.26720779,56.90745813,1261.54384
3.3150,78.01726862,56.95392334,1261.694445
3.3200,77.76609756,57.00085067,1261.845965
3.3250,77.51426097,57.05133952,1261.999344
3.3300,77.26194075,57.1050693,1262.154364
3.3350,77.00865725,57.16301091,1262.311557
3.3400,76.75304868,57.22499683,1262.471595
3.3450,76.49603356,57.29107445,1262.63407
3.3500,76.23803501,57.36243756,1262.799224
3.3550,75.97880773,57.43893668,1262.96718
3.3600,75.72025994,57.52068776,1263.137063
3.3650,75.46157976,57.60778036,1263.309377
3.3700,75.20396519,57.69933934,1263.483289
3.3750,74.9473002,57.79609569,1263.659068
3.3800,74.6922667,57.89781148,1263.836339
3.3850,74.43918521,58.00491883,1264.015091
3.3900,74.18811961,58.11579813,1264.194717
3.3950,73.93998179,58.23146175,1264.375161
3.4000,73.69564155,58.35112443,1264.555694
3.4050,73.45390432,58.47409254,1264.736566
3.4100,73.21563617,58.59995473,1264.917203
3.4150,72.98117916,58.72850936,1265.097317
3.4200,72.75054197,58.85889913,1265.276576
3.4250,72.52281207,58.98914712,1265.45459
3.4300,72.29841081,59.11924779,1265.631175
3.4350,72.07616222,59.24706266,1265.805972
3.4400,71.85718241,59.37321162,1265.978663
3.4450,71.64165971,59.4963851,1266.148707
3.4500,71.43027698,59.61594821,1266.31548
3.4550,71.22254293,59.7326027,1266.479519
3.4600,71.01890438,59.84544244,1266.640193
3.4650,70.82003739,59.95372608,1266.79689
3.4700,70.62542673,60.05823991,1266.950191
3.4750,70.43439596,60.15886101,1267.100323
3.4800,70.24784727,60.25492952,1267.246573
3.4850,70.06608192,60.34640236,1267.388736
3.4900,69.89007997,60.43470588,1267.526953
3.4950,69.71947264,60.51915034,1267.661116
3.5000,69.55479474,60.59888389,1267.790616
3.5050,69.39472133,60.67293875,1267.915717
3.5100,69.23967855,60.74273301,1268.036801
3.5150,69.08930848,60.80782056,1268.153883
3.5200,68.94286198,60.86840113,1268.267358
3.5250,68.80135657,60.92449951,1268.376803
3.5300,68.665085,60.97683424,1268.482307
3.5350,68.53341516,61.02463532,1268.583896
3.5400,68.40637349,61.06929951,1268.682108
3.5450,68.28277599,61.11028359,1268.77734
3.5500,68.16271637,61.14866949,1268.869951
3.5550,68.04558156,61.18435721,1268.96019
3.5600,67.93074673,61.2172185,1269.048297
3.5650,67.81827013,61.24762811,1269.1344
3.5700,67.70757525,61.27580612,1269.218875
3.5750,67.5981542,61.30260139,1269.302318
3.5800,67.4893798,61.32669563,1269.384537
3.5850,67.38169199,61.34931459,1269.465885
3.5900,67.27400052,61.37030426,1269.546766
3.5950,67.16674772,61.38941553,1269.626976
3.6000,67.05807268,61.40805669,1269.707921
3.6050,66.94820986,61.42627396,1269.789499
3.6100,66.83686869,61.44439972,1269.871993
3.6150,66.722885,61.4612173,1269.955471
3.6200,66.60628275,61.47811815,1270.04049
3.6250,66.4860147,61.49490715,1270.127413
3.6300,66.36211079,61.51296046,1270.21687
3.6350,66.23404703,61.53197599,1270.308981
3.6400,66.10273326,61.55212244,1270.403294
3.6450,65.9675437,61.57386586,1270.500286
3.6500,65.82833156,61.59786747,1270.600367
3.6550,65.68363639,61.62175629,1270.703245
3.6600,65.53332326,61.64631963,1270.809312
3.6650,65.37766875,61.67055671,1270.918028
3.6700,65.21560433,61.69442398,1271.029827
3.6750,65.04799645,61.71804293,1271.144391
3.6800,64.87471427,61.74186884,1271.261935
3.6850,64.69523675,61.76505236,1271.382452
3.6900,64.51075146,61.78829113,1271.505529
3.6950,64.32178685,61.81120996,1271.630886
3.7000,64.12722161,61.83355484,1271.758889
3.7050,63.92884538,61.85619172,1271.889008
3.7100,63.72588002,61.87948333,1272.021781
3.7150,63.51990749,61.90335867,1272.156363
3.7200,63.30982761,61.92732849,1272.293096
3.7250,63.0978688,61.95355697,1272.431743
3.7300,62.88429141,61.98028525,1272.571478
3.7350,62.66980239,62.00940861,1272.712743
3.7400,62.45458695,62.04025557,1272.855134
3.7450,62.23963691,62.07336194,1272.998348
3.7500,62.02399668,62.10915793,1273.14303
3.7550,61.81007343,62.14790857,1273.288043
3.7600,61.59847087,62.19046624,1273.433401
3.7650,61.38954085,62.2375545,1273.579187
3.7700,61.18296585,62.28863246,1273.7253
3.7750,60.97974444,62.34565383,1273.872022
3.7800,60.77968248,62.40697979,1274.01881
3.7850,60.58318498,62.47196373,1274.165131
3.7900,60.3905849,62.54058701,1274.310786
3.7950,60.20231401,62.61412881,1274.456051
3.8000,60.01793073,62.69088332,1274.600504
3.8050,59.83784315,62.77181176,1274.744253
3.8100,59.66207936,62.85536377,1274.886666
3.8150,59.49091969,62.94219857,1275.02779
3.8200,59.32310365,63.03155147,1275.168043
3.8250,59.15968,63.12294757,1275.306662
3.8300,58.99962762,63.21609291,1275.444072
3.8350,58.84349859,63.31167492,1275.580185
3.8400,58.69183571,63.40901616,1275.714501
3.8450,58.54467068,63.50749882,1275.846717
3.8500,58.40134439,63.60733388,1275.97736
3.8550,58.26183555,63.70758786,1276.106029
3.8600,58.12529292,63.8083055,1276.233178
3.8650,57.99180218,63.90939221,1276.358707
3.8700,57.86122727,64.01076203,1276.48268
3.8750,57.73373362,64.11242933,1276.604955
3.8800,57.60827017,64.21457479,1276.726177
3.8850,57.48402258,64.31732009,1276.846806
3.8900,57.36260843,64.42004111,1276.965748
3.8950,57.2426916,64.52312922,1277.083808
3.9000,57.12394531,64.62486712,1277.200431
3.9050,57.00615662,64.72542012,1277.315818
3.9100,56.88857596,64.82387214,1277.429896
3.9150,56.77144133,64.92103953,1277.542926
3.9200,56.65458025,65.01633746,1277.654722
3.9250,56.5375845,65.10962834,1277.765474
3.9300,56.42148853,65.20040824,1277.874304
3.9350,56.30616938,65.28986193,1277.981804
3.9400,56.19173661,65.37774298,1278.087785
3.9450,56.07734409,65.46291463,1278.192244
3.9500,55.96314929,65.54516331,1278.294926
3.9550,55.85142811,65.62670969,1278.395609
3.9600,55.74134589,65.70660092,1278.494327
3.9650,55.63316708,65.78557781,1278.591185
3.9700,55.52906654,65.86476945,1278.685523
3.9750,55.42895974,65.94271368,1278.776752
3.9800,55.33297682,66.01956705,1278.864821
3.9850,55.24196863,66.09567778,1278.949443
3.9900,55.15603581,66.17096952,1279.030489
3.9950,55.07453248,66.24509829,1279.108073
4.0000,54.99891115,66.31903875,1279.181856
4.0050,54.92823486,66.39152783,1279.251857
4.0100,54.86319332,66.4628897,1279.317802
4.0150,54.80398322,66.53219833,1279.379158
4.0200,54.75140899,66.6003725,1279.43589
4.0250,54.70433983,66.66622037,1279.488078
4.0300,54.66283944,66.73033417,1279.535938
4.0350,54.62752989,66.79269733,1279.579109
4.0400,54.59792151,66.85190389,1279.617249
4.0450,54.57387247,66.90809621,1279.650546
4.0500,54.55540562,66.9604898,1279.67861
4.0550,54.54203186,67.00960785,1279.701969
4.0600,54.53320525,67.05476024,1279.720644
4.0650,54.52918725,67.09569252,1279.734458
4.0700,54.529712,67.13224391,1279.743476
4.0750,54.53474331,67.1631398,1279.747228
4.0800,54.5439573,67.18969553,1279.746433
4.0850,54.55719323,67.2113514,1279.74099
4.0900,54.57348773,67.22730264,1279.731065
4.0950,54.59278215,67.23697956,1279.716563
4.1000,54.61479142,67.24246767,1279.698454
4.1050,54.63916624,67.24213574,1279.676304
4.1100,54.6655578,67.23683955,1279.650615
4.1150,54.6943316,67.22711707,1279.621504
4.1200,54.72607784,67.21313356,1279.588687
4.1250,54.75983877,67.19433543,1279.552458
4.1300,54.79546204,67.17166495,1279.513332
4.1350,54.83214475,67.14299469,1279.47088
4.1400,54.86991661,67.10925969,1279.425422
4.1450,54.9080696,67.06993655,1279.377146
4.1500,54.94687319,67.02523661,1279.325916
4.1550,54.98732036,66.9769235,1279.272003
4.1600,55.0295278,66.92356012,1279.214726
4.1650,55.07319377,66.86575461,1279.15456
4.1700,55.11944659,66.80383326,1279.09102
4.1750,55.16763951,66.73768876,1279.024371
4.1800,55.21821896,66.66700384,1278.954242
4.1850,55.27198984,66.59238922,1278.880479
4.1900,55.32687408,66.51314581,1278.803928
4.1950,55.38459662,66.43057867,1278.724177
4.2000,55.44518193,66.34440496,1278.641148
4.2050,55.50868375,66.25545646,1278.555178
4.2100,55.57619489,66.16407357,1278.465854
4.2150,55.64690979,66.06965418,1278.373293
4.2200,55.71994482,65.97286539,1278.278352
4.2250,55.79684558,65.87401044,1278.180241
4.2300,55.87630654,65.7736215,1278.079957
4.2350,55.95807741,65.67029318,1277.977086
4.2400,56.04194102,65.56496311,1277.872067
4.2450,56.12880308,65.45892094,1277.76501
4.2500,56.21883561,65.35370751,1277.656455
4.2550,56.31083975,65.24755907,1277.546288
4.2600,56.40550047,65.1418984,1277.434746
4.2650,56.50308685,65.03663484,1277.321665
4.2700,56.60188727,64.93139111,1277.207849
4.2750,56.70205708,64.82678032,1277.093372
4.2800,56.80382349,64.72306059,1276.978303
4.2850,56.90598826,64.61895765,1276.86266
4.2900,57.00919418,64.5155473,1276.746682
4.2950,57.11370077,64.41230049,1276.630006
4.3000,57.21960923,64.30989795,1276.512879
4.3050,57.32648171,64.20833757,1276.395497
4.3100,57.43479799,64.10722339,1276.277498
4.3150,57.54381578,64.00691439,1276.159451
4.3200,57.65306651,63.90785543,1276.041798
4.3250,57.76314304,63.80981117,1275.924087
4.3300,57.87306663,63.71306778,1275.806986
4.3350,57.98271392,63.61674063,1275.690197
4.3400,58.09121256,63.52209695,1275.574728
4.3450,58.19885912,63.42952131,1275.460574
4.3500,58.30608251,63.33825033,1275.347219
4.3550,58.41187049,63.24750029,1275.234864
4.3600,58.51740542,63.15793257,1275.123183
4.3650,58.62136185,63.06940931,1275.012855
4.3700,58.72525955,62.98242645,1274.903263
4.3750,58.82820698,62.89674845,1274.794746
4.3800,58.93080542,62.81278401,1274.687166
4.3850,59.03281401,62.73035681,1274.580576
4.3900,59.13461463,62.64995218,1274.474975
4.3950,59.23626455,62.57112901,1274.370044
4.4000,59.3378418,62.49353082,1274.2657
4.4050,59.43940866,62.41613822,1274.161429
4.4100,59.54091284,62.33917583,1274.057404
4.4150,59.64404953,62.26185678,1273.952443
4.4200,59.74833381,62.18330855,1273.846415
4.4250,59.8537265,62.10439415,1273.739753
4.4300,59.96091753,62.02340305,1273.631344
4.4350,60.07051859,61.94139088,1273.521294
4.4400,60.18253109,61.85865803,1273.409748
4.4450,60.29753375,61.77550711,1273.2965
4.4500,60.41567244,61.69159553,1273.18138
4.4550,60.53663035,61.60584723,1273.064075
4.4600,60.65995695,61.51796167,1272.944702
4.4650,60.78791714,61.42907105,1272.822534
4.4700,60.91876978,61.33751479,1272.697791
4.4750,61.05284931,61.24360313,1272.570492
4.4800,61.19160793,61.14635749,1272.439483
4.4850,61.33445997,61.04595984,1272.30518
4.4900,61.48205152,60.94163276,1272.166935
4.4950,61.6328883,60.83225192,1272.025139
4.5000,61.7876035,60.71858825,1271.879832
4.5050,61.94614124,60.59988645,1271.730703
4.5100,62.10759849,60.47552232,1271.578012
4.5150,62.2725557,60.34592939,1271.42173
4.5200,62.4414079,60.21128635,1271.261661
4.5250,62.61299793,60.07122189,1271.098346
4.5300,62.7878013,59.92499095,1270.931243
4.5350,62.96571355,59.7741058,1270.760988
4.5400,63.14663281,59.61733171,1270.587257
4.5450,63.32954464,59.45473639,1270.410541
4.5500,63.51526816,59.28552131,1270.23023
4.5550,63.70266861,59.11028614,1270.04707
4.5600,63.8915954,58.93017133,1269.861678
4.5650,64.08236083,58.74495255,1269.673794
4.5700,64.27538205,58.55426772,1269.483094
4.5750,64.47032643,58.3598279,1269.290501
4.5800,64.66697386,58.16151509,1269.096049
4.5850,64.86586128,57.96020925,1268.899896
4.5900,65.06641894,57.7552763,1268.701998
4.5950,65.26779499,57.54730349,1268.502966
4.6000,65.46991141,57.33598814,1268.302799
4.6050,65.67346491,57.12224476,1268.101531
4.6100,65.87701601,56.90648624,1267.899952
4.6150,66.08091481,56.68857441,1267.697915
4.6200,66.28570701,56.46883986,1267.495272
4.6250,66.49123097,56.24778027,1267.292339
4.6300,66.69816646,56.02568904,1267.088813
4.6350,66.90605122,55.80329599,1266.885235
4.6400,67.11547609,55.58118437,1266.681498
4.6450,67.32579219,55.35848445,1266.477605
4.6500,67.53737147,55.13731029,1266.274145
4.6550,67.75000718,54.91717037,1266.071016
4.6600,67.9637928,54.6993099,1265.86865
4.6650,68.1795781,54.48406903,1265.666719
4.6700,68.39744065,54.27212345,1265.46541
4.6750,68.61841117,54.06304651,1265.264052
4.6800,68.84120825,53.85700721,1265.063324
4.6850,69.06602472,53.65356971,1264.862968
4.6900,69.29273112,53.45357351,1264.663371
4.6950,69.52131591,53.25633036,1264.464284
4.7000,69.75305343,53.06122803,1264.264813
4.7050,69.98677512,52.86937762,1264.06595
4.7100,70.22323725,52.67953228,1263.866833
4.7150,70.46014508,52.49205273,1263.668659
4.7200,70.69841027,52.30668133,1263.470905
4.7250,70.93844813,52.12375535,1263.273441
4.7300,71.18075863,51.94343468,1263.07612
4.7350,71.42502043,51.76597399,1262.879186
4.7400,71.67219456,51.59032196,1262.681778
4.7450,71.92343824,51.41708958,1262.483575
4.7500,72.17880654,51.24604898,1262.284473
4.7550,72.43891246,51.07683549,1262.084009
4.7600,72.7038201,50.91089796,1261.882753
4.7650,72.97279604,50.74600213,1261.680257
4.7700,73.24665982,50.58437499,1261.476939
4.7750,73.52610372,50.42540146,1261.272227
4.7800,73.81078365,50.26970842,1261.066553
4.7850,74.10146921,50.11636609,1260.85921
4.7900,74.39923977,49.96743304,1260.650498
4.7950,74.70447212,49.82181351,1260.439825
4.8000,75.01677832,49.67920187,1260.227257
4.8050,75.33703361,49.53902883,1260.012209
4.8100,75.66496377,49.40075382,1259.794608
4.8150,76.00107041,49.26365711,1259.573958
4.8200,76.34494281,49.12650148,1259.350028
4.8250,76.69584777,48.98936368,1259.12324
4.8300,77.05314795,48.85148055,1258.893669
4.8350,77.41648157,48.71157509,1258.661088
4.8400,77.78656987,48.56907513,1258.424994
4.8450,78.16352628,48.42342047,1258.185234
4.8500,78.54538132,48.27383339,1257.942417
4.8550,78.93351758,48.12143865,1257.696509
4.8600,79.32730508,47.9639888,1257.446987
4.8650,79.72583263,47.80263164,1257.194762
4.8700,80.13009686,47.63897808,1256.940024
4.8750,80.53958014,47.47150088,1256.682494
4.8800,80.95459969,47.3001836,1256.422113
4.8850,81.37446537,47.12542852,1256.159315
4.8900,81.79965329,46.94692371,1255.893877
4.8950,82.23021731,46.76426241,1255.625772
4.9000,82.66412798,46.57753956,1255.355943
4.9050,83.1023407,46.38742019,1255.08426
4.9100,83.54483165,46.19321169,1254.810578
4.9150,83.99039249,45.99556968,1254.53566
4.9200,84.43865261,45.79469041,1254.259798
4.9250,84.88872455,45.59030352,1253.983363
4.9300,85.34000661,45.38240568,1253.706642
4.9350,85.79188943,45.17094388,1253.429869
4.9400,86.24393586,44.9559431,1253.153329
4.9450,86.69597549,44.73801855,1252.877229
4.9500,87.1471901,44.5160615,1252.601593
4.9550,87.59761158,44.29136957,1252.326855
4.9600,88.04618873,44.06278451,1252.053072
4.9650,88.49082861,43.83006644,1251.781015
4.9700,88.93139829,43.59289021,1251.510645
4.9750,89.36665754,43.35132553,1251.242478
4.9800,89.79697432,43.10558884,1250.976418
4.9850,90.22207466,42.85641439,1250.712783
4.9900,90.64198781,42.60301866,1250.451252
4.9950,91.05657972,42.34654198,1250.192261
5.0000,91.46476849,42.08768255,1249.936402
5.0050,91.86771321,41.82688412,1249.683372
5.0100,92.26612413,41.5660555,1249.4334
5.0150,92.66094468,41.30450476,1249.185884
5.0200,93.05340035,41.04519706,1248.941164
5.0250,93.44287216,40.78619562,1248.698898
5.0300,93.83043934,40.52837902,1248.458858
5.0350,94.21656728,40.27145627,1248.220729
5.0400,94.60087452,40.01548112,1247.984631
5.0450,94.9831801,39.76067312,1247.750662
5.0500,95.36297802,39.50610229,1247.518673
5.0550,95.74101818,39.25296063,1247.288751
5.0600,96.11937801,39.00078066,1247.059825
5.0650,96.49777995,38.75065354,1246.832356
5.0700,96.87782264,38.50273737,1246.605847
5.0750,97.25942916,38.25782452,1246.380491
5.0800,97.64326785,38.01623351,1246.156134
5.0850,98.02893814,37.77811467,1245.933026
5.0900,98.41587587,37.54167729,1245.710783
5.0950,98.8045804,37.30752424,1245.489434
5.1000,99.19663698,37.07520617,1245.268253
5.1050,99.59118062,36.84491065,1245.047635
5.1100,99.98830355,36.61706972,1244.827725
5.1150,100.3873765,36.39144412,1244.608719
5.1200,100.7881852,36.16776694,1244.390666
5.1250,101.1925147,35.94526399,1244.172635
5.1300,101.600005,35.7248821,1243.955091
5.1350,102.0115388,35.50676573,1243.73781
5.1400,102.4265789,35.29114769,1243.521099
5.1450,102.8443316,35.07889467,1243.305539
5.1500,103.2675634,34.87016079,1243.090193
5.1550,103.6950572,34.6630848,1242.874966
5.1600,104.1263713,34.45851705,1242.660255
5.1650,104.5615506,34.25490759,1242.445628
5.1700,104.9998983,34.05157685,1242.231152
5.1750,105.4413957,33.84828905,1242.016764
5.1800,105.8852802,33.64476861,1241.80276
5.1850,106.3327356,33.44172403,1241.588872
5.1900,106.7825503,33.23930131,1241.37568
5.1950,107.2358307,33.03833372,1241.162963
5.2000,107.6927915,32.8395129,1240.950903
5.2050,108.1532889,32.64186828,1240.739303
5.2100,108.6170179,32.44641162,1240.528613
5.2150,109.0852147,32.25321699,1240.318311
5.2200,109.5572259,32.06059324,1240.108188
5.2250,110.032588,31.86971721,1239.89869
5.2300,110.5114824,31.68050502,1239.689797
5.2350,110.9936666,31.4928186,1239.481564
5.2400,111.4792339,31.30563197,1239.273645
5.2450,111.9669125,31.11805301,1239.066212
5.2500,112.4575643,30.93128504,1238.859352
5.2550,112.9503741,30.74403274,1238.652939
5.2600,113.4448409,30.55573931,1238.446983
5.2650,113.9417458,30.3663572,1238.241236
5.2700,114.4406491,30.17503335,1238.03559
5.2750,114.9420005,29.98225053,1237.830063
5.2800,115.4463728,29.78788357,1237.624441
5.2850,115.9530643,29.59246899,1237.419199
5.2900,116.4615355,29.39572445,1237.214402
5.2950,116.9724963,29.19821947,1237.009887
5.3000,117.4857166,29.00021492,1236.805868
5.3050,118.0022375,28.80135617,1236.601833
5.3100,118.5214092,28.60090406,1236.397834
5.3150,119.0424479,28.39977063,1236.194401
5.3200,119.5653854,28.19548724,1235.990912
5.3250,120.0910585,27.99028341,1235.787602
5.3300,120.6179893,27.78335255,1235.584796
5.3350,121.1473214,27.5745166,1235.382131
5.3400,121.6792488,27.36471094,1235.179818
5.3450,122.2139537,27.15389596,1234.977879
5.3500,122.7519415,26.94252272,1234.776339
5.3550,123.2930125,26.73037263,1234.575313
5.3600,123.8352898,26.51747562,1234.375437
5.3650,124.3787004,26.30321083,1234.176574
5.3700,124.9237859,26.08620481,1233.978136
5.3750,125.4698648,25.86636631,1233.780356
5.3800,126.016193,25.64453144,1233.583637
5.3850,126.5644313,25.41933676,1233.387045
5.3900,127.1141968,25.19235299,1233.191121
5.3950,127.6665049,24.96351694,1232.99552
5.4000,128.2206864,24.7337414,1232.800611
5.4050,128.7777046,24.50306471,1232.606149
5.4100,129.3386088,24.27223335,1232.412005
5.4150,129.9043355,24.04182733,1232.218111
5.4200,130.4758095,23.81222009,1232.024254
5.4250,131.0526882,23.58489451,1231.830952
5.4300,131.6359797,23.35786262,1231.637515
5.4350,132.2256435,23.13234838,1231.444274
5.4400,132.8220901,22.90922691,1231.251377
5.4450,133.4260806,22.68765792,1231.058517
5.4500,134.0373361,22.46803186,1230.865935
5.4550,134.6554632,22.2521591,1230.674185
5.4600,135.2820437,22.03907357,1230.482664
5.4650,135.9171423,21.82950977,1230.291636
5.4700,136.5609937,21.62311668,1230.100956
5.4750,137.213169,21.42033717,1229.910931
5.4800,137.8743626,21.21986852,1229.720993
5.4850,138.543201,21.02151416,1229.531596
5.4900,139.2195359,20.82572949,1229.342869
5.4950,139.9024334,20.63140363,1229.15488
5.5000,140.5926539,20.43725022,1228.967047
5.5050,141.288045,20.24303579,1228.779894
5.5100,141.9886122,20.04836654,1228.593398
5.5150,142.6935432,19.85271299,1228.407678
5.5200,143.4010252,19.65603257,1228.223198
5.5250,144.1111354,19.4575797,1228.039794
5.5300,144.8233998,19.25720011,1227.857545
5.5350,145.5371027,19.05475643,1227.676567
5.5400,146.2517714,18.85015922,1227.497044
5.5450,146.9673197,18.64406887,1227.319184
5.5500,147.6817344,18.43580751,1227.143312
5.5550,148.3955802,18.22632379,1226.969502
5.5600,149.1077939,18.01641774,1226.798187
5.5650,149.8179393,17.80595401,1226.629397
5.5700,150.525527,17.59493491,1226.463266
5.5750,151.2289757,17.38479905,1226.300487
5.5800,151.9262548,17.17467544,1226.141328
5.5850,152.6181501,16.96492031,1225.98551
5.5900,153.3043871,16.75676712,1225.833391
5.5950,153.9840308,16.55014423,1225.685139
5.6000,154.6575217,16.34512278,1225.540662
5.6050,155.3231967,16.1424543,1225.400247
5.6100,155.9815476,15.94359257,1225.264085
5.6150,156.6339193,15.74757009,1225.131471
5.6200,157.2790776,15.55466974,1225.002666
5.6250,157.915783,15.36366429,1224.877656
5.6300,158.5451671,15.17509486,1224.756082
5.6350,159.1668614,14.98960766,1224.638153
5.6400,159.7812959,14.80529831,1224.523259
5.6450,160.387194,14.62179455,1224.411531
5.6500,160.9848806,14.43901056,1224.30282
5.6550,161.5740127,14.25569595,1224.196846
5.6600,162.1551465,14.07124828,1224.093334
5.6650,162.7288075,13.88488128,1223.991992
5.6700,163.2933344,13.69712281,1223.893237
5.6750,163.8505226,13.50705521,1223.796622
5.6800,164.401505,13.31383547,1223.701653
5.6850,164.9447505,13.11808219,1223.60876
5.6900,165.4823216,12.9197792,1223.517488
5.6950,166.0134943,12.71788602,1223.427779
5.7000,166.5371356,12.51178676,1223.339779
5.7050,167.0540856,12.30263829,1223.253475
5.7100,167.5638191,12.0897093,1223.168854
5.7150,168.0671469,11.87384362,1223.085798
5.7200,168.5642407,11.65572393,1223.004573
5.7250,169.0540919,11.4353632,1222.925373
5.7300,169.536743,11.21361593,1222.84824
5.7350,170.0134309,10.99012664,1222.772867
5.7400,170.484655,10.76643115,1222.699336
5.7450,170.9513955,10.54207248,1222.627308
5.7500,171.4126947,10.31731701,1222.556987
5.7550,171.8692687,10.09262581,1222.488315
5.7600,172.3210241,9.868455285,1222.421473
5.7650,172.7683842,9.645791867,1222.35658
5.7700,173.2114332,9.424102883,1222.29349
5.7750,173.6512424,9.203066842,1222.232038
5.7800,174.0862596,8.98286532,1222.172597
5.7850,174.5169606,8.764575854,1222.115333
5.7900,174.9432352,8.546154614,1222.05986
5.7950,175.3639225,8.329360897,1222.006721
5.8000,175.7800518,8.114841929,1221.955912
5.8050,176.1910144,7.902945929,1221.907644
5.8100,176.5980777,7.693236051,1221.861579
5.8150,177.0002708,7.485820105,1221.817864
5.8200,177.3997088,7.281781744,1221.776366
5.8250,177.7953862,7.080999272,1221.737105
5.8300,178.1880468,6.88401065,1221.700056
5.8350,178.5768778,6.689929845,1221.665162
5.8400,178.9627511,6.499700234,1221.632308
5.8450,179.3444071,6.312630412,1221.601557
5.8500,179.7234416,6.129081869,1221.572698
5.8550,180.098367,5.947763478,1221.545763
5.8600,180.4692037,5.768571828,1221.520851
5.8650,180.8350785,5.590833922,1221.497959
5.8700,181.196119,5.415031246,1221.477179
5.8750,181.5526365,5.238470151,1221.457928
5.8800,181.9053229,5.06172314,1221.440154
5.8850,182.2530571,4.883421523,1221.42378
5.8900,182.59635,4.703480462,1221.408745
5.8950,182.9347992,4.521283957,1221.394983
5.9000,183.2679821,4.336768544,1221.382468
5.9050,183.5970309,4.150652359,1221.371209
5.9100,183.9211021,3.961218611,1221.360945
5.9150,184.2393332,3.768901367,1221.351923
5.9200,184.5520153,3.573956297,1221.34406
5.9250,184.8598755,3.376790388,1221.337304
5.9300,185.1617926,3.176587912,1221.331762
5.9350,185.4580764,2.972877753,1221.327233
5.9400,185.7473947,2.76653841,1221.324061
5.9450,186.0310015,2.557025896,1221.321965
5.9500,186.3078254,2.343846655,1221.321032
5.9550,186.5780725,2.127376448,1221.321223
5.9600,186.8427888,1.907639888,1221.322472
5.9650,187.1009498,1.686453694,1221.325128
5.9700,187.3530516,1.463341062,1221.329065
5.9750,187.5985864,1.239124893,1221.334322
5.9800,187.8360807,1.013961572,1221.341235
5.9850,188.0661281,0.7889151324,1221.349898
5.9900,188.2880369,0.5637618669,1221.360392
5.9950,188.5019977,0.3401633406,1221.372887
6.0000,188.7085703,0.1197550988,1221.387629
6.0050,188.9068612,-0.09867789379,1221.404638
6.0100,189.0979345,-0.3137901138,1221.423969
6.0150,189.28141,-0.5265870453,1221.445666
6.0200,189.458032,-0.7357541722,1221.469652
6.0250,189.6285333,-0.9430674824,1221.495588
6.0300,189.7927187,-1.146969787,1221.523841
6.0350,189.9503769,-1.346946577,1221.554459
6.0400,190.102533,-1.543437239,1221.587288
6.0450,190.2487272,-1.734077651,1221.622733
6.0500,190.3903392,-1.91953678,1221.660405
6.0550,190.5285072,-2.099638111,1221.700156
6.0600,190.6625208,-2.273670793,1221.742086
6.0650,190.7929085,-2.441879576,1221.785898
6.0700,190.9190625,-2.604771553,1221.831669
6.0750,191.0405754,-2.761318811,1221.879502
6.0800,191.1587706,-2.911720798,1221.929156
6.0850,191.2722309,-3.056625057,1221.980736
6.0900,191.3807935,-3.194861959,1222.034507
6.0950,191.4858241,-3.327512982,1222.090051
6.1000,191.5848867,-3.455729449,1222.147637
6.1050,191.6791775,-3.579060978,1222.207123
6.1100,191.7670101,-3.698599463,1222.268472
6.1150,191.8487105,-3.813905313,1222.331851
6.1200,191.9234779,-3.927057999,1222.396985
6.1250,191.9919162,-4.037272351,1222.46393
6.1300,192.0523225,-4.146261299,1222.532673
6.1350,192.1060265,-4.253721635,1222.603138
6.1400,192.1515128,-4.361414508,1222.675346
6.1450,192.1907635,-4.468270101,1222.749139
6.1500,192.2220245,-4.575603239,1222.82476
6.1550,192.246958,-4.683436473,1222.901928
6.1600,192.2660468,-4.792447151,1222.980421
6.1650,192.2815581,-4.900780589,1223.060091
6.1700,192.2926783,-5.00908001,1223.140929
6.1750,192.3004666,-5.115941142,1223.22289
6.1800,192.3064633,-5.221152426,1223.305743
6.1850,192.3112832,-5.324134938,1223.389381
6.1900,192.3145965,-5.425462636,1223.473659
6.1950,192.3174699,-5.524943599,1223.558348
6.2000,192.3195234,-5.62277444,1223.643441
6.2050,192.3214502,-5.719859788,1223.728788
6.2100,192.32264,-5.814979602,1223.814557
6.2150,192.3248879,-5.908014705,1223.90046
6.2200,192.3290315,-5.999212357,1223.986349
6.2250,192.3338888,-6.088365487,1224.072461
6.2300,192.3398586,-6.175601905,1224.158727
6.2350,192.3458309,-6.261426786,1224.245245
6.2400,192.3520861,-6.346094839,1224.331982
6.2450,192.3579825,-6.429111605,1224.419044
6.2500,192.3644471,-6.510665168,1224.506224
6.2550,192.3705028,-6.591250451,1224.5935
6.2600,192.3765636,-6.670998952,1224.680759
6.2650,192.3833976,-6.751925695,1224.767585
6.2700,192.3904555,-6.833204321,1224.854088
6.2750,192.3972128,-6.916503787,1224.94029
6.2800,192.4055312,-7.001318146,1225.025902
6.2850,192.4151275,-7.0885816,1225.110834
6.2900,192.4267497,-7.178061119,1225.195078
6.2950,192.4402537,-7.26973593,1225.27867
6.3000,192.4567445,-7.364869993,1225.361188
6.3050,192.4766653,-7.462253081,1225.442758
6.3100,192.500534,-7.561831828,1225.523243
6.3150,192.5285302,-7.662094067,1225.602789
6.3200,192.5608078,-7.763652108,1225.681412
6.3250,192.5983308,-7.865283908,1225.758994
6.3300,192.6417657,-7.966376006,1225.835536
6.3350,192.6916751,-8.067903722,1225.910781
6.3400,192.7455032,-8.168806405,1225.98527
6.3450,192.8049434,-8.270866002,1226.05849
6.3500,192.8686333,-8.372738813,1226.13094
6.3550,192.9356386,-8.476562588,1226.202459
6.3600,193.0071822,-8.581649063,1226.27307
6.3650,193.0818908,-8.688814462,1226.342981
6.3700,193.1602358,-8.79760912,1226.412183
6.3750,193.2408248,-8.909473403,1226.480728
6.3800,193.3229346,-9.024230229,1226.548666
6.3850,193.4058889,-9.142213548,1226.616023
6.3900,193.4892503,-9.263847619,1226.68285
6.3950,193.5716677,-9.390027993,1226.749179
6.4000,193.653262,-9.52056951,1226.815027
6.4050,193.7334864,-9.655773075,1226.880441
6.4100,193.8120033,-9.794776352,1226.945707
6.4150,193.8874113,-9.938421941,1227.010905
6.4200,193.9592411,-10.08517011,1227.076234
6.4250,194.0275956,-10.23638222,1227.141559
6.4300,194.092747,-10.39081538,1227.207034
6.4350,194.152526,-10.54807704,1227.273012
6.4400,194.2063411,-10.70795595,1227.33963
6.4450,194.2536288,-10.87134907,1227.406968
6.4500,194.2950122,-11.03828348,1227.474656
6.4550,194.3294735,-11.20803556,1227.542987
6.4600,194.3572377,-11.38067125,1227.611865
6.4650,194.3774736,-11.55590995,1227.681431
6.4700,194.3894737,-11.73442507,1227.751743
6.4750,194.3933859,-11.91471679,1227.82302
6.4800,194.3880869,-12.09697062,1227.895474
6.4850,194.3747977,-12.27993774,1227.969041
6.4900,194.3538989,-12.46299719,1228.043732
6.4950,194.3257903,-12.64506137,1228.119593
6.5000,194.2913846,-12.82492823,1228.196645
6.5050,194.249718,-13.00226125,1228.275018
6.5100,194.2016299,-13.17735995,1228.354534
6.5150,194.1467317,-13.34994506,1228.43543
6.5200,194.0844712,-13.52021269,1228.517689
6.5250,194.0164301,-13.68815749,1228.601057
6.5300,193.9424355,-13.85356351,1228.685583
6.5350,193.8641021,-14.01662078,1228.770888
6.5400,193.7810448,-14.17740536,1228.857077
6.5450,193.6946873,-14.33685214,1228.94371
6.5500,193.6061455,-14.49394392,1229.030656
6.5550,193.5159442,-14.64993013,1229.117749
6.5600,193.4241354,-14.80470657,1229.204867
6.5650,193.3323254,-14.95845435,1229.291704
6.5700,193.2398944,-15.11182608,1229.378321
6.5750,193.148437,-15.26454373,1229.464356
6.5800,193.0570134,-15.41853162,1229.549775
6.5850,192.9678006,-15.57362226,1229.634205
6.5900,192.8811106,-15.73042527,1229.717266
6.5950,192.7991233,-15.88980257,1229.798577
6.6000,192.7234865,-16.0505899,1229.877809
6.6050,192.6565615,-16.21312903,1229.954484
6.6100,192.5979439,-16.37715073,1230.028558
6.6150,192.5511675,-16.54375122,1230.099045
6.6200,192.516722,-16.71342519,1230.165688
6.6250,192.4968352,-16.88549344,1230.228111
6.6300,192.4931793,-17.06036422,1230.28592
6.6350,192.5058999,-17.23806754,1230.339041
6.6400,192.5383489,-17.41969427,1230.386791
6.6450,192.5896613,-17.60491881,1230.429295
6.6500,192.6602342,-17.7952815,1230.466286
6.6550,192.7516721,-17.98902938,1230.497731
6.6600,192.8635869,-18.18766799,1230.523506
6.6650,192.9953922,-18.39120947,1230.54386
6.6700,193.1455823,-18.60064439,1230.558838
6.6750,193.3138021,-18.81618628,1230.568683
6.6800,193.4984224,-19.03761169,1230.573791
6.6850,193.6991591,-19.26534201,1230.574199
6.6900,193.9133986,-19.49997473,1230.570301
6.6950,194.1392948,-19.74041322,1230.562745
6.7000,194.3741407,-19.98644286,1230.551925
6.7050,194.6160234,-20.23817313,1230.538261
6.7100,194.8619726,-20.4957759,1230.522334
6.7150,195.1106708,-20.75749575,1230.504597
6.7200,195.3596744,-21.02363985,1230.48562
6.7250,195.6064574,-21.29300771,1230.466144
6.7300,195.8494713,-21.56456983,1230.446507
6.7350,196.087617,-21.8373438,1230.427153
6.7400,196.3203638,-22.11028462,1230.40839
6.7450,196.5454615,-22.38318225,1230.390682
6.7500,196.7605555,-22.65396146,1230.374674
6.7550,196.9646118,-22.92202272,1230.360682
6.7600,197.1577166,-23.18612738,1230.348897
6.7650,197.3388032,-23.44690199,1230.339468
6.7700,197.5087187,-23.70278796,1230.332422
6.7750,197.6663025,-23.95467458,1230.327922
6.7800,197.8116501,-24.20133112,1230.325952
6.7850,197.9433361,-24.44289793,1230.326762
6.7900,198.0619032,-24.67930253,1230.330291
6.7950,198.1679169,-24.91042065,1230.336515
6.8000,198.2605529,-25.13696192,1230.345433
6.8050,198.3396855,-25.35868544,1230.357073
6.8100,198.4054223,-25.57644841,1230.371398
6.8150,198.4581285,-25.79004891,1230.388203
6.8200,198.4967584,-25.99913064,1230.407744
6.8250,198.522241,-26.20443272,1230.429806
6.8300,198.5343176,-26.40657143,1230.454344
6.8350,198.5335242,-26.60492971,1230.481289
6.8400,198.5209201,-26.7994296,1230.51043
6.8450,198.4963663,-26.99059038,1230.541709
6.8500,198.4600694,-27.17891074,1230.575064
6.8550,198.4133678,-27.36317755,1230.610294
6.8600,198.3571444,-27.54465617,1230.647142
6.8650,198.2921015,-27.72166016,1230.685613
6.8700,198.2212981,-27.89554189,1230.725045
6.8750,198.145369,-28.066139,1230.765317
6.8800,198.0659951,-28.23237555,1230.806243
6.8850,197.9842949,-28.39488714,1230.847532
6.8900,197.9022569,-28.55361409,1230.888853
6.8950,197.8204508,-28.70871568,1230.930073
6.9000,197.7398051,-28.86130239,1230.970988
6.9050,197.6613728,-29.01192387,1231.011309
6.9100,197.5869824,-29.16082876,1231.050732
6.9150,197.5159107,-29.30723534,1231.089449
6.9200,197.4501723,-29.45145203,1231.127023
6.9250,197.389526,-29.59407189,1231.163384
6.9300,197.3346017,-29.73402033,1231.198351
6.9350,197.2870929,-29.87160483,1231.231608
6.9400,197.2464398,-30.00640493,1231.26313
6.9450,197.2148089,-30.13751749,1231.292688
6.9500,197.1915475,-30.26501754,1231.320282
6.9550,197.1773778,-30.38969746,1231.345751
6.9600,197.1719462,-30.51050326,1231.369169
6.9650,197.1747903,-30.6288565,1231.390442
6.9700,197.1867682,-30.74349056,1231.409628
6.9750,197.2071675,-30.8548378,1231.426797
6.9800,197.2356228,-30.96229286,1231.442018
6.9850,197.272325,-31.06620902,1231.455377
6.9900,197.3162536,-31.16666079,1231.467012
6.9950,197.3677121,-31.26349594,1231.476887
7.0000,197.4261079,-31.35678166,1231.485218
7.0050,197.4904463,-31.44659897,1231.492195
7.0100,197.5605636,-31.53191182,1231.497908
7.0150,197.6346158,-31.61347071,1231.502674
7.0200,197.7122295,-31.6907504,1231.506593
7.0250,197.7917936,-31.76390744,1231.509944
7.0300,197.8718558,-31.8336317,1231.512974
7.0350,197.9520055,-31.90067204,1231.51571
7.0400,198.0302,-31.96422126,1231.518521
7.0450,198.1059799,-32.02349886,1231.521474
7.0500,198.1790354,-32.07976034,1231.524746
7.0550,198.2483845,-32.13227649,1231.528321
7.0600,198.3122511,-32.18152437,1231.532375
7.0650,198.3714391,-32.227042,1231.536866
7.0700,198.4238378,-32.26835457,1231.542049
7.0750,198.4700534,-32.30512492,1231.547834
7.0800,198.5090346,-32.33779074,1231.5544
7.0850,198.5413287,-32.3655281,1231.561709
7.0900,198.5665142,-32.38921726,1231.569696
7.0950,198.5831381,-32.40857576,1231.578641
7.1000,198.5923822,-32.42338677,1231.588402
7.1050,198.5946677,-32.43353637,1231.59884
7.1100,198.5904025,-32.43948192,1231.609887
7.1150,198.5790936,-32.43981976,1231.621656
7.1200,198.5618347,-32.4359412,1231.633846
7.1250,198.5384694,-32.42749482,1231.646407
7.1300,198.5104436,-32.41439474,1231.659048
7.1350,198.4770783,-32.39751666,1231.671874
7.1400,198.4389621,-32.37698351,1231.684661
7.1450,198.3971507,-32.35289398,1231.697226
7.1500,198.3528423,-32.32535728,1231.709305
7.1550,198.3062485,-32.29563984,1231.720736
7.1600,198.2579857,-32.26306348,1231.731464
7.1650,198.2075618,-32.22959953,1231.741346
7.1700,198.1558885,-32.19399679,1231.750215
7.1750,198.1042915,-32.15741269,1231.757807
7.1800,198.0543262,-32.11998801,1231.763758
7.1850,198.0053456,-32.08269399,1231.768063
7.1900,197.9589628,-32.04463145,1231.770577
7.1950,197.9149011,-32.00716443,1231.771052
7.2000,197.8747148,-31.97031526,1231.769192
7.2050,197.838392,-31.9333058,1231.764921
7.2100,197.8067045,-31.8968601,1231.758058
7.2150,197.7811737,-31.86189324,1231.748381
7.2200,197.7615362,-31.82704797,1231.735894
7.2250,197.7494514,-31.79166459,1231.720387
7.2300,197.7445483,-31.75790459,1231.701772
7.2350,197.7473458,-31.72472649,1231.680024
7.2400,197.7570895,-31.69186123,1231.655319
7.2450,197.7736882,-31.66045797,1231.627581
7.2500,197.7984116,-31.6304004,1231.596564
7.2550,197.8298778,-31.60098873,1231.562439
7.2600,197.86881,-31.57421616,1231.524911
7.2650,197.9145685,-31.54828011,1231.484256
7.2700,197.9671231,-31.52324093,1231.440371
7.2750,198.0265866,-31.49917455,1231.393158
7.2800,198.0933015,-31.4765658,1231.342572
7.2850,198.1665639,-31.45601943,1231.288667
7.2900,198.2464335,-31.43648218,1231.23146
7.2950,198.3321424,-31.41859508,1231.171043
7.3000,198.4232417,-31.40191855,1231.107527
7.3050,198.5187767,-31.38651093,1231.041071
7.3100,198.6185837,-31.37271394,1230.971726
7.3150,198.722327,-31.35942748,1230.89973
7.3200,198.8298805,-31.34693611,1230.825046
7.3250,198.9398677,-31.33467384,1230.74787
7.3300,199.0504937,-31.32303148,1230.668586
7.3350,199.1613998,-31.31072759,1230.587299
7.3400,199.272004,-31.29775077,1230.504181
7.3450,199.3817059,-31.28426056,1230.419351
7.3500,199.4886902,-31.26886479,1230.333162
7.3550,199.5927458,-31.25155596,1230.245755
7.3600,199.6920315,-31.23201851,1230.157535
7.3650,199.7841797,-31.20910604,1230.068944
7.3700,199.8696622,-31.18319999,1229.979999
7.3750,199.9470934,-31.15296862,1229.891019
7.3800,200.0159107,-31.11811489,1229.802173
7.3850,200.0754064,-31.07934558,1229.71358
7.3900,200.1247143,-31.03497655,1229.625481
7.3950,200.1641312,-30.98511642,1229.537783
7.4000,200.1931123,-30.92960456,1229.45066
7.4050,200.2113774,-30.8677618,1229.364287
7.4100,200.2187477,-30.79885491,1229.278796
7.4150,200.2158375,-30.72415617,1229.194084
7.4200,200.2026288,-30.64201414,1229.110378
7.4250,200.1796774,-30.55276586,1229.027568
7.4300,200.1468167,-30.45592036,1228.945752
7.4350,200.1048121,-30.35129854,1228.864852
7.4400,200.0538547,-30.23996136,1228.784898
7.4450,199.9933672,-30.12119805,1228.705986
7.4500,199.9237986,-29.99605727,1228.628021
7.4550,199.8454884,-29.86427671,1228.551016
7.4600,199.7582003,-29.72612848,1228.475079
7.4650,199.6627412,-29.58073528,1228.400198
7.4700,199.5589251,-29.42949255,1228.326401
7.4750,199.4469869,-29.27165536,1228.253722
7.4800,199.3263841,-29.10715661,1228.182265
7.4850,199.197514,-28.93623844,1228.112027
7.4900,199.0597561,-28.76027185,1228.043028
7.4950,198.9137747,-28.57888913,1227.9753
7.5000,198.7592201,-28.39184207,1227.908887
7.5050,198.5960306,-28.20081758,1227.843812
7.5100,198.4240111,-28.00595598,1227.780151
7.5150,198.2425881,-27.80593733,1227.718088
7.5200,198.0529208,-27.60276399,1227.657409
7.5250,197.8544523,-27.39663798,1227.598224
7.5300,197.6486807,-27.18702319,1227.540493
7.5350,197.435129,-26.97462229,1227.484218
7.5400,197.2159908,-26.75974266,1227.429068
7.5450,196.9907906,-26.54258782,1227.375068
7.5500,196.7602157,-26.32276801,1227.322207
7.5550,196.5255018,-26.10175276,1227.270219
7.5600,196.2861935,-25.87781418,1227.219436
7.5650,196.0438991,-25.65243881,1227.169472
7.5700,195.7988254,-25.42533034,1227.120444
7.5750,195.5517418,-25.19608435,1227.072285
7.5800,195.3038871,-24.96531063,1227.024702
7.5850,195.0562641,-24.73254908,1226.977507
7.5900,194.8097021,-24.49797801,1226.930573
7.5950,194.5648206,-24.26163309,1226.883743
7.6000,194.3235516,-24.02489173,1226.836608
7.6050,194.0861706,-23.78790094,1226.788954
7.6100,193.8526641,-23.5504369,1226.740826
7.6150,193.6243689,-23.31393968,1226.691726
7.6200,193.4000426,-23.07789046,1226.641956
7.6250,193.1825864,-22.84354499,1226.590927
7.6300,192.9724068,-22.60949642,1226.538526
7.6350,192.7707986,-22.37716882,1226.484293
7.6400,192.578285,-22.14561151,1226.428152
7.6450,192.3950711,-21.91471321,1226.370123
7.6500,192.2232175,-21.68407865,1226.309766
7.6550,192.0626014,-21.45409302,1226.247128
7.6600,191.9141129,-21.22233193,1226.182237
7.6650,191.7777195,-20.99056629,1226.115097
7.6700,191.6532789,-20.75649172,1226.045915
7.6750,191.5401075,-20.52188961,1225.974687
7.6800,191.4391975,-20.28571547,1225.901401
7.6850,191.3497698,-20.04668058,1225.826335
7.6900,191.2721349,-19.80480859,1225.749511
7.6950,191.2057443,-19.56031571,1225.671116
7.7000,191.1498202,-19.31244195,1225.591283
7.7050,191.1035343,-19.06144969,1225.510148
7.7100,191.0671072,-18.806982,1225.427778
7.7150,191.0391843,-18.54855327,1225.34445
7.7200,191.0198547,-18.28592872,1225.260213
7.7250,191.0079389,-18.0197795,1225.175289
7.7300,191.0028589,-17.75007383,1225.089974
7.7350,191.004043,-17.4773199,1225.004261
7.7400,191.0105226,-17.20115783,1224.918481
7.7450,191.0226602,-16.92141685,1224.832608
7.7500,191.0391427,-16.63830448,1224.746877
7.7550,191.0607489,-16.35146796,1224.661139
7.7600,191.0869042,-16.06195846,1224.575358
7.7650,191.1171443,-15.76965212,1224.489639
7.7700,191.1500917,-15.47414586,1224.404224
7.7750,191.1844487,-15.17600559,1224.319289
7.7800,191.2196616,-14.87463578,1224.235026
7.7850,191.2560847,-14.57073307,1224.151169
7.7900,191.2917481,-14.26410373,1224.068087
7.7950,191.3262327,-13.95367242,1223.98606
7.8000,191.3578939,-13.64073671,1223.905214
7.8050,191.3861625,-13.32341391,1223.825924
7.8100,191.4102303,-13.0029207,1223.748028
7.8150,191.4300045,-12.67998837,1223.671451
7.8200,191.4428409,-12.35439265,1223.596654
7.8250,191.4481946,-12.02653891,1223.523617
7.8300,191.4454728,-11.69686647,1223.452337
7.8350,191.4334222,-11.36555365,1223.382992
7.8400,191.4118215,-11.03408477,1223.31542
7.8450,191.3792601,-10.70229636,1223.249849
7.8500,191.3365882,-10.37097772,1223.186112
7.8550,191.2819339,-10.04049535,1223.124448
7.8600,191.2164185,-9.71112721,1223.064674
7.8650,191.1403593,-9.383326178,1223.006674
7.8700,191.0541726,-9.058443823,1222.950289
7.8750,190.9582564,-8.73680734,1222.895334
7.8800,190.8515969,-8.418458949,1222.842046
7.8850,190.7351769,-8.103512126,1222.790303
7.8900,190.6097325,-7.791913986,1222.739984
7.8950,190.4756106,-7.483851924,1222.691079
7.9000,190.3323492,-7.177869137,1222.643987
7.9050,190.1816245,-6.874191749,1222.598496
7.9100,190.0234856,-6.572107758,1222.554673
7.9150,189.8584791,-6.271428469,1222.512546
7.9200,189.6869992,-5.971913053,1222.472054
7.9250,189.5085775,-5.672819072,1222.433405
7.9300,189.324593,-5.374118422,1222.396424
7.9350,189.1328767,-5.074956689,1222.361675
7.9400,188.9346504,-4.776203118,1222.328805
7.9450,188.7293343,-4.477161989,1222.29807
7.9500,188.5161401,-4.178087889,1222.269548
7.9550,188.2949792,-3.877561282,1222.243476
7.9600,188.0663038,-3.576648797,1222.21965
7.9650,187.8306479,-3.274344576,1222.198116
7.9700,187.5882472,-2.971221102,1222.178697
7.9750,187.339505,-2.6657814,1222.161469
7.9800,187.0842053,-2.358749721,1222.14635
7.9850,186.8228469,-2.049132946,1222.133404
7.9900,186.5553377,-1.737684914,1222.122538
7.9950,186.2815694,-1.422561982,1222.113999
8.0000,186.0022222,-1.104830716,1222.107602
8.0050,185.7189137,-0.7839263923,1222.103203
8.0100,185.430525,-0.458817331,1222.101199
8.0150,185.1378643,-0.1291094248,1222.101538
8.0200,184.8411654,0.2047325654,1222.104101
8.0250,184.5408618,0.5444429094,1222.10916
8.0300,184.2379621,0.8901339605,1222.116452
8.0350,183.9318597,1.241996361,1222.126289
8.0400,183.6227294,1.599403831,1222.138491
8.0450,183.3109402,1.962067384,1222.153094
8.0500,182.9962598,2.329580457,1222.170086
8.0550,182.6764253,2.701532668,1222.189894
8.0600,182.3531686,3.07896298,1222.212378
8.0650,182.0245724,3.460417777,1222.23777
8.0700,181.6918901,3.845173752,1222.265758
8.0750,181.3543261,4.232662522,1222.296375
8.0800,181.012859,4.622156906,1222.3294
8.0850,180.6672962,5.015225312,1222.365208
8.0900,180.3166219,5.410432845,1222.403705
8.0950,179.9624001,5.807865478,1222.444663
8.1000,179.6041367,6.207347011,1222.488195
8.1050,179.2422347,6.608383615,1222.534079
8.1100,178.8772541,7.010986295,1222.58229
8.1150,178.508231,7.414584416,1222.632916
8.1200,178.1364427,7.819669595,1222.685709
8.1250,177.762253,8.225536304,1222.740446
8.1300,177.3858474,8.633197096,1222.79722
8.1350,177.0086801,9.043194518,1222.85587
8.1400,176.6311866,9.455617841,1222.916301
8.1450,176.25463,9.872722351,1222.978715
8.1500,175.8786091,10.29537306,1223.043347
8.1550,175.504652,10.72329296,1223.109903
8.1600,175.1330329,11.15581985,1223.178153
8.1650,174.7635411,11.59319693,1223.248284
8.1700,174.3962168,12.0355339,1223.320233
8.1750,174.0314753,12.48356823,1223.394223
8.1800,173.6694797,12.93628148,1223.470002
8.1850,173.3100192,13.39408045,1223.547827
8.1900,172.9531357,13.85633338,1223.627635
8.1950,172.5985442,14.32276901,1223.709496
8.2000,172.2455238,14.79210067,1223.793205
8.2050,171.8933507,15.26335488,1223.878717
8.2100,171.5423767,15.7362297,1223.965943
8.2150,171.1913955,16.21074275,1224.055182
8.2200,170.8411631,16.6856097,1224.145976
8.2250,170.4912562,17.16087499,1224.238457
8.2300,170.1416739,17.63611174,1224.332467
8.2350,169.7919331,18.11025175,1224.427948
8.2400,169.4401555,18.58253554,1224.525171
8.2450,169.0860963,19.05260393,1224.62395
8.2500,168.7297852,19.52113339,1224.724451
8.2550,168.3712797,19.98691321,1224.826418
8.2600,168.0097347,20.45051716,1224.930108
8.2650,167.6453704,20.9109046,1225.035174
8.2700,167.2786257,21.36857854,1225.141553
8.2750,166.9089784,21.82333809,1225.249364
8.2800,166.5368341,22.2754094,1225.358534
8.2850,166.1618975,22.7236164,1225.468797
8.2900,165.7841434,23.16845107,1225.580217
8.2950,165.4031469,23.60982262,1225.692898
8.3000,165.0189328,24.0482058,1225.806993
8.3050,164.6310421,24.48400849,1225.922651
8.3100,164.2405605,24.91696007,1226.039576
8.3150,163.8479141,25.34655178,1226.157721
8.3200,163.4524269,25.77326229,1226.277438
8.3250,163.055061,26.19626004,1226.398373
8.3300,162.65501,26.61483481,1226.520571
8.3350,162.2529706,27.0287412,1226.643836
8.3400,161.8477561,27.43817849,1226.768521
8.3450,161.4394665,27.84228112,1226.89436
8.3500,161.0276937,28.24200512,1227.021751
8.3550,160.6137607,28.6372639,1227.150347
8.3600,160.196018,29.02775312,1227.280456
8.3650,159.7760717,29.41345497,1227.411651
8.3700,159.3535615,29.79544895,1227.544319
8.3750,158.9284471,30.17491832,1227.6787
8.3800,158.5001781,30.55077052,1227.81454
8.3850,158.0694172,30.92282946,1227.951701
8.3900,157.6363351,31.291831,1228.090364
8.3950,157.1991259,31.65641559,1228.230494
8.4000,156.7590864,32.01796154,1228.372187
8.4050,156.3156976,32.37600836,1228.51534
8.4100,155.8691104,32.73268641,1228.660557
8.4150,155.4193613,33.08762964,1228.807675
8.4200,154.9671559,33.44207126,1228.956903
8.4250,154.5118521,33.79602535,1229.108474
8.4300,154.0538864,34.14850929,1229.261896
8.4350,153.5931681,34.50038752,1229.417489
8.4400,153.1293097,34.85261515,1229.575618
8.4450,152.6621208,35.20324749,1229.735771
8.4500,152.1909749,35.55125068,1229.897843
8.4550,151.7166102,35.89767362,1230.061952
8.4600,151.2380197,36.24192102,1230.228214
8.4650,150.7550247,36.58438925,1230.39684
8.4700,150.2679156,36.92714656,1230.56834
8.4750,149.7754592,37.26784163,1230.74227
8.4800,149.2782665,37.60813043,1230.919044
8.4850,148.7748614,37.94641616,1231.098383
8.4900,148.2654961,38.2827313,1231.28034
8.4950,147.7500667,38.61838488,1231.46521
8.5000,147.2287158,38.95385599,1231.653138
8.5050,146.7019628,39.29094472,1231.844582
8.5100,146.1697776,39.62829978,1232.039107
8.5150,145.6316769,39.96535654,1232.23662
8.5200,145.0867632,40.30292447,1232.437631
8.5250,144.5348473,40.64199981,1232.64247
8.5300,143.9760038,40.98150927,1232.850901
8.5350,143.410106,41.32247613,1233.063235
8.5400,142.8364881,41.66457609,1233.279634
8.5450,142.2561171,42.00796116,1233.499973
8.5500,141.6680176,42.35064666,1233.724043
8.5550,141.0735492,42.69381278,1233.951793
8.5600,140.4729867,43.03692322,1234.183024
8.5650,139.8661704,43.38210592,1234.418437
8.5700,139.2528501,43.72761666,1234.657721
8.5750,138.6347482,44.07418537,1234.900675
8.5800,138.0109088,44.42170483,1235.147628
8.5850,137.3820784,44.77033032,1235.398502
8.5900,136.748084,45.1209367,1235.653725
8.5950,136.1090608,45.47112357,1235.912548
8.6000,135.4657542,45.822118,1236.175247
8.6050,134.817887,46.17316735,1236.4417
8.6100,134.1654614,46.52555968,1236.712333
8.6150,133.5074742,46.87853182,1236.987153
8.6200,132.8460471,47.23387892,1237.266178
8.6250,132.1817438,47.59069485,1237.548941
8.6300,131.5147974,47.94986714,1237.835678
8.6350,130.8453988,48.31192101,1238.1265
8.6400,130.1765403,48.67776852,1238.420914
8.6450,129.5081162,49.04821927,1238.719325
8.6500,128.8412599,49.42425667,1239.021673
8.6550,128.1764242,49.80531503,1239.32772
8.6600,127.5143101,50.1921786,1239.637451
8.6650,126.8557578,50.58471694,1239.950589
8.6700,126.2002699,50.98190238,1240.266922
8.6750,125.5488955,51.38413917,1240.586331
8.6800,124.9021634,51.79048899,1240.908364
8.6850,124.2599689,52.20097931,1241.233032
8.6900,123.6226783,52.61542644,1241.560149
8.6950,122.9914528,53.03456788,1241.889611
8.7000,122.3672553,53.45849458,1242.221106
8.7050,121.7509615,53.88708154,1242.554273
8.7100,121.1420957,54.31889683,1242.888693
8.7150,120.5410822,54.75519277,1243.224653
8.7200,119.9477297,55.19448012,1243.561671
8.7250,119.3630088,55.63609663,1243.898999
8.7300,118.7853143,56.07976968,1244.237194
8.7350,118.2139825,56.52429389,1244.57588
8.7400,117.6479036,56.96901496,1244.915173
8.7450,117.0872235,57.4130737,1245.254677
8.7500,116.531986,57.85700341,1245.594526
8.7550,115.9819029,58.29945048,1245.934275
8.7600,115.4367906,58.7413883,1246.274317
8.7650,114.8966036,59.1812269,1246.613935
8.7700,114.3610031,59.6155548,1246.952004
8.7750,113.8293132,60.0453404,1247.289136
8.7800,113.3008304,60.46883427,1247.624865
8.7850,112.7742146,60.88594648,1247.959662
8.7900,112.2502545,61.29680034,1248.293206
8.7950,111.7281387,61.70047323,1248.625468
8.8000,111.207982,62.09709972,1248.956461
8.8050,110.6886616,62.48640058,1249.286297
8.8100,110.1702675,62.86824803,1249.614948
8.8150,109.6542084,63.24438631,1249.942491
8.8200,109.1415739,63.61365814,1250.268097
8.8250,108.6320481,63.97585821,1250.591732
8.8300,108.1253436,64.33148206,1250.913691
8.8350,107.622694,64.68032226,1251.23342
8.8400,107.1255334,65.02377558,1251.550863
8.8450,106.6331058,65.36110949,1251.865912
8.8500,106.1465913,65.69357308,1252.178516
8.8550,105.6644653,66.02020301,1252.488793
8.8600,105.1866847,66.33965091,1252.79617
8.8650,104.7126612,66.65059712,1253.100314
8.8700,104.2416638,66.95296808,1253.401297
8.8750,103.771993,67.24565767,1253.699256
8.8800,103.3036285,67.52826927,1253.993959
8.8850,102.8357805,67.79932484,1254.28509
8.8900,102.3670502,68.05842724,1254.572941
8.8950,101.8988025,68.30798349,1254.857987
8.9000,101.4296608,68.546767,1255.140185
8.9050,100.9589335,68.77657932,1255.420621
8.9100,100.4865903,68.99569701,1255.698565
8.9150,100.0141872,69.2054285,1255.97394
8.9200,99.53953879,69.40439126,1256.247043
8.9250,99.06026574,69.59507886,1256.519905
8.9300,98.57848343,69.77909114,1256.792347
8.9350,98.09462908,69.95835661,1257.065068
8.9400,97.60950781,70.13371289,1257.338034
8.9450,97.12257958,70.30617355,1257.611861
8.9500,96.63430093,70.47573111,1257.886462
8.9550,96.14558964,70.64389736,1258.162167
8.9600,95.65623262,70.8104505,1258.439058
8.9650,95.16590643,70.97605386,1258.717496
8.9700,94.67584441,71.14119814,1258.997175
8.9750,94.18711735,71.30589617,1259.277721
8.9800,93.69961345,71.47262555,1259.560243
8.9850,93.21216942,71.63978182,1259.844512
8.9900,92.72644492,71.80806879,1260.13012
8.9950,92.24267187,71.97705799,1260.416837
9.0000,91.75963491,72.14699912,1260.705223
9.0050,91.27772738,72.31828632,1260.995355
9.0100,90.79706414,72.49106683,1261.287219
9.0150,90.31821113,72.66309099,1261.579652
9.0200,89.83980313,72.83347999,1261.872898
9.0250,89.36178781,73.00464981,1262.168137
9.0300,88.88480483,73.17515186,1262.464419
9.0350,88.40994213,73.34478735,1262.761287
9.0400,87.93691909,73.51305758,1263.058634
9.0450,87.46621245,73.67881009,1263.355796
9.0500,86.99752408,73.84201345,1263.65286
9.0550,86.53032227,74.00269458,1263.95004
9.0600,86.06499589,74.15899691,1264.246321
9.0650,85.60163574,74.31139139,1264.541888
9.0700,85.13944034,74.4604194,1264.837283
9.0750,84.67921851,74.60534009,1265.131739
9.0800,84.2203782,74.74582304,1265.42536
9.0850,83.76442601,74.8815411,1265.717227
9.0900,83.30921608,75.01040401,1266.007302
9.0950,82.85438246,75.13195515,1266.295409
9.1000,82.39903222,75.24588515,1266.581702
9.1050,81.94299182,75.35042879,1266.865507
9.1100,81.48532757,75.44532833,1267.146982
9.1150,81.02394775,75.52923072,1267.426457
9.1200,80.55808255,75.60335718,1267.704804
9.1250,80.08790401,75.66731076,1267.98169
9.1300,79.61354088,75.72124377,1268.257028
9.1350,79.13483924,75.76607677,1268.53128
9.1400,78.65146872,75.80199668,1268.804615
9.1450,78.16376425,75.82989502,1269.077365
9.1500,77.67217248,75.84981442,1269.349318
9.1550,77.17682662,75.86313174,1269.621026
9.1600,76.67887859,75.87185686,1269.892831
9.1650,76.17878159,75.87698977,1270.164981
9.1700,75.67681403,75.87921714,1270.43772
9.1750,75.17472376,75.8801577,1270.710932
9.1800,74.67245612,75.88070123,1270.98501
9.1850,74.17110978,75.88329454,1271.260518
9.1900,73.67317456,75.88891292,1271.53667
9.1950,73.17889089,75.89892996,1271.813965
9.2000,72.68953229,75.91497895,1272.09252
9.2050,72.20565307,75.93727803,1272.372013
9.2100,71.72906421,75.96797225,1272.652551
9.2150,71.2586977,76.00802651,1272.9351
9.2200,70.79618952,76.0589317,1273.219577
9.2250,70.34166043,76.12150301,1273.506173
9.2300,69.89448698,76.19580433,1273.795187
9.2350,69.4558397,76.28239173,1274.086314
9.2400,69.02452783,76.38165557,1274.380385
9.2450,68.60156207,76.49367487,1274.676839
9.2500,68.18671933,76.61808599,1274.975508
9.2550,67.77943577,76.75495304,1275.276691
9.2600,67.3797187,76.90404822,1275.580216
9.2650,66.98660234,77.06489003,1275.886409
9.2700,66.59937631,77.23684422,1276.19533
9.2750,66.21699125,77.41943677,1276.507232
9.2800,65.8386546,77.61009638,1276.821274
9.2850,65.46427512,77.80943358,1277.137882
9.2900,65.09290453,78.01646406,1277.457155
9.2950,64.72303896,78.23056563,1277.77958
9.3000,64.35594854,78.44937703,1278.10342
9.3050,63.98900074,78.6713688,1278.429337
9.3100,63.62209901,78.8949482,1278.756687
9.3150,63.25428381,79.11991577,1279.085909
9.3200,62.88637923,79.34550836,1279.416268
9.3250,62.51707812,79.56946273,1279.747345
9.3300,62.1471074,79.79363696,1280.079752
9.3350,61.77458412,80.01612628,1280.413541
9.3400,61.40020569,80.23664107,1280.748277
9.3450,61.02358487,80.45604195,1281.084567
9.3500,60.64482922,80.67307134,1281.421692
9.3550,60.26439181,80.88702822,1281.759135
9.3600,59.88166874,81.09892785,1282.097792
9.3650,59.49806644,81.30826159,1282.436637
9.3700,59.11249578,81.51342025,1282.775438
9.3750,58.72545768,81.7146399,1283.114033
9.3800,58.33792637,81.91164452,1283.45173
9.3850,57.94888052,82.10423117,1283.788991
9.3900,57.55946432,82.29276395,1284.125325
9.3950,57.17070622,82.47706295,1284.460027
9.4000,56.78338435,82.65635272,1284.792278
9.4050,56.39805833,82.83165137,1285.122259
9.4100,56.01537344,83.00354634,1285.449867
9.4150,55.6367175,83.17189484,1285.774205
9.4200,55.26284093,83.33676801,1286.094776
9.4250,54.89415644,83.49830678,1286.411403
9.4300,54.53020449,83.65624428,1286.724232
9.4350,54.17175826,83.81004237,1287.032466
9.4400,53.81945251,83.9603959,1287.336154
9.4450,53.47478035,84.10845299,1287.634957
9.4500,53.13906154,84.2552913,1287.928676
9.4550,52.81330316,84.3985179,1288.21551
9.4600,52.4963809,84.53840431,1288.496229
9.4650,52.18955093,84.67439055,1288.769743
9.4700,51.89353281,84.8073159,1289.03604
9.4750,51.60773072,84.93713624,1289.295388
9.4800,51.33375852,85.06491408,1289.547378
9.4850,51.07147773,85.19084778,1289.792097
9.4900,50.82038888,85.31471514,1290.029708
9.4950,50.58030622,85.43569754,1290.259847
9.5000,50.35106517,85.55374916,1290.48239
9.5050,50.13271239,85.66881165,1290.697317
9.5100,49.92381885,85.78024272,1290.905077
9.5150,49.72370333,85.88811959,1291.106044
9.5200,49.53150699,85.99182773,1291.300304
9.5250,49.34791036,86.09106526,1291.487235
9.5300,49.17253487,86.18564018,1291.666991
9.5350,49.0045313,86.27534183,1291.839857
9.5400,48.84362369,86.36018999,1292.005902
9.5450,48.68902507,86.44079055,1292.165919
9.5500,48.53954591,86.51725998,1292.320702
9.5550,48.39449375,86.58838315,1292.469928
9.5600,48.2532294,86.65528846,1292.614592
9.5650,48.11658731,86.71829013,1292.754307
9.5700,47.98439753,86.77816369,1292.889551
9.5750,47.85606149,86.83459692,1293.020498
9.5800,47.73077958,86.88792732,1293.147883
9.5850,47.60858323,86.93845603,1293.271803
9.5900,47.4893833,86.98742673,1293.392925
9.5950,47.37304784,87.03456623,1293.51122
9.6000,47.25756163,87.08061697,1293.628297
9.6050,47.14408481,87.12559395,1293.74349
9.6100,47.03211818,87.17013571,1293.857475
9.6150,46.92165629,87.21611905,1293.971183
9.6200,46.8115284,87.26298058,1294.084996
9.6250,46.70247609,87.31171892,1294.199079
9.6300,46.59310787,87.36149049,1294.313722
9.6350,46.48484669,87.41340098,1294.4287
9.6400,46.37656009,87.46753525,1294.544781
9.6450,46.26774498,87.52311387,1294.661822
9.6500,46.15921907,87.58147746,1294.780123
9.6550,46.05078032,87.64329986,1294.900157
9.6600,45.94218045,87.70731334,1295.021382
9.6650,45.83274491,87.77373105,1295.144337
9.6700,45.72309922,87.84337765,1295.269121
9.6750,45.61355089,87.91626335,1295.395528
9.6800,45.50318523,87.99210293,1295.523975
9.6850,45.39266547,88.07038561,1295.653785
9.6900,45.28114219,88.15112556,1295.785448
9.6950,45.16812034,88.2337039,1295.918924
9.7000,45.05301523,88.31820376,1296.054557
9.7050,44.93575421,88.40489322,1296.192437
9.7100,44.81533105,88.49242189,1296.332515
9.7150,44.69246165,88.58189828,1296.474919
9.7200,44.56580822,88.67276225,1296.620168
9.7250,44.43545937,88.7647234,1296.768052
9.7300,44.30236696,88.85817209,1296.918134
9.7350,44.16683246,88.95334009,1297.070406
9.7400,44.02898085,89.04975558,1297.224441
9.7450,43.88861137,89.14669689,1297.379902
9.7500,43.74535883,89.24355751,1297.536673
9.7550,43.59981846,89.34172393,1297.695115
9.7600,43.4534726,89.44090013,1297.854017
9.7650,43.30682524,89.54113344,1298.01321
9.7700,43.16050476,89.64233056,1298.172098
9.7750,43.01561184,89.74471635,1298.33006
9.7800,42.87196985,89.84691013,1298.486457
9.7850,42.7307808,89.94806557,1298.640025
9.7900,42.59246888,90.04841655,1298.79059
9.7950,42.45712961,90.1471122,1298.937508
9.8000,42.32571725,90.24458804,1299.080489
9.8050,42.1995906,90.33987463,1299.218106
9.8100,42.07921327,90.43385558,1299.350492
9.8150,41.96617621,90.52573698,1299.476189
9.8200,41.86122763,90.61626763,1299.595087
9.8250,41.76492724,90.70411467,1299.706065
9.8300,41.6774674,90.78940821,1299.809
9.8350,41.59882699,90.87245265,1299.904071
9.8400,41.52845782,90.95269355,1299.991303
9.8450,41.46597244,91.02931825,1300.070467
9.8500,41.41331518,91.1029775,1300.140646
9.8550,41.37080107,91.17455896,1300.202166
9.8600,41.33797603,91.24350632,1300.254992
9.8650,41.31518712,91.3101211,1300.299069
9.8700,41.30209021,91.37370805,1300.334297
9.8750,41.29828591,91.43326811,1300.360383
9.8800,41.30461752,91.48964744,1300.377317
9.8850,41.32160916,91.54260339,1300.384617
9.8900,41.34821126,91.59089999,1300.38228
9.8950,41.38555736,91.63476916,1300.369712
9.9000,41.43396802,91.67397356,1300.346603
9.9050,41.49243447,91.70827171,1300.313504
9.9100,41.5616208,91.73822552,1300.270297
9.9150,41.64035765,91.76149169,1300.216486
9.9200,41.72966169,91.78069613,1300.152949
9.9250,41.82794449,91.79336539,1300.079271
9.9300,41.93642825,91.80052112,1299.995391
9.9350,42.05335401,91.80198249,1299.902337
9.9400,42.17920209,91.7969872,1299.799407
9.9450,42.3143312,91.78623033,1299.686846
9.9500,42.45630903,91.76734874,1299.564879
9.9550,42.60519979,91.74068137,1299.43373
9.9600,42.76097652,91.70628052,1299.293512
9.9650,42.92179894,91.6641871,1299.145388
9.9700,43.08846555,91.61521396,1298.989393
9.9750,43.2592752,91.55816347,1298.825945
9.9800,43.43454787,91.49326199,1298.655034
9.9850,43.61304809,91.42119631,1298.47782
9.9900,43.79516524,91.34211164,1298.294275
9.9950,43.98028623,91.25643559,1298.105069
10.0000,44.16831074,91.1635051,1297.909908
10.0050,44.35793976,91.0623741,1297.709141
10.0100,44.55048977,90.95428726,1297.502684
10.0150,44.74408182,90.83795521,1297.290977
10.0200,44.94014644,90.713853,1297.073472
10.0250,45.13800803,90.58239059,1296.850826
10.0300,45.33762897,90.44449546,1296.623667
10.0350,45.53816999,90.30075672,1296.39282
10.0400,45.74079639,90.15240913,1296.158285
10.0450,45.94570684,90.00052801,1295.920595
10.0500,46.15281357,89.84476166,1295.679599
10.0550,46.36151487,89.6865021,1295.43646
10.0600,46.57214155,89.52477669,1295.190561
10.0650,46.78400742,89.3603625,1294.942607
10.0700,46.99748371,89.19367422,1294.692702
10.0750,47.2115317,89.02307369,1294.440648
10.0800,47.42677366,88.84945594,1294.186566
10.0850,47.64232193,88.67340168,1293.931391
10.0900,47.85771535,88.49432699,1293.675101
10.0950,48.0722441,88.31313918,1293.418625
10.1000,48.28583137,88.12973705,1293.161972
10.1050,48.49844696,87.94477973,1292.905492
10.1100,48.70930038,87.75781343,1292.649405
10.1150,48.91914456,87.56940206,1292.393638
10.1200,49.12777881,87.37934422,1292.138166
10.1250,49.33462378,87.18903012,1291.884129
10.1300,49.54040232,86.99817162,1291.630989
10.1350,49.74344538,86.80565534,1291.379121
10.1400,49.94416546,86.61114706,1291.128091
10.1450,50.14297857,86.41637661,1290.878544
10.1500,50.33884244,86.22031003,1290.630582
10.1550,50.53102212,86.02389028,1290.385103
10.1600,50.7196185,85.82680252,1290.141842
10.1650,50.90495829,85.62910581,1289.900658
10.1700,51.08740924,85.43123172,1289.661552
10.1750,51.26652249,85.23451561,1289.425447
10.1800,51.44348704,85.0385474,1289.191419
10.1850,51.618416,84.84462207,1288.960069
10.1900,51.79267593,84.65276991,1288.730699
10.1950,51.9658187,84.46310402,1288.503592
10.2000,52.13846534,84.27541045,1288.278267
10.2050,52.31202442,84.08984145,1288.054005
10.2100,52.48527013,83.904973,1287.830805
10.2150,52.65984195,83.7222198,1287.608388
10.2200,52.83493677,83.53840262,1287.385633
10.2250,53.01093061,83.35463817,1287.162836
10.2300,53.18684066,83.1691143,1286.939637
10.2350,53.36425561,82.98267352,1286.715569
10.2400,53.54308125,82.79589126,1286.490924
10.2450,53.72399264,82.60852886,1286.265179
10.2500,53.90877622,82.4215752,1286.037835
10.2550,54.09729713,82.234639,1285.808759
10.2600,54.29007719,82.04688569,1285.57723
10.2650,54.48936475,81.85973583,1285.34272
10.2700,54.69416428,81.67160435,1285.104956
10.2750,54.90563441,81.48383759,1284.864044
10.2800,55.12300736,81.29507549,1284.619688
10.2850,55.34696607,81.10580582,1284.37179
10.2900,55.57737218,80.91613183,1284.120427
10.2950,55.81490146,80.72512028,1283.864778
10.3000,56.05937677,80.53404561,1283.605671
10.3050,56.31317198,80.3434738,1283.3421
10.3100,56.57605646,80.15396092,1283.074432
10.3150,56.84852622,79.96547527,1282.802508
10.3200,57.13131872,79.77842465,1282.526104
10.3250,57.42436367,79.59231043,1282.245096
10.3300,57.72849583,79.40671439,1281.958835
10.3350,58.04537839,79.22101249,1281.666136
10.3400,58.37353383,79.03433418,1281.367445
10.3450,58.71334117,78.84540428,1281.062047
10.3500,59.06398566,78.65452319,1280.750541
10.3550,59.42608193,78.4602426,1280.43199
10.3600,59.79898808,78.26382894,1280.107385
10.3650,60.18281025,78.06505251,1279.776613
10.3700,60.5773454,77.86384102,1279.439926
10.3750,60.98336918,77.66145289,1279.097526
10.3800,61.4007973,77.45865791,1278.749869
10.3850,61.82944481,77.25558572,1278.397102
10.3900,62.270064,77.05238674,1278.039022
10.3950,62.72291084,76.8495261,1277.675793
10.4000,63.1867928,76.64599754,1277.307675
10.4050,63.66106327,76.44194084,1276.9352
10.4100,64.14594523,76.237214,1276.558258
10.4150,64.63958965,76.0317796,1276.177816
10.4200,65.14282523,75.82678399,1275.794072
10.4250,65.65538895,75.62072814,1275.406563
10.4300,66.17642551,75.41442302,1275.0161
10.4350,66.7068048,75.20785172,1274.622273
10.4400,67.24585382,75.00194934,1274.225977
10.4450,67.7940561,74.79553648,1273.826493
10.4500,68.35093823,74.58952849,1273.424545
10.4550,68.91648435,74.38277651,1273.0197
10.4600,69.49039137,74.17593703,1272.612474
10.4650,70.07133844,73.96833144,1272.203287
10.4700,70.65933138,73.76023031,1271.792378
10.4750,71.25543718,73.55123066,1271.379129
10.4800,71.85813191,73.34083778,1270.964149
10.4850,72.46684458,73.12764851,1270.547143
10.4900,73.08095825,72.91131458,1270.128342
10.4950,73.70001574,72.69107492,1269.707638
10.5000,74.32241211,72.46663662,1269.285823
10.5050,74.94731686,72.23733676,1268.863014
10.5100,75.57534723,72.00385779,1268.439313
10.5150,76.20539294,71.76552396,1268.014986
10.5200,76.83800511,71.5234566,1267.590321
10.5250,77.47230412,71.27644729,1267.165242
10.5300,78.10757772,71.02537972,1266.74048
10.5350,78.74311711,70.7669344,1266.314892
10.5400,79.37780381,70.50137125,1265.88916
10.5450,80.01046545,70.22804148,1265.463578
10.5500,80.64016805,69.94717273,1265.038614
10.5550,81.26605842,69.65792134,1264.614336
10.5600,81.88720551,69.36114575,1264.191508
10.5650,82.50212664,69.05452179,1263.769789
10.5700,83.11071232,68.73942109,1263.349795
10.5750,83.7124721,68.41580366,1262.931691
10.5800,84.30771057,68.08399001,1262.51542
10.5850,84.89635584,67.74373711,1262.100909
10.5900,85.47787545,67.39573671,1261.688634
10.5950,86.05165874,67.04141877,1261.279402
10.6000,86.6185597,66.68087768,1260.872855
10.6050,87.17824848,66.31455454,1260.469269
10.6100,87.73053158,65.94264754,1260.068805
10.6150,88.27667136,65.56748058,1259.671856
10.6200,88.8171254,65.18876347,1259.278143
10.6250,89.35219009,64.80833349,1258.888212
10.6300,89.88299044,64.42626842,1258.501595
10.6350,90.40893279,64.04415988,1258.119168
10.6400,90.93079075,63.66093542,1257.740217
10.6450,91.44776585,63.27832848,1257.365655
10.6500,91.96178172,62.8962724,1256.994698
10.6550,92.47193914,62.51588821,1256.628097
10.6600,92.98024044,62.13761976,1256.265183
10.6650,93.48618438,61.76249395,1255.906632
10.6700,93.98989129,61.39001806,1255.552027
10.6750,94.49181401,61.0207607,1255.201431
10.6800,94.99186121,60.65553018,1254.85521
10.6850,95.49143607,60.29439538,1254.512737
10.6900,95.98946354,59.9385944,1254.17491
10.6950,96.48660262,59.58737526,1253.841082
10.7000,96.98433821,59.24212968,1253.511159
10.7050,97.48304875,58.90347627,1253.185113
10.7100,97.98339266,58.57131636,1252.862737
10.7150,98.48743856,58.24614941,1252.543404
10.7200,98.9933385,57.92667772,1252.227364
10.7250,99.5023428,57.61315877,1251.914221
10.7300,100.014586,57.30370186,1251.60332
10.7350,100.5298666,56.9986891,1251.294955
10.7400,101.0492739,56.69799527,1250.988651
10.7450,101.5716925,56.40046966,1250.684527
10.7500,102.0980225,56.10528576,1250.381981
10.7550,102.6278831,55.81240047,1250.081195
10.7600,103.1623745,55.52046476,1249.781308
10.7650,103.7013256,55.22902562,1249.482305
10.7700,104.2441176,54.93820902,1249.184441
10.7750,104.7906398,54.64704574,1248.887475
10.7800,105.3401767,54.3541684,1248.591166
10.7850,105.8925209,54.05899289,1248.295472
10.7900,106.4469501,53.76011359,1248.000095
10.7950,107.003184,53.45762549,1247.705293
10.8000,107.5620121,53.14967403,1247.4101
10.8050,108.1219696,52.83651878,1247.115214
10.8100,108.6834999,52.51803838,1246.82038
10.8150,109.2462123,52.19271914,1246.525248
10.8200,109.8098951,51.86191116,1246.23033
10.8250,110.376575,51.52729019,1245.935559
10.8300,110.9455549,51.18897941,1245.641141
10.8350,111.5173147,50.8494484,1245.347768
10.8400,112.0926744,50.50856469,1245.055065
10.8450,112.671475,50.16670783,1244.763157
10.8500,113.253843,49.82367167,1244.471963
10.8550,113.8408644,49.48101779,1244.181557
10.8600,114.4328849,49.13859574,1243.891811
10.8650,115.0308816,48.79738801,1243.602713
10.8700,115.634505,48.45603382,1243.314009
10.8750,116.2431368,48.11417559,1243.025742
10.8800,116.8567011,47.77300801,1242.738514
10.8850,117.4740907,47.43184142,1242.45243
10.8900,118.0947484,47.0898158,1242.167484
10.8950,118.7183839,46.74646207,1241.883703
10.9000,119.3433633,46.40194137,1241.601669
10.9050,119.9686005,46.05572583,1241.321531
10.9100,120.5941204,45.7077831,1241.043298
10.9150,121.2189682,45.35794383,1240.767114
10.9200,121.842744,45.00797144,1240.493734
10.9250,122.4657052,44.65642354,1240.222587
10.9300,123.0866397,44.30424202,1239.954275
10.9350,123.705547,43.95159173,1239.688926
10.9400,124.3233573,43.60052193,1239.426758
10.9450,124.9408048,43.25059,1239.16743
10.9500,125.5568067,42.90275306,1238.911554
10.9550,126.1726048,42.55843733,1238.659199
10.9600,126.7855062,42.21721827,1238.411088
10.9650,127.3961776,41.87903927,1238.166877
10.9700,128.0042481,41.54494302,1237.927093
10.9750,128.6095713,41.21587741,1237.692077
10.9800,129.2121451,40.89089143,1237.461452
10.9850,129.8116597,40.57058216,1237.235571
10.9900,130.4085755,40.25424513,1237.013946
10.9950,131.00315,39.9421634,1236.796686
11.0000,131.5942715,39.63358646,1236.583794
11.0050,132.1816648,39.32803291,1236.37524
11.0100,132.7647519,39.02444654,1236.170706
11.0150,133.3425202,38.72273782,1235.970488
11.0200,133.9171992,38.42270023,1235.77384
11.0250,134.4886183,38.12385058,1235.580591
11.0300,135.0574839,37.828523,1235.391107
11.0350,135.6244825,37.53614435,1235.205112
11.0400,136.1892152,37.24620855,1235.022703
11.0450,136.7514267,36.95772164,1234.843628
11.0500,137.3102753,36.67095498,1234.668267
11.0550,137.865956,36.3840201,1234.496055
11.0600,138.4178526,36.09732292,1234.32736
11.0650,138.9650216,35.81013524,1234.162159
11.0700,139.5087357,35.52131106,1233.9999
11.0750,140.0473582,35.2299766,1233.840673
11.0800,140.5822532,34.9359494,1233.683973
11.0850,141.113393,34.63955046,1233.529776
11.0900,141.6401194,34.33963856,1233.377758
11.0950,142.1622879,34.03624644,1233.227863
11.1000,142.6796436,33.73012836,1233.080124
11.1050,143.1934708,33.42144225,1232.934174
11.1100,143.7040829,33.1092075,1232.789485
11.1150,144.2123945,32.796011,1232.646348
11.1200,144.7186548,32.4802786,1232.504051
11.1250,145.2232468,32.16167646,1232.362326
11.1300,145.7269183,31.84100056,1232.2212
11.1350,146.2301918,31.51983934,1232.080865
11.1400,146.7354138,31.19826421,1231.940752
11.1450,147.243716,30.87786922,1231.801065
11.1500,147.755828,30.5596155,1231.661886
11.1550,148.2742998,30.24418193,1231.522844
11.1600,148.7993549,29.93276436,1231.384183
11.1650,149.3320683,29.62610946,1231.245931
11.1700,149.8739225,29.32598941,1231.108322
11.1750,150.4259473,29.03180917,1230.971096
11.1800,150.9871603,28.7444431,1230.834901
11.1850,151.5588044,28.46443145,1230.699924
11.1900,152.1406212,28.19287338,1230.566686
11.1950,152.7324711,27.92912964,1230.435348
11.2000,153.3346427,27.6730355,1230.306013
11.2050,153.9459931,27.42445002,1230.179196
11.2100,154.5665024,27.18233023,1230.054737
11.2150,155.1957658,26.94492678,1229.932527
11.2200,155.8314427,26.71115216,1229.812827
11.2250,156.4733538,26.48072105,1229.695627
11.2300,157.1201065,26.25151967,1229.580765
11.2350,157.7708171,26.0225544,1229.467989
11.2400,158.4236278,25.7917162,1229.357168
11.2450,159.077529,25.55948205,1229.248426
11.2500,159.7308653,25.32480193,1229.141648
11.2550,160.3823015,25.08562533,1229.036405
11.2600,161.031552,24.84267717,1228.932772
11.2650,161.6775498,24.59502181,1228.83061
11.2700,162.3187743,24.34265574,1228.730072
11.2750,162.9550845,24.08450127,1228.63075
11.2800,163.5851463,23.82009959,1228.532698
11.2850,164.2085418,23.54826003,1228.435612
11.2900,164.8263668,23.27014048,1228.339416
11.2950,165.4380085,22.9847088,1228.243925
11.3000,166.043569,22.69197927,1228.149175
11.3050,166.643344,22.39230451,1228.055207
11.3100,167.2372716,22.08599928,1227.962244
11.3150,167.82494,21.77236787,1227.870189
11.3200,168.4050239,21.45137893,1227.779258
11.3250,168.9768955,21.12366532,1227.68988
11.3300,169.538517,20.78805426,1227.602339
11.3350,170.0898522,20.4444848,1227.516565
11.3400,170.6304903,20.09330182,1227.4326
11.3450,171.1605272,19.73545385,1227.350699
11.3500,171.6799119,19.3710409,1227.270883
11.3550,172.1886753,19.00198175,1227.193492
11.3600,172.6878948,18.62850677,1227.118159
11.3650,173.1785436,18.2512374,1227.044915
11.3700,173.6596367,17.87055442,1226.97369
11.3750,174.1310356,17.48687882,1226.904674
11.3800,174.592741,17.10107395,1226.837942
11.3850,175.0439721,16.71259481,1226.773427
11.3900,175.4858134,16.32268386,1226.711139
11.3950,175.9178725,15.93136098,1226.650971
11.4000,176.340574,15.5396857,1226.59295
11.4050,176.7527712,15.14686585,1226.537019
11.4100,177.1548999,14.75497153,1226.483323
11.4150,177.5472772,14.36394064,1226.431642
11.4200,177.9302565,13.97482407,1226.382159
11.4250,178.3034649,13.58986405,1226.335276
11.4300,178.6694984,13.20942424,1226.290488
11.4350,179.0284605,12.83433456,1226.247971
11.4400,179.3799186,12.46574512,1226.207936
11.4450,179.7253224,12.10434696,1226.170293
11.4500,180.0657078,11.75092478,1226.135047
11.4550,180.3991448,11.4057704,1226.102762
11.4600,180.7266337,11.06822951,1226.073214
11.4650,181.0474045,10.73923172,1226.046882
11.4700,181.3599078,10.41797858,1226.024035
11.4750,181.6636172,10.10569468,1226.005026
11.4800,181.9586132,9.80282214,1225.989822
11.4850,182.2448634,9.508598409,1225.978287
11.4900,182.5222554,9.223138104,1225.970445
11.4950,182.7889004,8.947722555,1225.966738
11.5000,183.0455368,8.680915279,1225.966785
11.5050,183.2912498,8.42308533,1225.97076
11.5100,183.5248406,8.174386299,1225.978897
11.5150,183.7453843,7.934649388,1225.991347
11.5200,183.9535483,7.70299889,1226.007725
11.5250,184.1489028,7.478974093,1226.028068
11.5300,184.3311039,7.263309423,1226.052417
11.5350,184.4995479,7.055512092,1226.080834
11.5400,184.6532162,6.855566725,1226.1135
11.5450,184.7906327,6.663723655,1226.15077
11.5500,184.9114217,6.480529619,1226.192893
11.5550,185.013437,6.305769655,1226.240309
11.5600,185.0966761,6.139801546,1226.293171
11.5650,185.1598857,5.983233524,1226.35186
11.5700,185.2039137,5.836049903,1226.416163
11.5750,185.2282386,5.698843829,1226.486421
11.5800,185.2330283,5.572419557,1226.562788
11.5850,185.2170979,5.457256219,1226.64562
11.5900,185.1798196,5.3527008,1226.735074
11.5950,185.1212116,5.258688639,1226.831165
11.6000,185.0420339,5.176366469,1226.933929
11.6050,184.941048,5.104289089,1227.04338
11.6100,184.8193149,5.043517992,1227.159437
11.6150,184.6772315,4.993992323,1227.281904
11.6200,184.5154581,4.95565698,1227.410661
11.6250,184.3355851,4.929498522,1227.545419
11.6300,184.1388288,4.914964377,1227.685751
11.6350,183.9262432,4.912226821,1227.831508
11.6400,183.7002354,4.920544493,1227.982115
11.6450,183.4621315,4.940305022,1228.137246
11.6500,183.2138649,4.969216017,1228.296157
11.6550,182.9586425,5.00657039,1228.457969
11.6600,182.6967421,5.05090837,1228.622423
11.6650,182.4301635,5.101469841,1228.788985
11.6700,182.1605482,5.156222414,1228.956925
11.6750,181.8908828,5.213723022,1229.125419
11.6800,181.6221805,5.272748864,1229.294042
11.6850,181.3557578,5.332585784,1229.462366
11.6900,181.0928929,5.392015394,1229.62993
11.6950,180.8349715,5.450901017,1229.79642
11.7000,180.5823219,5.507525321,1229.961585
11.7050,180.3371524,5.562660159,1230.125082
11.7100,180.0992398,5.614760799,1230.28675
11.7150,179.8686217,5.662422539,1230.446516
11.7200,179.6461044,5.705035209,1230.60407
11.7250,179.4318583,5.741004386,1230.759042
11.7300,179.2252106,5.768777535,1230.911325
11.7350,179.0254123,5.786834342,1231.060766
11.7400,178.8328549,5.795605712,1231.207446
11.7450,178.6466686,5.792769064,1231.351049
11.7500,178.4655914,5.778638661,1231.491818
11.7550,178.2880889,5.752594793,1231.629845
11.7600,178.1132876,5.7161539,1231.765426
11.7650,177.9398961,5.668302288,1231.898539
11.7700,177.7687476,5.609933694,1232.029076
11.7750,177.598693,5.54184415,1232.157398
11.7800,177.4288012,5.463260905,1232.283755
11.7850,177.256477,5.375285776,1232.408928
11.7900,177.0819295,5.277551898,1232.532969
11.7950,176.9051884,5.168783691,1232.655808
11.8000,176.7244568,5.049623153,1232.778016
11.8050,176.5403882,4.920616061,1232.899579
11.8100,176.3532272,4.781262974,1233.020416
11.8150,176.1637539,4.632260278,1233.140386
11.8200,175.9713839,4.474574923,1233.259922
11.8250,175.7753904,4.309266693,1233.379377
11.8300,175.5758671,4.136818456,1233.49894
11.8350,175.3732653,3.958776924,1233.618784
11.8400,175.1692582,3.777282945,1233.73892
11.8450,174.9652469,3.590792627,1233.858723
11.8500,174.7616352,3.40088291,1233.97834
11.8550,174.5607934,3.209983736,1234.097458
11.8600,174.3636444,3.017483903,1234.215611
11.8650,174.1717746,2.823911059,1234.332462
11.8700,173.984571,2.629721785,1234.448309
11.8750,173.8029147,2.434584079,1234.562774
11.8800,173.6273844,2.239620127,1234.675644
11.8850,173.4590983,2.045364181,1234.786716
11.8900,173.2977653,1.850184245,1234.895662
11.8950,173.1445823,1.656063897,1235.002247
11.9000,172.9989291,1.462171755,1235.106342
11.9050,172.8613111,1.268805074,1235.207749
11.9100,172.7312455,1.075038738,1235.306275
11.9150,172.6108348,0.8808074725,1235.401418
11.9200,172.4993136,0.6850087872,1235.493124
11.9250,172.3958413,0.4875256352,1235.581555
11.9300,172.3013515,0.288390425,1235.666518
11.9350,172.2156499,0.08702283931,1235.74787
11.9400,172.1382437,-0.117170184,1235.8255
11.9450,172.0701846,-0.3245427702,1235.89918
11.9500,172.0113161,-0.5341226236,1235.969055
11.9550,171.962372,-0.7467200372,1236.034926
11.9600,171.9227538,-0.9618452121,1236.096996
11.9650,171.8919,-1.180019128,1236.155315
11.9700,171.8689469,-1.401702398,1236.210182
11.9750,171.8528042,-1.626882654,1236.261763
11.9800,171.8425427,-1.855933799,1236.310306
11.9850,171.8371092,-2.088812968,1236.356178
11.9900,171.8366161,-2.325631846,1236.399317
11.9950,171.8402593,-2.568173789,1236.439759
12.0000,171.847362,-2.815476703,1236.477816
12.0050,171.8576113,-3.068132748,1236.513501
12.0100,171.8705341,-3.326672308,1236.546966
12.0150,171.8865397,-3.591408426,1236.577999
12.0200,171.9038711,-3.86149973,1236.607112
12.0250,171.9234534,-4.137091403,1236.63421
12.0300,171.9442964,-4.417665083,1236.659522
12.0350,171.9678728,-4.702248035,1236.682947
12.0400,171.993323,-4.991790623,1236.70454
12.0450,172.019793,-5.284168618,1236.724775
12.0500,172.0482611,-5.580475225,1236.743463
12.0550,172.079323,-5.879332577,1236.760667
12.0600,172.1131231,-6.180971432,1236.776433
12.0650,172.1494965,-6.484564283,1236.79109
12.0700,172.1870249,-6.789951046,1236.805012
12.0750,172.2261241,-7.097335953,1236.818249
12.0800,172.2664349,-7.406456548,1236.830855
12.0850,172.309611,-7.716822905,1236.842592
12.0900,172.3537229,-8.0280241,1236.8539
12.0950,172.3989697,-8.339286706,1236.864893
12.1000,172.4456087,-8.65052832,1236.875531
12.1050,172.4923398,-8.962410712,1236.88614
12.1100,172.5386616,-9.273385998,1236.896962
12.1150,172.5840221,-9.583061606,1236.908222
12.1200,172.6289477,-9.891868133,1236.919769
12.1250,172.6745197,-10.19968393,1236.93134
12.1300,172.7201068,-10.50654834,1236.943046
12.1350,172.7663723,-10.81241614,1236.954758
12.1400,172.8129051,-11.11830703,1236.96642
12.1450,172.8593204,-11.42227119,1236.978436
12.1500,172.9065738,-11.72458792,1236.990578
12.1550,172.9549913,-12.02615766,1237.002762
12.1600,173.0044885,-12.32693498,1237.014986
12.1650,173.0552496,-12.62580624,1237.027444
12.1700,173.1077043,-12.92311051,1237.039936
12.1750,173.1615246,-13.21875151,1237.052515
12.1800,173.2168981,-13.5132743,1237.065353
12.1850,173.2738657,-13.80651658,1237.078449
12.1900,173.3323865,-14.09642581,1237.091945
12.1950,173.3909553,-14.38424305,1237.106302
12.2000,173.4501827,-14.66983599,1237.12138
12.2050,173.5109511,-14.9530925,1237.137097
12.2100,173.5730562,-15.23259842,1237.153646
12.2150,173.6353291,-15.508664,1237.171287
12.2200,173.698332,-15.78079407,1237.189947
12.2250,173.7624694,-16.04905427,1237.209445
12.2300,173.8269368,-16.31472486,1237.229798
12.2350,173.893278,-16.57772904,1237.250565
12.2400,173.9616832,-16.83727393,1237.271817
12.2450,174.0324172,-17.09408455,1237.29324
12.2500,174.1069056,-17.34863819,1237.314298
12.2550,174.1844309,-17.60132365,1237.334959
12.2600,174.2669286,-17.85209518,1237.35466
12.2650,174.3549834,-18.10211147,1237.372916
12.2700,174.4508994,-18.35077976,1237.389031
12.2750,174.5573648,-18.59792531,1237.402354
12.2800,174.674099,-18.84381113,1237.412843
12.2850,174.80245,-19.0888341,1237.420056
12.2900,174.9421989,-19.33210081,1237.424082
12.2950,175.0933165,-19.5740554,1237.4249
12.3000,175.2559742,-19.81509411,1237.422283
12.3050,175.4293656,-20.05511976,1237.416415
12.3100,175.6122678,-20.29458037,1237.407634
12.3150,175.8035479,-20.53277407,1237.396127
12.3200,176.0026247,-20.76993278,1237.38219
12.3250,176.2077559,-21.00588827,1237.366102
12.3300,176.419664,-21.23919938,1237.34795
12.3350,176.6362766,-21.4718262,1237.328005
12.3400,176.8566774,-21.70264509,1237.306586
12.3450,177.0806876,-21.93202379,1237.283757
12.3500,177.306167,-22.15970865,1237.259895
12.3550,177.532628,-22.38538393,1237.235209
12.3600,177.7589003,-22.61032561,1237.209822
12.3650,177.9843132,-22.83448493,1237.183796
12.3700,178.2086134,-23.05830336,1237.157192
12.3750,178.4310245,-23.28182978,1237.130048
12.3800,178.6518982,-23.50504083,1237.102268
12.3850,178.8706956,-23.73001184,1237.073695
12.3900,179.0881621,-23.95571323,1237.044371
12.3950,179.3050738,-24.18360775,1237.013848
12.4000,179.5197029,-24.41348945,1236.982573
12.4050,179.7340465,-24.64608273,1236.949955
12.4100,179.9474262,-24.88248617,1236.91622
12.4150,180.1596443,-25.12318985,1236.881285
12.4200,180.370407,-25.36867162,1236.84526
12.4250,180.5787378,-25.61944662,1236.80829
12.4300,180.7830824,-25.8750943,1236.770851
12.4350,180.982234,-26.13659223,1236.733245
12.4400,181.1753396,-26.40328431,1236.695727
12.4450,181.3618263,-26.67597308,1236.658457
12.4500,181.5408081,-26.95383249,1236.621725
12.4550,181.710925,-27.23712987,1236.585795
12.4600,181.8725545,-27.52419519,1236.550848
12.4650,182.0243979,-27.81508196,1236.51717
12.4700,182.166241,-28.10856515,1236.485041
12.4750,182.2982732,-28.40385759,1236.454519
12.4800,182.4196792,-28.70069475,1236.425816
12.4850,182.5297135,-28.99880175,1236.399229
12.4900,182.6286319,-29.2987535,1236.374805
12.4950,182.7161899,-29.59910009,1236.352746
12.5000,182.7924065,-29.89996705,1236.333098
12.5050,182.8571574,-30.19995419,1236.315925
12.5100,182.9115125,-30.49951105,1236.301118
12.5150,182.9555069,-30.79772485,1236.288737
12.5200,182.9912688,-31.09242292,1236.278458
12.5250,183.0193865,-31.38371957,1236.270281
12.5300,183.0414513,-31.67044954,1236.263819
12.5350,183.0575357,-31.95174083,1236.259199
12.5400,183.0689507,-32.22651189,1236.256249
12.5450,183.0764777,-32.49412186,1236.254773
12.5500,183.0809422,-32.7529732,1236.254746
12.5550,183.0835039,-33.00230836,1236.255979
12.5600,183.0846079,-33.24195943,1236.258398
12.5650,183.0863322,-33.46951221,1236.261701
12.5700,183.0884967,-33.68530628,1236.265936
12.5750,183.089475,-33.88831287,1236.271483
12.5800,183.0905834,-34.07909002,1236.277945
12.5850,183.0920091,-34.25632838,1236.28531
12.5900,183.0940589,-34.41973333,1236.293503
12.5950,183.0978929,-34.56792025,1236.302333
12.6000,183.103019,-34.7007631,1236.311952
12.6050,183.1102306,-34.81752933,1236.322275
12.6100,183.119694,-34.9170972,1236.333217
12.6150,183.1310896,-34.99954398,1236.344998
12.6200,183.1452823,-35.06383116,1236.357327
12.6250,183.1620671,-35.11020472,1236.370348
12.6300,183.179968,-35.13957849,1236.384316
12.6350,183.1984477,-35.15035651,1236.399369
12.6400,183.2185035,-35.14380499,1236.41521
12.6450,183.2386013,-35.11904299,1236.432215
12.6500,183.2592258,-35.0756648,1236.450333
12.6550,183.2799134,-35.01584633,1236.469426
12.6600,183.3005306,-34.93848804,1236.489638
12.6650,183.3212308,-34.84501937,1236.510797
12.6700,183.3425094,-34.73600924,1236.532708
12.6750,183.3647172,-34.61224012,1236.555159
12.6800,183.3880149,-34.47560574,1236.57799
12.6850,183.4126938,-34.325662,1236.601044
12.6900,183.4382489,-34.16614058,1236.624114
12.6950,183.4640136,-33.99741415,1236.647189
12.7000,183.4923725,-33.82197034,1236.669602
12.7050,183.5217198,-33.64090029,1236.691642
12.7100,183.5529196,-33.4558917,1236.712833
12.7150,183.5872367,-33.26953962,1236.732895
12.7200,183.6231929,-33.08269578,1236.751949
12.7250,183.6615004,-32.89783183,1236.769745
12.7300,183.7028891,-32.71524114,1236.786003
12.7350,183.7461826,-32.53635746,1236.800878
12.7400,183.7909231,-32.36234401,1236.814395
12.7450,183.8355755,-32.19391204,1236.826832
12.7500,183.8794414,-32.03250415,1236.838278
12.7550,183.921187,-31.87796828,1236.849098
12.7600,183.9596986,-31.73259441,1236.859332
12.7650,183.9938536,-31.59602056,1236.869238
12.7700,184.0225017,-31.46941554,1236.879049
12.7750,184.0438762,-31.35295638,1236.889093
12.7800,184.0579608,-31.24654493,1236.899342
12.7850,184.062812,-31.15045824,1236.910183
12.7900,184.0585377,-31.06366826,1236.921619
12.7950,184.0449997,-30.98778861,1236.933484
12.8000,184.0222834,-30.92196933,1236.945874
12.8050,183.9909432,-30.86684518,1236.958476
12.8100,183.9507882,-30.82327303,1236.971286
12.8150,183.901419,-30.79167797,1236.984279
12.8200,183.8421364,-30.77308361,1236.997461
12.8250,183.7737572,-30.7682697,1237.010467
12.8300,183.6974988,-30.7765947,1237.023247
12.8350,183.6143856,-30.79876491,1237.035378
12.8400,183.525158,-30.83599982,1237.04652
12.8450,183.4311942,-30.88782735,1237.056503
12.8500,183.333174,-30.95524115,1237.065149
12.8550,183.2321513,-31.03701655,1237.072294
12.8600,183.1298999,-31.13268724,1237.077609
12.8650,183.0257778,-31.24195149,1237.081334
12.8700,182.9208282,-31.36408198,1237.083366
12.8750,182.8174157,-31.49804386,1237.083315
12.8800,182.7154947,-31.64101608,1237.081429
12.8850,182.616858,-31.7918215,1237.077551
12.8900,182.5219745,-31.95035602,1237.071701
12.8950,182.4308028,-32.11398472,1237.06414
12.9000,182.3455581,-32.28071865,1237.054608
12.9050,182.2658673,-32.44983867,1237.043217
12.9100,182.1930768,-32.61942062,1237.029861
12.9150,182.127509,-32.78765414,1237.014607
12.9200,182.0699145,-32.95421227,1236.997398
12.9250,182.020903,-33.11630767,1236.978262
12.9300,181.9803474,-33.27287766,1236.957242
12.9350,181.9487765,-33.42281126,1236.934334
12.9400,181.9252112,-33.56480417,1236.909762
12.9450,181.9106443,-33.69944755,1236.883303
12.9500,181.9050437,-33.82545323,1236.854923
12.9550,181.9075405,-33.94191836,1236.824919
12.9600,181.9182579,-34.04934375,1236.793179
12.9650,181.9358266,-34.1475662,1236.759902
12.9700,181.9594264,-34.23499095,1236.725332
12.9750,181.9880889,-34.31314812,1236.689609
12.9800,182.0204359,-34.38127369,1236.652987
12.9850,182.0558726,-34.43959122,1236.615639
12.9900,182.0922155,-34.4881705,1236.577835
12.9950,182.130429,-34.5267363,1236.539583
13.0000,182.1679894,-34.555586,1236.501246
13.0050,182.2047308,-34.57521226,1236.462835
13.0100,182.2383851,-34.58655299,1236.424722
13.0150,182.2681702,-34.58936141,1236.38701
13.0200,182.2936285,-34.58442182,1236.349675
13.0250,182.3143231,-34.57103907,1236.312744
13.0300,182.3303386,-34.55149052,1236.276068
13.0350,182.341775,-34.5265738,1236.239477
13.0400,182.3487665,-34.49563112,1236.202976
13.0450,182.35227,-34.4593212,1236.166122
13.0500,182.3521654,-34.41795895,1236.128939
13.0550,182.3498301,-34.37218106,1236.090912
13.0600,182.3438038,-34.3219266,1236.052361
13.0650,182.335281,-34.2692756,1236.012962
13.0700,182.3243882,-34.2138026,1235.972508
13.0750,182.3122541,-34.1553985,1235.930804
13.0800,182.2979283,-34.09573008,1235.888031
13.0850,182.2834944,-34.03387344,1235.843585
13.0900,182.2682477,-33.97124617,1235.797524
13.0950,182.2521311,-33.90759447,1235.749944
13.1000,182.2358611,-33.84393938,1235.700495
13.1050,182.2186798,-33.78000602,1235.649481
13.1100,182.1994513,-33.71593591,1235.597045
13.1150,182.1796385,-33.65194532,1235.542864
13.1200,182.158838,-33.5884955,1235.487055
13.1250,182.1371112,-33.52491495,1235.42973
13.1300,182.11274,-33.46226114,1235.37105
13.1350,182.0857027,-33.39933682,1235.311142
13.1400,182.0554152,-33.33599614,1235.250295
13.1450,182.0220899,-33.27194148,1235.188472
13.1500,181.9851198,-33.20690752,1235.125841
13.1550,181.9433298,-33.14067178,1235.062797
13.1600,181.8959271,-33.07387692,1234.999474
13.1650,181.843039,-33.00598657,1234.935959
13.1700,181.7834712,-32.93615327,1234.872581
13.1750,181.7166344,-32.86444166,1234.809491
13.1800,181.6438133,-32.79060232,1234.746553
13.1850,181.5632055,-32.71537256,1234.68411
13.1900,181.4744838,-32.63722943,1234.622319
13.1950,181.3787235,-32.55651499,1234.561
13.2000,181.2750368,-32.47294253,1234.500356
13.2050,181.164355,-32.38654118,1234.4403
13.2100,181.0463868,-32.29750312,1234.380915
13.2150,180.9221208,-32.20495968,1234.322127
13.2200,180.7909823,-32.10779577,1234.264077
13.2250,180.6533657,-32.00785344,1234.206673
13.2300,180.5093713,-31.90452912,1234.14991
13.2350,180.3598399,-31.79822672,1234.093564
13.2400,180.2042925,-31.68860567,1234.037881
13.2450,180.0428765,-31.57422028,1233.982822
13.2500,179.8761747,-31.45518227,1233.928382
13.2550,179.7053637,-31.33201412,1233.874277
13.2600,179.5298249,-31.20403369,1233.820624
13.2650,179.3518568,-31.07074758,1233.767075
13.2700,179.1712992,-30.93406037,1233.713453
13.2750,178.9882559,-30.79389611,1233.659838
13.2800,178.8034601,-30.65015865,1233.60607
13.2850,178.6167973,-30.50445462,1233.551987
13.2900,178.4302403,-30.35711541,1233.497183
13.2950,178.2426824,-30.20951956,1233.441697
13.3000,178.0569519,-30.06093041,1233.384946
13.3050,177.8720988,-29.91220781,1233.327026
13.3100,177.6895632,-29.76231978,1233.267662
13.3150,177.5117397,-29.61201629,1233.206273
13.3200,177.339099,-29.46228025,1233.142744
13.3250,177.1708434,-29.31269166,1233.077223
13.3300,177.0075877,-29.16299449,1233.009574
13.3350,176.8494171,-29.01289312,1232.939854
13.3400,176.6969632,-28.86239847,1232.867933
13.3450,176.5512798,-28.71231396,1232.793552
13.3500,176.4116954,-28.56209719,1232.716825
13.3550,176.2775954,-28.41207994,1232.63802
13.3600,176.1496016,-28.26125295,1232.557013
13.3650,176.0264096,-28.10935446,1232.474189
13.3700,175.9077203,-27.95637875,1232.389712
13.3750,175.7922535,-27.80194107,1232.303939
13.3800,175.6802527,-27.64584272,1232.21683
13.3850,175.5712394,-27.48748368,1232.128662
13.3900,175.4660552,-27.32610766,1232.039431
13.3950,175.3652939,-27.16043141,1231.948947
13.4000,175.2663341,-26.98988644,1231.858046
13.4050,175.1697511,-26.81534043,1231.766453
13.4100,175.0760564,-26.63468057,1231.674349
13.4150,174.9844219,-26.44762641,1231.582011
13.4200,174.8961204,-26.2529577,1231.489164
13.4250,174.8108203,-26.05129114,1231.395896
13.4300,174.7286999,-25.84218624,1231.302232
13.4350,174.6494402,-25.62628011,1231.208236
13.4400,174.5729583,-25.40314298,1231.113897
13.4450,174.49859,-25.17258732,1231.019454
13.4500,174.4263449,-24.93322806,1230.924921
13.4550,174.3559804,-24.68645774,1230.830244
13.4600,174.2871436,-24.43172517,1230.735648
13.4650,174.2196055,-24.16956709,1230.641108
13.4700,174.1533267,-23.89908859,1230.546806
13.4750,174.0866649,-23.6207448,1230.453087
13.4800,174.0181718,-23.3346229,1230.360312
13.4850,173.948581,-23.04095118,1230.268373
13.4900,173.8766792,-22.73990303,1230.177708
13.4950,173.8005634,-22.43233307,1230.088613
13.5000,173.7200627,-22.11880847,1230.001329
13.5050,173.6335053,-21.79914252,1229.916295
13.5100,173.5410729,-21.47381545,1229.833476
13.5150,173.4411628,-21.14307866,1229.753313
13.5200,173.335128,-20.80762718,1229.675533
13.5250,173.2208748,-20.46823439,1229.600502
13.5300,173.1000779,-20.12392411,1229.528023
13.5350,172.9714191,-19.77576726,1229.458333
13.5400,172.8361652,-19.42375745,1229.39113
13.5450,172.6944325,-19.06913295,1229.32636
13.5500,172.5462941,-18.71207542,1229.263918
13.5550,172.3920656,-18.35214687,1229.203771
13.5600,172.2324455,-17.98989639,1229.145774
13.5650,172.0653446,-17.62529878,1229.090356
13.5700,171.8924186,-17.25864721,1229.0372
13.5750,171.7133492,-16.88953244,1228.986396
13.5800,171.5281051,-16.51886171,1228.937885
13.5850,171.3368084,-16.14602891,1228.891781
13.5900,171.1404425,-15.77013704,1228.847998
13.5950,170.9389824,-15.39044575,1228.806716
13.6000,170.7314006,-15.0083956,1228.768027
13.6050,170.5193864,-14.62280741,1228.731701
13.6100,170.3025431,-14.23492968,1228.69765
13.6150,170.0803439,-13.8439884,1228.666119
13.6200,169.853174,-13.44899594,1228.637056
13.6250,169.6213503,-13.05064438,1228.610491
13.6300,169.3852763,-12.64847811,1228.586433
13.6350,169.1460037,-12.24146685,1228.564694
13.6400,168.9040531,-11.83133379,1228.544919
13.6450,168.6587742,-11.41694273,1228.527507
13.6500,168.4113071,-10.99842034,1228.512074
13.6550,168.1633967,-10.57582071,1228.498206
13.6600,167.9138244,-10.14988045,1228.486144
13.6650,167.6643976,-9.720149025,1228.475368
13.6700,167.4163696,-9.286477492,1228.46558
13.6750,167.1705428,-8.849250053,1228.456572
13.6800,166.9279187,-8.407354572,1228.448281
13.6850,166.6878165,-7.961062518,1228.44091
13.6900,166.4497277,-7.510076117,1228.434587
13.6950,166.2133729,-7.055686181,1228.429284
13.7000,165.9808001,-6.596605726,1228.424676
13.7050,165.7507967,-6.133374105,1228.421122
13.7100,165.5243878,-5.667533454,1228.418056
13.7150,165.3002387,-5.199648678,1228.41581
13.7200,165.0776046,-4.730615317,1228.414485
13.7250,164.8564719,-4.260811115,1228.414053
13.7300,164.6370767,-3.789808679,1228.414513
13.7350,164.4179858,-3.319247191,1228.415929
13.7400,164.1996683,-2.848735372,1228.418275
13.7450,163.9819772,-2.379513947,1228.421469
13.7500,163.7641595,-1.912039129,1228.425633
13.7550,163.5460582,-1.446040018,1228.430896
13.7600,163.3275952,-0.9811796242,1228.437333
13.7650,163.1078904,-0.5178857084,1228.445077
13.7700,162.8859295,-0.05760000384,1228.454142
13.7750,162.6624209,0.3996105566,1228.464415
13.7800,162.4365767,0.8534071302,1228.475987
13.7850,162.2079688,1.302954545,1228.488899
13.7900,161.9773741,1.748839729,1228.503014
13.7950,161.7461591,2.191701812,1228.518138
13.8000,161.5139391,2.631028228,1228.534186
