type,name,time_units,begin_time,frequency,count,units
signal_3d,"Noraxon MyoMotion-Trajectories-Ulnar styloid process RT","s",0.0000,200,5068,"mm"

time,x,y,z
0.0000,146.8035034,66.46595976,993.9930668
0.0050,146.8173315,66.43705236,993.9841408
0.0100,146.8311626,66.4081456,993.9752165
0.0150,146.8449966,66.37923947,993.9662942
0.0200,146.8602491,66.34667176,993.9563574
0.0250,146.8768642,66.31038573,993.9454118
0.0300,146.8947513,66.27039034,993.9334809
0.0350,146.9137866,66.22676224,993.9206068
0.0400,146.9338111,66.17963219,993.9068471
0.0450,146.9546304,66.12916966,993.8922731
0.0500,146.9760198,66.07557825,993.8769681
0.0550,146.9977337,66.01909838,993.8610267
0.0600,147.0195149,65.96000895,993.8445533
0.0650,147.0411038,65.89862804,993.8276606
0.0700,147.0622442,65.83531501,993.8104688
0.0750,147.0826893,65.7704709,993.7931042
0.0800,147.1022032,65.70453185,993.7756976
0.0850,147.1205612,65.63795314,993.7583811
0.0900,147.1375516,65.57118729,993.7412837
0.0950,147.1529817,65.50466513,993.7245256
0.1000,147.1666856,65.43878767,993.7082158
0.1050,147.1785274,65.37392767,993.6924511
0.1100,147.1884025,65.31043752,993.6773175
0.1150,147.1962372,65.24865882,993.662893
0.1200,147.2019875,65.18892601,993.6492483
0.1250,147.2056317,65.13156205,993.6364482
0.1300,147.2071593,65.07687085,993.6245517
0.1350,147.2065643,65.02513096,993.6136127
0.1400,147.2038431,64.97659067,993.6036795
0.1450,147.1989936,64.93146244,993.5947929
0.1500,147.1920211,64.88991614,993.5869838
0.1550,147.1909772,64.81398125,993.5708936
0.1600,147.1890875,64.74220595,993.5559136
0.1650,147.1858949,64.67516843,993.5422842
0.1700,147.1811357,64.61324896,993.5300031
0.1750,147.1754326,64.55498328,993.5187077
0.1800,147.1683761,64.50121378,993.5085483
0.1850,147.1604188,64.45257509,993.4995757
0.1900,147.1527651,64.40951433,993.4917096
0.1950,147.1440451,64.37035542,993.4847919
0.2000,147.1348305,64.33488956,993.4787649
0.2050,147.1248022,64.30482238,993.4739769
0.2100,147.1145576,64.27887981,993.4701246
0.2150,147.1042454,64.25640413,993.4670902
0.2200,147.0951191,64.23795771,993.4647392
0.2250,147.0880006,64.22304863,993.4629072
0.2300,147.08205,64.21195614,993.4617498
0.2350,147.0776103,64.20533905,993.4612876
0.2400,147.0752763,64.20168795,993.4612479
0.2450,147.0743343,64.20059868,993.4616246
0.2500,147.075279,64.20146057,993.4621742
0.2550,147.0791478,64.2038995,993.4627289
0.2600,147.0864584,64.20669034,993.4629296
0.2650,147.0967158,64.21179234,993.4632178
0.2700,147.1105531,64.21813409,993.4633386
0.2750,147.1284127,64.22711529,993.4634994
0.2800,147.1497894,64.23826175,993.4636269
0.2850,147.1741122,64.25184778,993.463868
0.2900,147.2012179,64.26627947,993.4639778
0.2950,147.2310887,64.28235421,993.4640544
0.3000,147.2629093,64.30098153,993.4644634
0.3050,147.2956665,64.32015896,993.4648015
0.3100,147.3306037,64.34083387,993.4651836
0.3150,147.3673347,64.36238215,993.4654665
0.3200,147.4056678,64.38380572,993.46531
0.3250,147.4449283,64.40530021,993.4649736
0.3300,147.486375,64.42661022,993.4642859
0.3350,147.5288824,64.44563187,993.4628632
0.3400,147.5720606,64.4633802,993.4609312
0.3450,147.6165243,64.47998251,993.458546
0.3500,147.6620329,64.49523854,993.4555674
0.3550,147.7088364,64.50874598,993.4519366
0.3600,147.7573317,64.51946278,993.4473194
0.3650,147.8058597,64.5279432,993.4421267
0.3700,147.8554476,64.53316478,993.4359416
0.3750,147.9066122,64.53530427,993.4287797
0.3800,147.9578558,64.53385501,993.4207022
0.3850,148.0098092,64.52821962,993.4115366
0.3900,148.0617376,64.51787551,993.4012486
0.3950,148.1148416,64.50433297,993.3899779
0.4000,148.1695731,64.48676492,993.3776309
0.4050,148.225176,64.46587597,993.3644593
0.4100,148.2812279,64.44213846,993.3505841
0.4150,148.3377056,64.41582453,993.336154
0.4200,148.3939498,64.38687213,993.3212281
0.4250,148.4483123,64.35557839,993.306106
0.4300,148.5032405,64.32183883,993.2904204
0.4350,148.5583274,64.28527435,993.2741716
0.4400,148.6137286,64.24736677,993.2577055
0.4450,148.6694474,64.20797229,993.2408716
0.4500,148.7241237,64.16720753,993.2240198
0.4550,148.7786109,64.12510017,993.2069471
0.4600,148.8330103,64.08180058,993.1896549
0.4650,148.887723,64.03787154,993.1721424
0.4700,148.9431617,63.99326394,993.1544646
0.4750,148.9979187,63.94770045,993.1366785
0.4800,149.0531958,63.90148278,993.1187562
0.4850,149.1078409,63.85546676,993.1009492
0.4900,149.162576,63.80815852,993.0829016
0.4950,149.2163355,63.76110102,993.0649811
0.5000,149.2698302,63.71382018,993.0470348
0.5050,149.3238295,63.66472317,993.028627
0.5100,149.3769457,63.61543063,993.0102127
0.5150,149.4296242,63.56564893,992.9917316
0.5200,149.4808403,63.51421671,992.9730889
0.5250,149.5307871,63.46194995,992.9543791
0.5300,149.5800743,63.40858181,992.935478
0.5350,149.6281743,63.35363458,992.9164279
0.5400,149.6757529,63.29789978,992.8973223
0.5450,149.7217882,63.2397168,992.8779225
0.5500,149.7674595,63.18047074,992.8583704
0.5550,149.8126323,63.12004794,992.8385966
0.5600,149.8561083,63.05802622,992.8188003
0.5650,149.8991618,62.99465142,992.7988314
0.5700,149.9413406,62.92891417,992.7785307
0.5750,149.9827731,62.86112262,992.7579096
0.5800,150.0240909,62.79097405,992.7368513
0.5850,150.0646211,62.71799564,992.7153871
0.5900,150.1057175,62.64464475,992.6937716
0.5950,150.1463609,62.56903215,992.671779
0.6000,150.1869363,62.49051526,992.6492347
0.6050,150.2270331,62.41154578,992.6267
0.6100,150.2677525,62.33137483,992.6037122
0.6150,150.3082577,62.25047064,992.5806514
0.6200,150.3492988,62.16892146,992.5575057
0.6250,150.3901538,62.08713354,992.534315
0.6300,150.429706,62.00455122,992.5110367
0.6350,150.4695642,61.92356255,992.4880741
0.6400,150.5100777,61.84426575,992.4653752
0.6450,150.5494627,61.76470768,992.4427204
0.6500,150.5889852,61.68555926,992.4201787
0.6550,150.6277095,61.608591,992.3981649
0.6600,150.6654344,61.53275524,992.3765201
0.6650,150.7024687,61.45787999,992.3552117
0.6700,150.7376599,61.38451642,992.3344597
0.6750,150.7719167,61.31249959,992.3141632
0.6800,150.8051892,61.24162477,992.2941819
0.6850,150.8379202,61.17450719,992.2750855
0.6900,150.8707736,61.10849068,992.256227
0.6950,150.9013454,61.0431049,992.2377869
0.7000,150.9308903,60.98060004,992.2201333
0.7050,150.9593668,60.9202041,992.2030429
0.7100,150.9852752,60.8607672,992.1865237
0.7150,151.0101477,60.80381914,992.1706269
0.7200,151.0344683,60.74826763,992.1551209
0.7250,151.058044,60.69470136,992.140151
0.7300,151.079969,60.6436679,992.1259317
0.7350,151.1007154,60.59522801,992.1124323
0.7400,151.1198116,60.5480982,992.0994967
0.7450,151.1368966,60.50226155,992.0871144
0.7500,151.1529061,60.45817679,992.0752995
0.7550,151.1669204,60.4153049,992.0640268
0.7600,151.1794517,60.37519195,992.0535436
0.7650,151.1908826,60.33727027,992.0437077
0.7700,151.2015959,60.29911791,992.0339124
0.7750,151.2113874,60.26382448,992.0248856
0.7800,151.219463,60.2295752,992.0162741
0.7850,151.2267299,60.19703493,992.0081558
0.7900,151.2332021,60.16589643,992.0004469
0.7950,151.2389759,60.1352765,991.9929526
0.8000,151.2448814,60.10574445,991.9856664
0.8050,151.2489663,60.07769238,991.9789486
0.8100,151.2523415,60.05099055,991.9726225
0.8150,151.2555972,60.02572907,991.9665666
0.8200,151.2569726,60.00154807,991.9609647
0.8250,151.2576665,59.97803294,991.9556135
0.8300,151.2566049,59.95534209,991.9506919
0.8350,151.2542891,59.93288912,991.9460341
0.8400,151.2503012,59.91225007,991.9419396
0.8450,151.2464717,59.89317218,991.938226
0.8500,151.2416942,59.87526014,991.9349177
0.8550,151.2357411,59.8589639,991.9321781
0.8600,151.2293669,59.84379035,991.9296755
0.8650,151.2215769,59.82928165,991.9275498
0.8700,151.2132269,59.81707542,991.925935
0.8750,151.2049885,59.80613488,991.9245827
0.8800,151.1970178,59.7969863,991.923546
0.8850,151.1896656,59.789675,991.9227867
0.8900,151.1822193,59.78312134,991.9222139
0.8950,151.1753961,59.7788154,991.9220233
0.9000,151.1701447,59.77598157,991.921863
0.9050,151.166575,59.77307693,991.9214876
0.9100,151.1635733,59.77172059,991.9214374
0.9150,151.1614709,59.7710265,991.9213499
0.9200,151.1603664,59.77198442,991.9213554
0.9250,151.1602288,59.7735436,991.9213705
0.9300,151.1622581,59.77647364,991.9213306
0.9350,151.1649087,59.77980012,991.921217
0.9400,151.168293,59.7834806,991.9210175
0.9450,151.1729121,59.78859374,991.9209028
0.9500,151.1766563,59.79521254,991.9211748
0.9550,151.1806266,59.80163514,991.9213313
0.9600,151.1851941,59.80856923,991.9215346
0.9650,151.1893412,59.81691429,991.9219574
0.9700,151.1939428,59.82561309,991.9223282
0.9750,151.1973999,59.83484824,991.9229819
0.9800,151.1994141,59.84506358,991.9240129
0.9850,151.2010194,59.85472848,991.9249802
0.9900,151.1999968,59.86574367,991.9265806
0.9950,151.1978695,59.8784832,991.9287317
1.0000,151.1943208,59.89119073,991.9311013
1.0050,151.189374,59.90418207,991.9337121
1.0100,151.1835172,59.91853907,991.9367573
1.0150,151.1759454,59.9331994,991.9400986
1.0200,151.1660642,59.94992078,991.9441958
1.0250,151.1543384,59.96691082,991.9486222
1.0300,151.1408889,59.98453918,991.9534708
1.0350,151.1261314,60.00325126,991.9587547
1.0400,151.1089357,60.02273411,991.9645266
1.0450,151.0904967,60.04261873,991.970667
1.0500,151.0712682,60.06353903,991.9771644
1.0550,151.0509123,60.08596883,991.9841874
1.0600,151.0282485,60.10773581,991.9914087
1.0650,151.0024774,60.12866754,991.9988756
1.0700,150.9744799,60.1511991,992.007039
1.0750,150.9440893,60.17467322,992.0157369
1.0800,150.9116077,60.19845116,992.0249055
1.0850,150.8771905,60.22150351,992.034159
1.0900,150.8395059,60.24484276,992.0439838
1.0950,150.8005722,60.26830873,992.0540061
1.1000,150.7598635,60.29120555,992.0642447
1.1050,150.7174928,60.31398598,992.0746801
1.1100,150.6742015,60.3350942,992.0849107
1.1150,150.6284102,60.35465798,992.0952618
1.1200,150.5827032,60.37332603,992.1054312
1.1250,150.5352046,60.39121094,992.1157641
1.1300,150.4877397,60.40879207,992.1260801
1.1350,150.4404945,60.42668562,992.1363771
1.1400,150.3930672,60.44386766,992.1466078
1.1450,150.3452161,60.46093581,992.1568215
1.1500,150.2969794,60.4775641,992.1670377
1.1550,150.2488152,60.49401582,992.1773262
1.1600,150.2011332,60.51101603,992.1876899
1.1650,150.1550771,60.5277344,992.1977878
1.1700,150.1097647,60.5443027,992.2078397
1.1750,150.0647178,60.56049029,992.2178314
1.1800,150.0202372,60.57552871,992.2275004
1.1850,149.9764771,60.58954929,992.236847
1.1900,149.9355779,60.60373894,992.245798
1.1950,149.8950803,60.6158711,992.2543077
1.2000,149.8557773,60.62771867,992.2625702
1.2050,149.8177496,60.63967144,992.27055
1.2100,149.7797987,60.65132723,992.2783561
1.2150,149.7424765,60.66319376,992.2859909
1.2200,149.7051249,60.67333691,992.2932018
1.2250,149.6686318,60.68278478,992.3001014
1.2300,149.6307619,60.69119407,992.3069607
1.2350,149.5933317,60.69958676,992.3137634
1.2400,149.5549846,60.7068993,992.3204526
1.2450,149.5164913,60.71320461,992.3270129
1.2500,149.4780848,60.71894024,992.3334668
1.2550,149.4385685,60.72456489,992.3401153
1.2600,149.3986116,60.72990007,992.3468126
1.2650,149.3592336,60.73305192,992.3530949
1.2700,149.3207323,60.73569367,992.3592664
1.2750,149.2824562,60.73770551,992.365307
1.2800,149.2457129,60.73702854,992.370744
1.2850,149.2090913,60.73532822,992.3760443
1.2900,149.1746765,60.73267849,992.3808927
1.2950,149.1417086,60.72810269,992.3851785
1.3000,149.1095304,60.72229665,992.3892006
1.3050,149.0779947,60.71568569,992.3930282
1.3100,149.0484966,60.70746004,992.3963072
1.3150,149.0192511,60.69834414,992.3994131
1.3200,148.9897303,60.68772632,992.402385
1.3250,148.9591079,60.67587155,992.4053165
1.3300,148.9268589,60.66349238,992.4085
1.3350,148.8922609,60.65003814,992.4119283
1.3400,148.8546047,60.63718761,992.4161202
1.3450,148.8130542,60.62412172,992.4210235
1.3500,148.7669484,60.61029612,992.4265892
1.3550,148.7166521,60.59572198,992.432939
1.3600,148.663326,60.58112833,992.4400859
1.3650,148.6058891,60.5658123,992.4480944
1.3700,148.5429598,60.54954985,992.4571082
1.3750,148.4759012,60.53113133,992.4667886
1.3800,148.4044681,60.51232299,992.4774261
1.3850,148.3280372,60.49360032,992.4894231
1.3900,148.2459282,60.4742058,992.5025378
1.3950,148.1569795,60.45399176,992.5172016
1.4000,148.0601498,60.43457819,992.5336748
1.4050,147.9547453,60.41486169,992.5520448
1.4100,147.8392465,60.39578511,992.5727353
1.4150,147.7129953,60.37634424,992.5956075
1.4200,147.5741625,60.35814983,992.621397
1.4250,147.4228846,60.34114002,992.6499992
1.4300,147.2575214,60.32500287,992.6817017
1.4350,147.0771271,60.30961402,992.7166916
1.4400,146.8819696,60.29516483,992.7549372
1.4450,146.6716217,60.28177923,992.7966604
1.4500,146.4456286,60.2700935,992.8420773
1.4550,146.2046205,60.25833757,992.8907251
1.4600,145.9472481,60.24825806,992.943394
1.4650,145.6737736,60.23961508,992.9999793
1.4700,145.3857935,60.23266293,993.0604484
1.4750,145.0824783,60.22686187,993.1248593
1.4800,144.764477,60.22397954,993.1936973
1.4850,144.4317442,60.22344385,993.2669128
1.4900,144.0837124,60.22520449,993.3446206
1.4950,143.7229403,60.23003305,993.4267482
1.5000,143.3483426,60.23729511,993.5134528
1.5050,142.9610802,60.24732558,993.6048618
1.5100,142.5611213,60.25869745,993.700812
1.5150,142.1473922,60.27250733,993.8018129
1.5200,141.7206478,60.28914426,993.9080897
1.5250,141.2812628,60.30943262,994.0196659
1.5300,140.828756,60.33205253,994.1364892
1.5350,140.3613685,60.35550213,994.2587004
1.5400,139.8798506,60.3810172,994.3864159
1.5450,139.383698,60.40819544,994.519784
1.5500,138.8719235,60.43652063,994.6589882
1.5550,138.3457694,60.46521748,994.8037054
1.5600,137.8035457,60.49589553,994.9546719
1.5650,137.2466004,60.52873607,995.1118618
1.5700,136.6735548,60.56369918,995.2754832
1.5750,136.0865244,60.60106368,995.4453767
1.5800,135.4851817,60.64133929,995.6218233
1.5850,134.8705951,60.68353852,995.8045593
1.5900,134.2427598,60.72790273,995.9936898
1.5950,133.6023029,60.77525837,996.189626
1.6000,132.9491051,60.82600171,996.3924623
1.6050,132.2834556,60.87938022,996.6022341
1.6100,131.6038907,60.93592322,996.8194948
1.6150,130.9111247,60.99538749,997.0444493
1.6200,130.2047063,61.05805597,997.2772785
1.6250,129.4852629,61.12446942,997.5183073
1.6300,128.7524914,61.19461641,997.7675885
1.6350,128.0051027,61.2686498,998.0259631
1.6400,127.2431509,61.34489838,998.2931968
1.6450,126.4669794,61.42549777,998.569963
1.6500,125.6759599,61.51062806,998.8568809
1.6550,124.8684087,61.59933466,999.154413
1.6600,124.0438235,61.69172157,999.4630575
1.6650,123.2024678,61.7888071,999.7833975
1.6700,122.3443449,61.88965603,1000.11577
1.6750,121.4687914,61.99447922,1000.460669
1.6800,120.5750755,62.10187737,1000.818604
1.6850,119.6624915,62.21158876,1001.189929
1.6900,118.7320375,62.32310652,1001.575064
1.6950,117.784871,62.43721592,1001.974244
1.7000,116.8197172,62.55195245,1002.387862
1.7050,115.8385785,62.66796961,1002.815912
1.7100,114.8420913,62.78507529,1003.258722
1.7150,113.8311935,62.90489171,1003.716639
1.7200,112.8066818,63.02645514,1004.189714
1.7250,111.7667215,63.14897128,1004.678276
1.7300,110.7123823,63.27324773,1005.182558
1.7350,109.6438212,63.39820377,1005.702488
1.7400,108.5591876,63.52546393,1006.239076
1.7450,107.4600309,63.65433903,1006.791873
1.7500,106.3458502,63.78571902,1007.361296
1.7550,105.2150347,63.9216869,1007.948164
1.7600,104.0689655,64.05960759,1008.551653
1.7650,102.906818,64.20120518,1009.172552
1.7700,101.7283117,64.34579928,1009.810271
1.7750,100.5346885,64.49483886,1010.465209
1.7800,99.32644291,64.64707815,1011.136531
1.7850,98.10448584,64.80388836,1011.824498
1.7900,96.86937089,64.96379518,1012.528687
1.7950,95.62128991,65.12801407,1013.248842
1.8000,94.36099132,65.29645315,1013.984796
1.8050,93.08875424,65.46940035,1014.736175
1.8100,91.80576508,65.64729356,1015.502962
1.8150,90.51351125,65.82894226,1016.284359
1.8200,89.21076205,66.01559351,1017.080252
1.8250,87.89608104,66.2044516,1017.890919
1.8300,86.57155906,66.39785368,1018.716145
1.8350,85.23789092,66.59599398,1019.555514
1.8400,83.89428278,66.79816235,1020.409546
1.8450,82.54102328,67.00406753,1021.277848
1.8500,81.17834776,67.21368276,1022.160142
1.8550,79.80646899,67.42851126,1023.057044
1.8600,78.42493691,67.64614666,1023.967806
1.8650,77.0334805,67.86774606,1024.892867
1.8700,75.63192908,68.09077812,1025.832079
1.8750,74.22066988,68.31601914,1026.785216
1.8800,72.80009885,68.54350418,1027.752603
1.8850,71.36999528,68.77336227,1028.734319
1.8900,69.9296413,69.00297621,1029.730377
1.8950,68.48027034,69.23228713,1030.740131
1.9000,67.02156166,69.46091636,1031.763892
1.9050,65.55487283,69.68855345,1032.801457
1.9100,64.08070532,69.9150485,1033.852782
1.9150,62.59939004,70.14014521,1034.917739
1.9200,61.11321529,70.36374312,1035.996205
1.9250,59.62199431,70.58537728,1037.08828
1.9300,58.12680641,70.80408529,1038.194267
1.9350,56.62968418,71.02175009,1039.313517
1.9400,55.13004333,71.23869372,1040.446816
1.9450,53.62788307,71.45530065,1041.594367
1.9500,52.12362123,71.67158851,1042.756056
1.9550,50.61917359,71.88814696,1043.931307
1.9600,49.11394973,72.10509704,1045.120986
1.9650,47.60941563,72.32149232,1046.323968
1.9700,46.10565957,72.53831356,1047.540789
1.9750,44.60284151,72.75481412,1048.770948
1.9800,43.10270575,72.97352502,1050.014624
1.9850,41.60555232,73.19293964,1051.271554
1.9900,40.11185124,73.41415454,1052.541633
1.9950,38.62100266,73.63667972,1053.825135
2.0000,37.13461961,73.86153524,1055.121652
2.0050,35.65253126,74.08807624,1056.43108
2.0100,34.17688203,74.31733381,1057.753272
2.0150,32.70779138,74.54862167,1059.08831
2.0200,31.24515563,74.78154961,1060.436326
2.0250,29.79139327,75.01665357,1061.796916
2.0300,28.34755205,75.25470705,1063.170149
2.0350,26.91356745,75.49682948,1064.556549
2.0400,25.49104116,75.74245216,1065.95527
2.0450,24.07979596,75.9924048,1067.366755
2.0500,22.68074975,76.24639843,1068.791162
2.0550,21.29615018,76.50440532,1070.227932
2.0600,19.92539953,76.76746742,1071.677347
2.0650,18.56880888,77.03617308,1073.139189
2.0700,17.22620051,77.30973306,1074.613951
2.0750,15.89901721,77.58844897,1076.101008
2.0800,14.58698354,77.87352517,1077.600865
2.0850,13.28953701,78.16421985,1079.113459
2.0900,12.00559081,78.46157149,1080.639192
2.0950,10.73514637,78.76472528,1082.178038
2.1000,9.478326347,79.073486,1083.730508
2.1050,8.233696611,79.38670397,1085.296325
2.1100,7.001467646,79.7042754,1086.875182
2.1150,5.779905279,80.02571885,1088.467877
2.1200,4.569817852,80.3502012,1090.07396
2.1250,3.371671153,80.67832167,1091.693005
2.1300,2.184549559,81.00844307,1093.325401
2.1350,1.008350999,81.34034344,1094.971432
2.1400,-0.1577138096,81.67391056,1096.63084
2.1450,-1.314408009,82.00883653,1098.303689
2.1500,-2.461749028,82.3437746,1099.990119
2.1550,-3.599931456,82.67735701,1101.689975
2.1600,-4.727742876,83.00945478,1103.403423
2.1650,-5.846222929,83.33939154,1105.130044
2.1700,-6.954960657,83.66908002,1106.870968
2.1750,-8.052994968,83.99732651,1108.626423
2.1800,-9.141368573,84.32314947,1110.395567
2.1850,-10.21884323,84.64606535,1112.178848
2.1900,-11.28544768,84.96667241,1113.976042
2.1950,-12.34178343,85.28397849,1115.78755
2.2000,-13.38741788,85.59748833,1117.612508
2.2050,-14.42322904,85.90681135,1119.45132
2.2100,-15.44857001,86.21100772,1121.303886
2.2150,-16.46385899,86.5108565,1123.169051
2.2200,-17.46967719,86.80641751,1125.047053
2.2250,-18.4663478,87.09653761,1126.937577
2.2300,-19.45411091,87.38202597,1128.840795
2.2350,-20.43455273,87.66019388,1130.756281
2.2400,-21.40536105,87.93158262,1132.683165
2.2450,-22.36847203,88.19494074,1134.621055
2.2500,-23.32398984,88.44872238,1136.569976
2.2550,-24.27190571,88.69391889,1138.529818
2.2600,-25.21282089,88.92956647,1140.499898
2.2650,-26.14557887,89.15548326,1142.481142
2.2700,-27.07080106,89.37211357,1144.473097
2.2750,-27.98757905,89.57995815,1146.475941
2.2800,-28.89578711,89.7779872,1148.488597
2.2850,-29.79549196,89.96599538,1150.511904
2.2900,-30.68578546,90.14485675,1152.545696
2.2950,-31.56641313,90.31404112,1154.588898
2.3000,-32.43671567,90.47219024,1156.641869
2.3050,-33.29699461,90.62049266,1158.704559
2.3100,-34.14825703,90.75734688,1160.776083
2.3150,-34.98926719,90.88477389,1162.856443
2.3200,-35.82026106,91.00225556,1164.944994
2.3250,-36.64117944,91.11099047,1167.042536
2.3300,-37.45350543,91.2101144,1169.147649
2.3350,-38.25641069,91.29976489,1171.260144
2.3400,-39.04950789,91.38064986,1173.380113
2.3450,-39.83249721,91.45344159,1175.507297
2.3500,-40.60508887,91.51766277,1177.640248
2.3550,-41.36821193,91.57483216,1179.779289
2.3600,-42.12234335,91.62492462,1181.923752
2.3650,-42.86741688,91.66746205,1184.072749
2.3700,-43.6015892,91.70427234,1186.225404
2.3750,-44.32758725,91.73346411,1188.381444
2.3800,-45.04529278,91.7556704,1190.540204
2.3850,-45.75383461,91.77167019,1192.701033
2.3900,-46.45306763,91.78113695,1194.86283
2.3950,-47.14227354,91.78563297,1197.02599
2.4000,-47.82158259,91.78486344,1199.188194
2.4050,-48.48913779,91.78011179,1201.350161
2.4100,-49.14521661,91.77184388,1203.511244
2.4150,-49.78789286,91.75932798,1205.670682
2.4200,-50.41757422,91.74412982,1207.828384
2.4250,-51.03502307,91.72590827,1209.984282
2.4300,-51.63870676,91.70505227,1212.137934
2.4350,-52.23030883,91.67996117,1214.288322
2.4400,-52.80796373,91.65303127,1216.435072
2.4450,-53.37120764,91.62285495,1218.577378
2.4500,-53.91864716,91.59102862,1220.714739
2.4550,-54.45143443,91.55729213,1222.846651
2.4600,-54.97030756,91.52257335,1224.973534
2.4650,-55.47448606,91.48600799,1227.094968
2.4700,-55.96522341,91.44779315,1229.209855
2.4750,-56.44376371,91.40636882,1231.318217
2.4800,-56.9109401,91.36208978,1233.420461
2.4850,-57.36689194,91.31478726,1235.5158
2.4900,-57.81136899,91.26522309,1237.603117
2.4950,-58.24520822,91.21347578,1239.682886
2.5000,-58.66963542,91.15909414,1241.755273
2.5050,-59.08477768,91.1024451,1243.818819
2.5100,-59.49185775,91.04401899,1245.873989
2.5150,-59.8902702,90.98243307,1247.921268
2.5200,-60.28091221,90.91698108,1249.960238
2.5250,-60.6627151,90.84962354,1251.992168
2.5300,-61.03691505,90.77808417,1254.015391
2.5350,-61.40197899,90.70378229,1256.029564
2.5400,-61.75899726,90.62638587,1258.034334
2.5450,-62.10767931,90.54401857,1260.030081
2.5500,-62.44882359,90.45843847,1262.016236
2.5550,-62.78251224,90.36877672,1263.992588
2.5600,-63.10855932,90.27486333,1265.959079
2.5650,-63.42824259,90.17626625,1267.915319
2.5700,-63.74068225,90.07087307,1269.860056
2.5750,-64.04767664,89.95812981,1271.794058
2.5800,-64.3496958,89.83747381,1273.716541
2.5850,-64.64665443,89.71072368,1275.626596
2.5900,-64.94029266,89.57720851,1277.523715
2.5950,-65.23133131,89.43727374,1279.408998
2.6000,-65.52019777,89.29198774,1281.28116
2.6050,-65.80656513,89.14001276,1283.1403
2.6100,-66.08873553,88.98402971,1284.987143
2.6150,-66.36837482,88.82481774,1286.821216
2.6200,-66.64349394,88.66245836,1288.642369
2.6250,-66.91345595,88.49704833,1290.449787
2.6300,-67.17883,88.32862745,1292.243563
2.6350,-67.43849361,88.15788453,1294.023487
2.6400,-67.6923215,87.98475238,1295.78904
2.6450,-67.94095395,87.80909802,1297.540959
2.6500,-68.18347751,87.63198428,1299.279239
2.6550,-68.41947871,87.45256963,1301.004323
2.6600,-68.64703793,87.27129198,1302.716213
2.6650,-68.86504922,87.08792718,1304.414278
2.6700,-69.07380993,86.90137031,1306.099581
2.6750,-69.27322935,86.71338598,1307.771506
2.6800,-69.46372479,86.52239745,1309.430455
2.6850,-69.64477946,86.32813312,1311.076476
2.6900,-69.8152429,86.13269576,1312.710139
2.6950,-69.97484427,85.93545481,1314.331463
2.7000,-70.12260507,85.73691143,1315.941121
2.7050,-70.25818961,85.53681707,1317.538865
2.7100,-70.38153042,85.33380732,1319.124064
2.7150,-70.49342553,85.12846833,1320.697023
2.7200,-70.59557483,84.9192653,1322.256983
2.7250,-70.68826152,84.70686282,1323.805105
2.7300,-70.77409508,84.49144184,1325.341088
2.7350,-70.85034767,84.27638941,1326.866564
2.7400,-70.91796493,84.05871644,1328.381615
2.7450,-70.97592333,83.84045109,1329.887257
2.7500,-71.02522318,83.62114934,1331.382522
2.7550,-71.06578576,83.4014652,1332.868695
2.7600,-71.09724663,83.18125911,1334.345293
2.7650,-71.11865386,82.96078587,1335.811836
2.7700,-71.1298432,82.73937955,1337.268793
2.7750,-71.13168988,82.51802524,1338.715999
2.7800,-71.12335471,82.29629246,1340.153727
2.7850,-71.10695237,82.07348078,1341.581757
2.7900,-71.08344554,81.84914532,1343.001153
2.7950,-71.05219297,81.62456917,1344.411535
2.8000,-71.01399394,81.39870734,1345.812551
2.8050,-70.96942544,81.17113181,1347.206142
2.8100,-70.91828495,80.9423316,1348.59183
2.8150,-70.86124063,80.71281356,1349.969921
2.8200,-70.79884144,80.48292325,1351.339753
2.8250,-70.73209011,80.25188709,1352.701289
2.8300,-70.6606409,80.02312147,1354.055487
2.8350,-70.58582072,79.79479734,1355.40414
2.8400,-70.50828326,79.56729959,1356.74646
2.8450,-70.42725654,79.34303574,1358.082934
2.8500,-70.34234592,79.12138659,1359.413701
2.8550,-70.25390664,78.90307863,1360.739363
2.8600,-70.16193129,78.68915426,1362.059382
2.8650,-70.06592064,78.48019974,1363.374538
2.8700,-69.96706185,78.27708034,1364.685679
2.8750,-69.86359925,78.08003305,1365.992273
2.8800,-69.75589674,77.88748055,1367.295468
2.8850,-69.64433167,77.69868925,1368.594366
2.8900,-69.52735111,77.51256064,1369.890348
2.8950,-69.40505123,77.32972919,1371.183146
2.9000,-69.27754009,77.14998573,1372.473073
2.9050,-69.14465966,76.97437966,1373.759898
2.9100,-69.00783908,76.80025374,1375.043597
2.9150,-68.86617092,76.62681305,1376.324091
2.9200,-68.71994372,76.45652639,1377.601931
2.9250,-68.56949162,76.28788686,1378.877106
2.9300,-68.41290474,76.12155377,1380.149768
2.9350,-68.25237643,75.95557841,1381.42002
2.9400,-68.08832232,75.79181667,1382.688819
2.9450,-67.92037776,75.62961944,1383.95533
2.9500,-67.74796798,75.4697335,1385.220091
2.9550,-67.57124323,75.31160635,1386.481626
2.9600,-67.38864222,75.15502092,1387.740643
2.9650,-67.20208313,75.00071933,1388.998103
2.9700,-67.01140755,74.84858335,1390.253396
2.9750,-66.81480383,74.6977319,1391.506266
2.9800,-66.6115274,74.54859299,1392.757239
2.9850,-66.40131087,74.40226311,1394.005782
2.9900,-66.18470946,74.25819851,1395.252655
2.9950,-65.96191561,74.11418216,1396.496519
3.0000,-65.7348942,73.97123304,1397.737781
3.0050,-65.50426977,73.82797628,1398.975891
3.0100,-65.2703735,73.68628987,1400.212364
3.0150,-65.03455038,73.54653209,1401.446814
3.0200,-64.79564038,73.40715137,1402.679838
3.0250,-64.55402825,73.26799596,1403.91042
3.0300,-64.3094621,73.13081885,1405.139604
3.0350,-64.06252526,72.99350406,1406.366459
3.0400,-63.81286142,72.85708675,1407.590168
3.0450,-63.55936358,72.72298648,1408.810656
3.0500,-63.3007596,72.59150684,1410.028485
3.0550,-63.03646833,72.46269662,1411.24267
3.0600,-62.76618755,72.33593018,1412.452818
3.0650,-62.492076,72.21065742,1413.659303
3.0700,-62.21332584,72.08715461,1414.86173
3.0750,-61.93135472,71.96417034,1416.060253
3.0800,-61.64672617,71.84286175,1417.255389
3.0850,-61.35892421,71.72127078,1418.447371
3.0900,-61.06765344,71.59966945,1419.635431
3.0950,-60.77500281,71.47700332,1420.820513
3.1000,-60.48066377,71.35340226,1422.001673
3.1050,-60.18644868,71.22832277,1423.178431
3.1100,-59.89334205,71.10077344,1424.35044
3.1150,-59.60165119,70.97151182,1425.517795
3.1200,-59.31022414,70.84114885,1426.68124
3.1250,-59.02108234,70.7106559,1427.840678
3.1300,-58.73422517,70.57907851,1428.995444
3.1350,-58.45089088,70.44934985,1430.145187
3.1400,-58.17078901,70.32167382,1431.289994
3.1450,-57.89530764,70.19617761,1432.429237
3.1500,-57.62510757,70.07312528,1433.562707
3.1550,-57.36102932,69.95172911,1434.690436
3.1600,-57.10191153,69.83339897,1435.812047
3.1650,-56.84966909,69.71935754,1436.927166
3.1700,-56.60361749,69.60999178,1438.035064
3.1750,-56.36261547,69.50439946,1439.134502
3.1800,-56.12530306,69.40608081,1440.225655
3.1850,-55.8888001,69.31570309,1441.308719
3.1900,-55.65343212,69.23295583,1442.38166
3.1950,-55.41679133,69.1572596,1443.443743
3.2000,-55.17917121,69.08780534,1444.494681
3.2050,-54.93952747,69.0244811,1445.534825
3.2100,-54.69843255,68.96825942,1446.563513
3.2150,-54.45455498,68.91698537,1447.580795
3.2200,-54.20958217,68.86909007,1448.586932
3.2250,-53.96372777,68.82529835,1449.582417
3.2300,-53.71562516,68.78469401,1450.567164
3.2350,-53.46500973,68.74776467,1451.541469
3.2400,-53.21170361,68.71141919,1452.504215
3.2450,-52.95589802,68.67689881,1453.456641
3.2500,-52.69867185,68.64207185,1454.398276
3.2550,-52.44013016,68.607966,1455.330072
3.2600,-52.1823031,68.57483556,1456.252964
3.2650,-51.92297016,68.54279445,1457.166578
3.2700,-51.66255939,68.5119676,1458.070912
3.2750,-51.40258254,68.48318947,1458.967554
3.2800,-51.14293072,68.45707522,1459.855927
3.2850,-50.88508739,68.43193847,1460.736969
3.2900,-50.62916673,68.40755656,1461.610651
3.2950,-50.37566304,68.38689869,1462.478496
3.3000,-50.12413411,68.36838566,1463.341124
3.3050,-49.8741773,68.3531351,1464.198886
3.3100,-49.62383742,68.34060611,1465.051543
3.3150,-49.37208256,68.32984745,1465.89936
3.3200,-49.11771807,68.32223325,1466.741115
3.3250,-48.85984017,68.31687945,1467.576714
3.3300,-48.59733592,68.3117403,1468.405453
3.3350,-48.33022027,68.30814256,1469.22761
3.3400,-48.05959468,68.30469706,1470.043856
3.3450,-47.78700217,68.29976876,1470.855003
3.3500,-47.51346843,68.29262286,1471.661372
3.3550,-47.23931627,68.28421744,1472.464063
3.3600,-46.96383741,68.27475473,1473.263231
3.3650,-46.68770858,68.26513206,1474.059751
3.3700,-46.4114353,68.25419817,1474.854635
3.3750,-46.13384458,68.24246546,1475.647484
3.3800,-45.85601303,68.22987297,1476.43827
3.3850,-45.57939921,68.21792727,1477.227414
3.3900,-45.30352288,68.20509395,1478.015743
3.3950,-45.02897037,68.19169998,1478.802953
3.4000,-44.75779807,68.17818978,1479.590041
3.4050,-44.49030959,68.16538225,1480.377072
3.4100,-44.22658411,68.15382232,1481.164709
3.4150,-43.96740313,68.14358788,1481.953076
3.4200,-43.71541876,68.13363444,1482.742652
3.4250,-43.46919046,68.12473719,1483.532985
3.4300,-43.22900382,68.11683318,1484.324734
3.4350,-42.99422024,68.10930787,1485.117388
3.4400,-42.76393895,68.10152822,1485.911512
3.4450,-42.53813878,68.09279435,1486.70611
3.4500,-42.31504176,68.08354532,1487.501461
3.4550,-42.09481493,68.07429033,1488.295855
3.4600,-41.87749714,68.0629906,1489.089506
3.4650,-41.66118808,68.0490333,1489.881704
3.4700,-41.44576344,68.03100108,1490.672257
3.4750,-41.23130126,68.0096907,1491.461911
3.4800,-41.017408,67.98286053,1492.249291
3.4850,-40.80587948,67.95003516,1493.03443
3.4900,-40.59592232,67.91074668,1493.817578
3.4950,-40.3891139,67.8655544,1494.599023
3.5000,-40.18290304,67.81453805,1495.378452
3.5050,-39.97875886,67.75681636,1496.155503
3.5100,-39.77477297,67.69166895,1496.929938
3.5150,-39.5714957,67.61952658,1497.701335
3.5200,-39.36963815,67.54023427,1498.469648
3.5250,-39.16889766,67.45372527,1499.234214
3.5300,-38.97149988,67.36005907,1499.995649
3.5350,-38.7754665,67.25956125,1500.75293
3.5400,-38.58156546,67.15377309,1501.506471
3.5450,-38.38951762,67.04134208,1502.255279
3.5500,-38.19957166,66.92348307,1502.999805
3.5550,-38.01121663,66.79986745,1503.739343
3.5600,-37.82495798,66.67163357,1504.473143
3.5650,-37.64133743,66.53833922,1505.201038
3.5700,-37.45923519,66.4028721,1505.9236
3.5750,-37.27884958,66.26465418,1506.639751
3.5800,-37.09888193,66.12317225,1507.349297
3.5850,-36.91948989,65.97989408,1508.051517
3.5900,-36.73982318,65.83451255,1508.745552
3.5950,-36.55981244,65.68706872,1509.43123
3.6000,-36.37779527,65.53779558,1510.107194
3.6050,-36.19395469,65.38733143,1510.773572
3.6100,-36.01022738,65.23583657,1511.429997
3.6150,-35.82485592,65.0843543,1512.076273
3.6200,-35.63799169,64.93309442,1512.713039
3.6250,-35.44951789,64.78254848,1513.339916
3.6300,-35.26048123,64.63357267,1513.956714
3.6350,-35.07074981,64.48519873,1514.563915
3.6400,-34.87938338,64.33982291,1515.161344
3.6450,-34.68615558,64.19735804,1515.748481
3.6500,-34.49100989,64.05895235,1516.325979
3.6550,-34.2946449,63.92377399,1516.89281
3.6600,-34.0983954,63.79301325,1517.450232
3.6650,-33.90130017,63.66487982,1517.997543
3.6700,-33.70371145,63.54167713,1518.534466
3.6750,-33.50637096,63.42363255,1519.062286
3.6800,-33.30857204,63.3090369,1519.580881
3.6850,-33.11081962,63.19969698,1520.089942
3.6900,-32.91445712,63.09528412,1520.59019
3.6950,-32.71925846,62.99707118,1521.081993
3.7000,-32.52387898,62.90402616,1521.565696
3.7050,-32.32882107,62.81605305,1522.041424
3.7100,-32.13432232,62.73336202,1522.510146
3.7150,-31.94046344,62.65505618,1522.972507
3.7200,-31.74668386,62.58286278,1523.42921
3.7250,-31.553907,62.51534797,1523.879742
3.7300,-31.36159984,62.45207179,1524.324666
3.7350,-31.16925545,62.39249844,1524.763964
3.7400,-30.97729031,62.33689714,1525.198198
3.7450,-30.78550261,62.28535833,1525.628003
3.7500,-30.59347201,62.23678449,1526.052949
3.7550,-30.40182606,62.18942374,1526.473534
3.7600,-30.21024873,62.14382463,1526.890506
3.7650,-30.01933259,62.09838701,1527.303343
3.7700,-29.82847132,62.05317227,1527.712121
3.7750,-29.63835413,62.0075731,1528.117704
3.7800,-29.44985954,61.96106552,1528.520598
3.7850,-29.26217677,61.91224214,1528.919458
3.7900,-29.07630593,61.86251328,1529.315775
3.7950,-28.89172359,61.81091186,1529.708819
3.8000,-28.7088699,61.75729472,1530.098547
3.8050,-28.52713176,61.7014679,1530.484539
3.8100,-28.34825405,61.64221125,1530.866492
3.8150,-28.17244709,61.57922209,1531.244284
3.8200,-27.99774545,61.51311766,1531.617021
3.8250,-27.82609901,61.44307428,1531.985711
3.8300,-27.65751071,61.36904724,1532.349102
3.8350,-27.49380371,61.29108043,1532.707799
3.8400,-27.33358399,61.20892471,1533.061539
3.8450,-27.1789847,61.123527,1533.410577
3.8500,-27.02953271,61.03415891,1533.754224
3.8550,-26.88555676,60.94186266,1534.093056
3.8600,-26.74594438,60.84572637,1534.426627
3.8650,-26.61243657,60.74679067,1534.754801
3.8700,-26.48475678,60.64315103,1535.077442
3.8750,-26.36155287,60.53751821,1535.394715
3.8800,-26.24382102,60.42883297,1535.706576
3.8850,-26.1315069,60.31752732,1536.012762
3.8900,-26.02391088,60.20467456,1536.313921
3.8950,-25.9206388,60.09071764,1536.609335
3.9000,-25.82361005,59.97554961,1536.899845
3.9050,-25.73102097,59.85966769,1537.185385
3.9100,-25.64333909,59.7422482,1537.465542
3.9150,-25.56100162,59.62495541,1537.740639
3.9200,-25.48468148,59.50806479,1538.010855
3.9250,-25.413614,59.39239584,1538.276362
3.9300,-25.34702876,59.27753873,1538.536529
3.9350,-25.28438844,59.16536518,1538.791053
3.9400,-25.22426007,59.05510083,1539.039448
3.9450,-25.16749111,58.94850841,1539.282545
3.9500,-25.11250821,58.84564558,1539.51899
3.9550,-25.05957367,58.74707809,1539.749679
3.9600,-25.00801242,58.65255582,1539.973244
3.9650,-24.95858426,58.56354855,1540.190574
3.9700,-24.91016471,58.47921782,1540.401166
3.9750,-24.8620045,58.39874904,1540.604327
3.9800,-24.81605376,58.32440452,1540.80035
3.9850,-24.77035982,58.25424814,1540.989403
3.9900,-24.72550141,58.18981786,1541.171109
3.9950,-24.68167959,58.12955676,1541.345167
4.0000,-24.63884149,58.07479009,1541.512007
4.0050,-24.59526952,58.02603659,1541.671337
4.0100,-24.5528824,57.98297845,1541.822845
4.0150,-24.51121902,57.94506962,1541.966239
4.0200,-24.46990332,57.91243476,1542.101073
4.0250,-24.42819561,57.88511899,1542.228409
4.0300,-24.38745897,57.86282989,1542.34788
4.0350,-24.34824647,57.8470374,1542.460255
4.0400,-24.30972541,57.83626396,1542.565035
4.0450,-24.27181434,57.82932028,1542.661776
4.0500,-24.23604189,57.82661169,1542.750732
4.0550,-24.2007973,57.82995923,1542.832344
4.0600,-24.16881151,57.83727688,1542.905817
4.0650,-24.13931307,57.84970312,1542.97176
4.0700,-24.11249588,57.86681826,1543.030411
4.0750,-24.08960387,57.88808994,1543.081337
4.0800,-24.07085335,57.91451294,1543.124453
4.0850,-24.05691907,57.94671507,1543.160775
4.0900,-24.04672943,57.98351555,1543.189149
4.0950,-24.04082955,58.02527788,1543.209666
4.1000,-24.04073569,58.07195702,1543.222481
4.1050,-24.0457296,58.1229966,1543.227089
4.1100,-24.05679825,58.1787167,1543.224276
4.1150,-24.07419922,58.23927649,1543.214544
4.1200,-24.10052739,58.303313,1543.197443
4.1250,-24.13390766,58.37119762,1543.171722
4.1300,-24.17469461,58.44300724,1543.13817
4.1350,-24.22289463,58.51816678,1543.09578
4.1400,-24.27954412,58.59718303,1543.044575
4.1450,-24.34373795,58.67962946,1542.983946
4.1500,-24.41503065,58.7660497,1542.913385
4.1550,-24.49366582,58.85557769,1542.83193
4.1600,-24.57998026,58.94839017,1542.739363
4.1650,-24.67221442,59.0455155,1542.63561
4.1700,-24.77200321,59.14676131,1542.520479
4.1750,-24.87840587,59.2505867,1542.392694
4.1800,-24.99145776,59.35919959,1542.252403
4.1850,-25.10973646,59.47174273,1542.099012
4.1900,-25.2346715,59.58797136,1541.931097
4.1950,-25.36668988,59.70694168,1541.749415
4.2000,-25.50474347,59.8307538,1541.553169
4.2050,-25.64864208,59.9579615,1541.341909
4.2100,-25.79884,60.0898953,1541.115574
4.2150,-25.95376885,60.22522604,1540.872848
4.2200,-26.11254889,60.36452854,1540.613924
4.2250,-26.27623933,60.50669676,1540.338326
4.2300,-26.44447833,60.6533883,1540.045996
4.2350,-26.61705314,60.80318313,1539.736838
4.2400,-26.79475494,60.95725667,1539.41099
4.2450,-26.97666676,61.11496158,1539.067739
4.2500,-27.16372339,61.27588512,1538.707384
4.2550,-27.35550741,61.43984138,1538.329662
4.2600,-27.55298165,61.60722196,1537.935802
4.2650,-27.75438329,61.77800822,1537.524799
4.2700,-27.9613263,61.95219874,1537.096857
4.2750,-28.17475724,62.13146313,1536.65216
4.2800,-28.39314984,62.31417027,1536.190741
4.2850,-28.61619209,62.50192133,1535.713427
4.2900,-28.84453157,62.69417402,1535.220414
4.2950,-29.07757404,62.89154656,1534.711837
4.3000,-29.31510886,63.09352932,1534.187614
4.3050,-29.55840911,63.30015476,1533.649247
4.3100,-29.80668918,63.51043113,1533.096819
4.3150,-30.05957309,63.72652667,1532.531172
4.3200,-30.31815703,63.94550379,1531.953031
4.3250,-30.58295966,64.16905961,1531.362582
4.3300,-30.85449687,64.39667527,1530.761263
4.3350,-31.13187336,64.62774778,1530.14899
4.3400,-31.41681783,64.86222161,1529.527496
4.3450,-31.7092101,65.10125966,1528.897498
4.3500,-32.00807988,65.34459323,1528.259056
4.3550,-32.31360962,65.59143566,1527.612479
4.3600,-32.62519044,65.84125961,1526.958571
4.3650,-32.94446815,66.09320866,1526.297963
4.3700,-33.27140035,66.34859433,1525.631724
4.3750,-33.60475107,66.60666601,1524.959992
4.3800,-33.94487283,66.86765591,1524.283786
4.3850,-34.29119159,67.12991478,1523.60359
4.3900,-34.6446956,67.39421853,1522.92099
4.3950,-35.00550697,67.65941348,1522.236633
4.4000,-35.37418083,67.9249152,1521.551936
4.4050,-35.75114741,68.19022129,1520.867417
4.4100,-36.13497787,68.4565241,1520.183571
4.4150,-36.52703095,68.72418436,1519.501045
4.4200,-36.92490353,68.9925221,1518.82083
4.4250,-37.33014984,69.26081778,1518.14292
4.4300,-37.74272321,69.5285759,1517.468213
4.4350,-38.16222789,69.79561256,1516.797883
4.4400,-38.58939371,70.06070837,1516.132078
4.4450,-39.0232123,70.32408149,1515.471079
4.4500,-39.46502301,70.58487976,1514.815847
4.4550,-39.91439203,70.84155335,1514.166711
4.4600,-40.37095765,71.09571619,1513.524024
4.4650,-40.83463462,71.34528673,1512.887485
4.4700,-41.30428734,71.59092229,1512.256595
4.4750,-41.77883135,71.83259635,1511.631689
4.4800,-42.25922694,72.06926429,1511.011955
4.4850,-42.74546621,72.30119702,1510.397636
4.4900,-43.23528734,72.52772091,1509.788551
4.4950,-43.72790404,72.75014167,1509.182961
4.5000,-44.2216762,72.96777389,1508.580981
4.5050,-44.7172413,73.18145204,1507.981613
4.5100,-45.21221819,73.39022794,1507.384673
4.5150,-45.70811577,73.59504095,1506.789879
4.5200,-46.20386869,73.79450884,1506.196666
4.5250,-46.69999414,73.98986531,1505.605223
4.5300,-47.19428276,74.18097833,1505.014876
4.5350,-47.6891134,74.36896131,1504.42539
4.5400,-48.1825005,74.55322148,1503.835736
4.5450,-48.67391501,74.73363577,1503.245555
4.5500,-49.16371584,74.91165383,1502.65506
4.5550,-49.65043051,75.08723345,1502.063232
4.5600,-50.13372981,75.26058243,1501.469819
4.5650,-50.61312114,75.43191962,1500.874459
4.5700,-51.08907367,75.60185043,1500.27724
4.5750,-51.56084353,75.76917097,1499.677913
4.5800,-52.02867031,75.93466952,1499.076131
4.5850,-52.49427441,76.09734908,1498.470919
4.5900,-52.95691035,76.2581114,1497.861979
4.5950,-53.41726093,76.41671883,1497.249081
4.6000,-53.87561061,76.57415663,1496.632504
4.6050,-54.33126871,76.72874895,1496.010477
4.6100,-54.78423537,76.88239442,1495.383293
4.6150,-55.23468173,77.03436196,1494.749679
4.6200,-55.68259587,77.18585145,1494.109347
4.6250,-56.1280137,77.33628139,1493.462133
4.6300,-56.56925688,77.48652824,1492.807186
4.6350,-57.00805082,77.63552262,1492.144778
4.6400,-57.44363561,77.78426941,1491.473622
4.6450,-57.87633171,77.93268043,1490.792897
4.6500,-58.30713622,78.08020564,1490.104243
4.6550,-58.73630156,78.2264152,1489.40725
4.6600,-59.16424949,78.37210512,1488.702344
4.6650,-59.58920604,78.51810166,1487.989278
4.6700,-60.01253093,78.66339008,1487.267823
4.6750,-60.4345541,78.80740122,1486.538134
4.6800,-60.85504231,78.94928516,1485.800426
4.6850,-61.27482685,79.09134175,1485.054833
4.6900,-61.6936355,79.23180147,1484.300733
4.6950,-62.11233511,79.3708078,1483.538658
4.7000,-62.53019832,79.50913635,1482.768151
4.7050,-62.94798142,79.647565,1481.990086
4.7100,-63.36520662,79.78545074,1481.205067
4.7150,-63.78105954,79.92211639,1480.412629
4.7200,-64.19667999,80.05847,1479.612477
4.7250,-64.61230267,80.19451941,1478.805613
4.7300,-65.02723085,80.32902995,1477.99123
4.7350,-65.44163021,80.46333242,1477.169219
4.7400,-65.85424411,80.59728288,1476.339371
4.7450,-66.2669585,80.72846295,1475.501433
4.7500,-66.67781722,80.8584493,1474.655754
4.7550,-67.08911741,80.98783365,1473.802451
4.7600,-67.50048361,81.11481617,1472.940786
4.7650,-67.91223633,81.24019759,1472.071261
4.7700,-68.3243333,81.36266929,1471.194582
4.7750,-68.73708958,81.48343553,1470.310192
4.7800,-69.14852605,81.60199173,1469.418224
4.7850,-69.55810146,81.71975475,1468.518976
4.7900,-69.96584347,81.8361359,1467.611934
4.7950,-70.3718519,81.95140645,1466.697868
4.8000,-70.77590091,82.06532215,1465.77599
4.8050,-71.17835086,82.17727167,1464.847027
4.8100,-71.57994726,82.28782655,1463.911401
4.8150,-71.97903868,82.39769094,1462.969729
4.8200,-72.37673774,82.50716648,1462.02167
4.8250,-72.77053084,82.61669825,1461.067063
4.8300,-73.16168708,82.72675395,1460.106335
4.8350,-73.54754596,82.83726302,1459.13938
4.8400,-73.92939598,82.94924898,1458.166662
4.8450,-74.30729683,83.06327569,1457.187797
4.8500,-74.68039426,83.17713331,1456.20285
4.8550,-75.04979966,83.29188186,1455.212043
4.8600,-75.41475362,83.40691559,1454.214865
4.8650,-75.77620346,83.52295688,1453.211984
4.8700,-76.13428996,83.63991634,1452.203415
4.8750,-76.48916302,83.75810694,1451.189264
4.8800,-76.84029533,83.87834717,1450.169327
4.8850,-77.18725317,83.99988979,1449.143379
4.8900,-77.53003733,84.12273182,1448.111971
4.8950,-77.86852475,84.24646228,1447.074992
4.9000,-78.20282878,84.37070937,1446.031828
4.9050,-78.53471236,84.49497296,1444.98303
4.9100,-78.8627088,84.61927489,1443.929227
4.9150,-79.18903298,84.74262989,1442.87083
4.9200,-79.51318817,84.86532547,1441.80741
4.9250,-79.83558421,84.98809309,1440.739516
4.9300,-80.15678151,85.10924351,1439.666711
4.9350,-80.4760728,85.22958495,1438.589301
4.9400,-80.79325127,85.34953524,1437.507318
4.9450,-81.10953522,85.46836281,1436.421575
4.9500,-81.42445794,85.58686214,1435.330398
4.9550,-81.73888132,85.70385324,1434.234714
4.9600,-82.05189772,85.81947738,1433.134129
4.9650,-82.36489702,85.93274238,1432.029067
4.9700,-82.67676607,86.04389893,1430.919122
4.9750,-82.9880646,86.15299406,1429.804255
4.9800,-83.29890478,86.26012472,1428.684318
4.9850,-83.60915241,86.36510748,1427.559671
4.9900,-83.91907912,86.46851237,1426.430465
4.9950,-84.2276079,86.56973126,1425.295852
5.0000,-84.53488307,86.66913928,1424.156263
5.0050,-84.84040664,86.7667707,1423.011482
5.0100,-85.14516508,86.8615087,1421.860919
5.0150,-85.44968359,86.95332299,1420.7044
5.0200,-85.75340449,87.04265425,1419.542657
5.0250,-86.05593596,87.12963525,1418.375481
5.0300,-86.35684735,87.21453513,1417.202524
5.0350,-86.65651384,87.2962892,1416.02399
5.0400,-86.95649404,87.37474326,1414.839672
5.0450,-87.25558967,87.45224375,1413.65013
5.0500,-87.55472337,87.52772023,1412.45445
5.0550,-87.85222975,87.60133587,1411.252964
5.0600,-88.147819,87.67438915,1410.046005
5.0650,-88.43920496,87.74522009,1408.833588
5.0700,-88.72647067,87.81649574,1407.614431
5.0750,-89.00870991,87.88698978,1406.389258
5.0800,-89.28621826,87.95781966,1405.157806
5.0850,-89.55812478,88.02857315,1403.920143
5.0900,-89.82336045,88.09965839,1402.675935
5.0950,-90.08218365,88.17051007,1401.425192
5.1000,-90.3346517,88.24062831,1400.168115
5.1050,-90.57980278,88.30986083,1398.904042
5.1100,-90.81719219,88.37869671,1397.632688
5.1150,-91.04738139,88.4456036,1396.353812
5.1200,-91.26957209,88.51150517,1395.067127
5.1250,-91.4845162,88.57542765,1393.772921
5.1300,-91.69211414,88.63655285,1392.471586
5.1350,-91.89293402,88.69537583,1391.163214
5.1400,-92.08667847,88.75085403,1389.84808
5.1450,-92.27216568,88.80368249,1388.526234
5.1500,-92.44964204,88.85487771,1387.197625
5.1550,-92.61866997,88.90474787,1385.862931
5.1600,-92.78069454,88.9541248,1384.522153
5.1650,-92.93548415,89.00123167,1383.175183
5.1700,-93.08301495,89.04580332,1381.822471
5.1750,-93.22256787,89.08741455,1380.463627
5.1800,-93.35485174,89.12530109,1379.099152
5.1850,-93.47902325,89.16106294,1377.729105
5.1900,-93.59681386,89.19276239,1376.354443
5.1950,-93.70840476,89.22078272,1374.974864
5.2000,-93.81507418,89.2445932,1373.59116
5.2050,-93.91515134,89.26627101,1372.202992
5.2100,-94.01035269,89.28494244,1370.810622
5.2150,-94.09844433,89.30102329,1369.413989
5.2200,-94.18006421,89.31442436,1368.012859
5.2250,-94.25534582,89.3240097,1366.607667
5.2300,-94.3241601,89.33027401,1365.19895
5.2350,-94.38842526,89.33281815,1363.785939
5.2400,-94.44813019,89.33051824,1362.369079
5.2450,-94.50298932,89.32285236,1360.948498
5.2500,-94.55432587,89.30890233,1359.525503
5.2550,-94.60196864,89.28979071,1358.099793
5.2600,-94.64630669,89.26561717,1356.670797
5.2650,-94.6880795,89.23537211,1355.238557
5.2700,-94.72885246,89.19795636,1353.803624
5.2750,-94.7680169,89.15599931,1352.366483
5.2800,-94.80555541,89.10740383,1350.92763
5.2850,-94.84188437,89.05232747,1349.486711
5.2900,-94.87520586,88.99111749,1348.043826
5.2950,-94.90732419,88.9232508,1346.600248
5.3000,-94.93742781,88.84868404,1345.155734
5.3050,-94.96504112,88.76701232,1343.710305
5.3100,-94.9905761,88.67836515,1342.265003
5.3150,-95.01292145,88.58428116,1340.820181
5.3200,-95.03273686,88.48439514,1339.375478
5.3250,-95.04919373,88.38003498,1337.93108
5.3300,-95.06269093,88.27243383,1336.48813
5.3350,-95.07260885,88.16236523,1335.046075
5.3400,-95.07815089,88.05143225,1333.60504
5.3450,-95.07872463,87.93891102,1332.165665
5.3500,-95.07386897,87.82674932,1330.72824
5.3550,-95.06150974,87.71640339,1329.292483
5.3600,-95.04285414,87.60733985,1327.858178
5.3650,-95.01753583,87.50228263,1326.42466
5.3700,-94.98498636,87.40199154,1324.992303
5.3750,-94.94610842,87.3073013,1323.560046
5.3800,-94.89924751,87.21862802,1322.128918
5.3850,-94.84443934,87.13653653,1320.697218
5.3900,-94.78258009,87.06145151,1319.266637
5.3950,-94.71257,86.99322265,1317.836807
5.4000,-94.63482696,86.93221144,1316.407979
5.4050,-94.55077372,86.87895607,1314.980426
5.4100,-94.459216,86.8334942,1313.553071
5.4150,-94.36159942,86.79575646,1312.126493
5.4200,-94.25789588,86.76438527,1310.700599
5.4250,-94.14812533,86.7408097,1309.275925
5.4300,-94.03382409,86.72448605,1307.851961
5.4350,-93.91489498,86.71376011,1306.428575
5.4400,-93.79165404,86.70897728,1305.006236
5.4450,-93.66525157,86.70892455,1303.584785
5.4500,-93.53594672,86.71321054,1302.163309
5.4550,-93.40418606,86.72037482,1300.741401
5.4600,-93.26813691,86.72867847,1299.319125
5.4650,-93.12880268,86.73918363,1297.896429
5.4700,-92.98450965,86.75140477,1296.472654
5.4750,-92.83711052,86.76534676,1295.048058
5.4800,-92.68520607,86.78007609,1293.622447
5.4850,-92.53066537,86.7944552,1292.196089
5.4900,-92.37157519,86.80962194,1290.76829
5.4950,-92.20787255,86.82390015,1289.339465
5.5000,-92.03917885,86.83719564,1287.908789
5.5050,-91.86513291,86.84843675,1286.477149
5.5100,-91.68567749,86.85618229,1285.04295
5.5150,-91.50110392,86.86057035,1283.6069
5.5200,-91.31070503,86.8609092,1282.169908
5.5250,-91.11421698,86.85616061,1280.732233
5.5300,-90.91111473,86.84617507,1279.294584
5.5350,-90.70207299,86.83003922,1277.858277
5.5400,-90.48752847,86.80773905,1276.422629
5.5450,-90.26870627,86.77901009,1274.988518
5.5500,-90.04476715,86.74394038,1273.554732
5.5550,-89.81728296,86.70123177,1272.121501
5.5600,-89.58564136,86.65140823,1270.690791
5.5650,-89.35097339,86.59500734,1269.262723
5.5700,-89.11257851,86.53243801,1267.837134
5.5750,-88.87115653,86.46195759,1266.414119
5.5800,-88.62729694,86.38556336,1264.992969
5.5850,-88.38133701,86.30280363,1263.574709
5.5900,-88.13416386,86.21397684,1262.159918
5.5950,-87.88402457,86.11977741,1260.747934
5.6000,-87.63040761,86.01989494,1259.339262
5.6050,-87.37389327,85.91604747,1257.934108
5.6100,-87.11331009,85.80936138,1256.531806
5.6150,-86.84921307,85.69933929,1255.132171
5.6200,-86.5810811,85.58641452,1253.735898
5.6250,-86.30975261,85.47135845,1252.343511
5.6300,-86.0343787,85.35479189,1250.953448
5.6350,-85.75550397,85.23789707,1249.566227
5.6400,-85.47275492,85.12125362,1248.181943
5.6450,-85.18747577,85.0064419,1246.800169
5.6500,-84.90034568,84.89192707,1245.420455
5.6550,-84.61257512,84.77785003,1244.043004
5.6600,-84.32270393,84.66539877,1242.668468
5.6650,-84.03113588,84.55420558,1241.296477
5.6700,-83.73706235,84.44481573,1239.92752
5.6750,-83.44096442,84.33693509,1238.561661
5.6800,-83.14323984,84.23196201,1237.197697
5.6850,-82.84438681,84.13087562,1235.83673
5.6900,-82.5445372,84.03461816,1234.477369
5.6950,-82.24398969,83.94452662,1233.119777
5.7000,-81.94279533,83.85976472,1231.763369
5.7050,-81.64004669,83.78179864,1230.40806
5.7100,-81.33775552,83.7092451,1229.054411
5.7150,-81.03496765,83.644055,1227.70279
5.7200,-80.73181875,83.58471996,1226.352909
5.7250,-80.42745713,83.53012195,1225.004089
5.7300,-80.12126541,83.48011585,1223.655871
5.7350,-79.81356665,83.43506579,1222.308623
5.7400,-79.50454772,83.39455975,1220.961319
5.7450,-79.19372862,83.35847201,1219.61452
5.7500,-78.88178122,83.32695049,1218.268824
5.7550,-78.56750987,83.30001932,1216.923857
5.7600,-78.25203113,83.27925359,1215.579251
5.7650,-77.93428283,83.26395931,1214.235285
5.7700,-77.61347851,83.25304146,1212.891516
5.7750,-77.28928157,83.24682325,1211.548725
5.7800,-76.96223648,83.24524065,1210.206068
5.7850,-76.63077848,83.24838507,1208.863621
5.7900,-76.29443276,83.25463378,1207.52127
5.7950,-75.95292763,83.26449164,1206.179077
5.8000,-75.60463893,83.27764598,1204.837703
5.8050,-75.24991213,83.29325241,1203.49698
5.8100,-74.88710488,83.31210648,1202.156983
5.8150,-74.51666071,83.33335618,1200.817846
5.8200,-74.13810588,83.35730146,1199.479392
5.8250,-73.75124969,83.38417459,1198.141725
5.8300,-73.35748691,83.41298708,1196.804036
5.8350,-72.95513216,83.44535854,1195.46599
5.8400,-72.54464777,83.48001131,1194.128433
5.8450,-72.12442694,83.51630845,1192.791719
5.8500,-71.69520532,83.55268626,1191.455981
5.8550,-71.25640693,83.5887993,1190.121963
5.8600,-70.80907355,83.62349418,1188.788689
5.8650,-70.35208606,83.65617566,1187.456888
5.8700,-69.8858896,83.68596498,1186.126559
5.8750,-69.41033845,83.71320098,1184.798799
5.8800,-68.92500948,83.73828891,1183.474131
5.8850,-68.429719,83.76012378,1182.152204
5.8900,-67.92405407,83.77828358,1180.832939
5.8950,-67.40883158,83.79347261,1179.5166
5.9000,-66.88497801,83.80435728,1178.203332
5.9050,-66.35203312,83.81143734,1176.893571
5.9100,-65.81104243,83.81357895,1175.587123
5.9150,-65.26160757,83.81105653,1174.285275
5.9200,-64.70387729,83.80370591,1172.987896
5.9250,-64.13797468,83.78911407,1171.694665
5.9300,-63.5651872,83.7678541,1170.407612
5.9350,-62.98517607,83.73844952,1169.126179
5.9400,-62.39934391,83.70052642,1167.851349
5.9450,-61.80619641,83.65441868,1166.583564
5.9500,-61.20610768,83.59976661,1165.323305
5.9550,-60.59874328,83.5375502,1164.070447
5.9600,-59.98531222,83.46861004,1162.824617
5.9650,-59.36633523,83.3923533,1161.585971
5.9700,-58.74349109,83.30967725,1160.354299
5.9750,-58.11672502,83.22072898,1159.130005
5.9800,-57.48797324,83.12541304,1157.913774
5.9850,-56.85665875,83.02305294,1156.704615
5.9900,-56.22486378,82.91372298,1155.502984
5.9950,-55.59389783,82.79595944,1154.30898
6.0000,-54.96465672,82.67128854,1153.122678
6.0050,-54.33929849,82.53866223,1151.944775
6.0100,-53.71914551,82.3998183,1150.775996
6.0150,-53.10478,82.25363103,1149.615621
6.0200,-52.49802102,82.1022512,1148.464311
6.0250,-51.89869374,81.94627423,1147.321872
6.0300,-51.30776036,81.78630801,1146.189445
6.0350,-50.72603238,81.62355069,1145.06675
6.0400,-50.15389071,81.458731,1143.954333
6.0450,-49.59355149,81.29203042,1142.851882
6.0500,-49.04331099,81.12559567,1141.758799
6.0550,-48.50386009,80.95990652,1140.675613
6.0600,-47.97449994,80.79453709,1139.60171
6.0650,-47.45618685,80.62962162,1138.536312
6.0700,-46.94924756,80.46682086,1137.479602
6.0750,-46.45326563,80.30663282,1136.430902
6.0800,-45.966967,80.15009076,1135.390819
6.0850,-45.48905562,79.99747827,1134.35812
6.0900,-45.01936482,79.85071717,1133.333258
6.0950,-44.55627001,79.71052666,1132.315538
6.1000,-44.0992083,79.5771409,1131.304322
6.1050,-43.64696291,79.45333851,1130.299471
6.1100,-43.1988121,79.33885192,1129.300426
6.1150,-42.75304943,79.23443537,1128.306624
6.1200,-42.30848119,79.13999072,1127.317212
6.1250,-41.86372988,79.05656642,1126.331191
6.1300,-41.41731513,78.98495936,1125.348507
6.1350,-40.96754432,78.92344889,1124.368754
6.1400,-40.51489637,78.87208679,1123.391363
6.1450,-40.05778156,78.83175935,1122.415499
6.1500,-39.59725806,78.80185828,1121.441611
6.1550,-39.13179403,78.78164845,1120.468634
6.1600,-38.66123054,78.77033563,1119.497029
6.1650,-38.18537769,78.76816834,1118.526993
6.1700,-37.70249431,78.77584358,1117.558054
6.1750,-37.21250466,78.79157717,1116.589778
6.1800,-36.71430737,78.813434,1115.621697
6.1850,-36.20628364,78.84213467,1114.65443
6.1900,-35.68902343,78.87655353,1113.688288
6.1950,-35.16096063,78.91527012,1112.722684
6.2000,-34.62257272,78.95914227,1111.758035
6.2050,-34.07264818,79.00651141,1110.793652
6.2100,-33.50982193,79.05665941,1109.830011
6.2150,-32.93413869,79.10953006,1108.866433
6.2200,-32.34473558,79.16485381,1107.903546
6.2250,-31.74192423,79.22284313,1106.941391
6.2300,-31.12548464,79.28181329,1105.979152
6.2350,-30.49536691,79.34154786,1105.017692
6.2400,-29.85149022,79.40301211,1104.057435
6.2450,-29.19342808,79.46417578,1103.097369
6.2500,-28.52213679,79.52455861,1102.138065
6.2550,-27.83809704,79.58228823,1101.179084
6.2600,-27.14152824,79.63519205,1100.220617
6.2650,-26.43457449,79.68282314,1099.263641
6.2700,-25.71716504,79.72273948,1098.308221
6.2750,-24.99128689,79.75596232,1097.355586
6.2800,-24.25711952,79.78017213,1096.40537
6.2850,-23.51708571,79.79659031,1095.458325
6.2900,-22.77177055,79.80298908,1094.514518
6.2950,-22.0203781,79.80070213,1093.574223
6.3000,-21.2629472,79.79138712,1092.638267
6.3050,-20.49926637,79.77305972,1091.705723
6.3100,-19.72865507,79.74635703,1090.776903
6.3150,-18.95278942,79.71073084,1089.852244
6.3200,-18.17271713,79.6658276,1088.931844
6.3250,-17.38979245,79.61106743,1088.016078
6.3300,-16.60490672,79.54656024,1087.105082
6.3350,-15.81853326,79.47163385,1086.199193
6.3400,-15.03213353,79.38602011,1085.29882
6.3450,-14.24529926,79.28948081,1084.403614
6.3500,-13.46107145,79.18094951,1083.51463
6.3550,-12.67958997,79.06041972,1082.631789
6.3600,-11.90207905,78.92743639,1081.75533
6.3650,-11.1291007,78.78278345,1080.885568
6.3700,-10.3618653,78.62547422,1080.022737
6.3750,-9.599636588,78.45489374,1079.166705
6.3800,-8.842075424,78.27202952,1078.316652
6.3850,-8.090937214,78.07502187,1077.473312
6.3900,-7.343963065,77.86551135,1076.63539
6.3950,-6.602504341,77.6425852,1075.803377
6.4000,-5.864008048,77.40755025,1074.9765
6.4050,-5.128350324,77.15785195,1074.153781
6.4100,-4.395942539,76.8946891,1073.336045
6.4150,-3.665329546,76.61892542,1072.52256
6.4200,-2.936948791,76.33141205,1071.713569
6.4250,-2.210024069,76.03211617,1070.909073
6.4300,-1.48390754,75.7228739,1070.108809
6.4350,-0.7589492638,75.40401212,1069.312936
6.4400,-0.03370287734,75.07696772,1068.52092
6.4450,0.689736983,74.74079694,1067.733227
6.4500,1.413025153,74.39738994,1066.949628
6.4550,2.135542417,74.04721469,1066.170304
6.4600,2.858164669,73.69109786,1065.39421
6.4650,3.580810894,73.32829505,1064.620624
6.4700,4.302898409,72.95952694,1063.849773
6.4750,5.024913657,72.58623723,1063.081362
6.4800,5.746873026,72.20950804,1062.315878
6.4850,6.466998589,71.82873356,1061.553025
6.4900,7.185542453,71.44522586,1060.792327
6.4950,7.902898762,71.05945608,1060.03398
6.5000,8.617480854,70.67102164,1059.278163
6.5050,9.329188563,70.28123589,1058.525214
6.5100,10.03730907,69.89067077,1057.775436
6.5150,10.74229311,69.49795906,1057.029274
6.5200,11.44304867,69.10386217,1056.28703
6.5250,12.14042549,68.71010846,1055.549439
6.5300,12.83530646,68.31725548,1054.816549
6.5350,13.52688541,67.92482496,1054.088482
6.5400,14.21644658,67.5321611,1053.364919
6.5450,14.90357932,67.14078077,1052.646755
6.5500,15.58958871,66.75161754,1051.933873
6.5550,16.27335039,66.36582624,1051.227283
6.5600,16.95473544,65.98411411,1050.526949
6.5650,17.63528539,65.60779338,1049.832667
6.5700,18.31517612,65.23712771,1049.144541
6.5750,18.9958688,64.87061025,1048.461649
6.5800,19.6775927,64.5096681,1047.784046
6.5850,20.36039554,64.15309637,1047.112265
6.5900,21.04518074,63.80328611,1046.446003
6.5950,21.73205376,63.45843101,1045.784733
6.6000,22.41920365,63.11687297,1045.128734
6.6050,23.10647885,62.78050065,1044.478434
6.6100,23.7942665,62.44908904,1043.83344
6.6150,24.48230771,62.12237443,1043.193905
6.6200,25.17240395,61.80063288,1042.559338
6.6250,25.86381446,61.48317092,1041.929769
6.6300,26.55699994,61.17049204,1041.305026
6.6350,27.25209367,60.86181272,1040.684929
6.6400,27.94948995,60.55797439,1040.069334
6.6450,28.6490481,60.25909067,1039.45861
6.6500,29.35284563,59.96490425,1038.851969
6.6550,30.06076758,59.67452751,1038.249545
6.6600,30.77270338,59.38983801,1037.651528
6.6650,31.4884309,59.10932331,1037.058055
6.6700,32.20870373,58.83320777,1036.468476
6.6750,32.93324372,58.56141904,1035.883147
6.6800,33.66186238,58.2932897,1035.302213
6.6850,34.39507205,58.03013747,1034.725502
6.6900,35.13118596,57.77023627,1034.153557
6.6950,35.87171824,57.51536825,1033.585935
6.7000,36.61610051,57.2628667,1033.022453
6.7050,37.36414879,57.01584663,1032.463591
6.7100,38.11676508,56.77315019,1031.908723
6.7150,38.87236516,56.5334363,1031.358273
6.7200,39.63277744,56.29835537,1030.811941
6.7250,40.39623361,56.06638705,1030.269513
6.7300,41.16379668,55.83623389,1029.730625
6.7350,41.93492927,55.60830745,1029.195215
6.7400,42.709395,55.38193091,1028.663733
6.7450,43.48872196,55.15747426,1028.135382
6.7500,44.27153972,54.93471073,1027.610822
6.7550,45.05829279,54.71275552,1027.089467
6.7600,45.84898741,54.49199238,1026.572175
6.7650,46.64318666,54.27212743,1026.058957
6.7700,47.43894358,54.05289606,1025.550419
6.7750,48.23675638,53.83311755,1025.046418
6.7800,49.03580433,53.61210999,1024.546806
6.7850,49.83573841,53.39014368,1024.051926
6.7900,50.63639048,53.16559227,1023.561516
6.7950,51.43551206,52.93976867,1023.076594
6.8000,52.23486153,52.71294697,1022.596936
6.8050,53.03271045,52.48261412,1022.122628
6.8100,53.8295496,52.24975598,1021.653876
6.8150,54.62408801,52.01427291,1021.190612
6.8200,55.41682462,51.77556305,1020.732643
6.8250,56.20731805,51.5341671,1020.280099
6.8300,56.99437093,51.28935412,1019.833157
6.8350,57.77959839,51.04309104,1019.391616
6.8400,58.56142744,50.79447091,1018.955626
6.8450,59.34013466,50.54321126,1018.525066
6.8500,60.11565362,50.29017658,1018.099821
6.8550,60.88743466,50.03426773,1017.68003
6.8600,61.65657064,49.77583272,1017.265349
6.8650,62.42207947,49.51482479,1016.855813
6.8700,63.18250392,49.25036123,1016.451637
6.8750,63.93630111,48.98360893,1016.053108
6.8800,64.68425899,48.71414689,1015.660054
6.8850,65.4242492,48.44096962,1015.272445
6.8900,66.15670176,48.1653089,1014.89059
6.8950,66.8781555,47.88735119,1014.515077
6.9000,67.59069242,47.60686184,1014.144932
6.9050,68.29390504,47.32408563,1013.780213
6.9100,68.98697537,47.03869558,1013.421141
6.9150,69.67197552,46.75068022,1013.066642
6.9200,70.3473717,46.46048317,1012.71737
6.9250,71.0135576,46.16952553,1012.372899
6.9300,71.67070896,45.87748803,1012.033342
6.9350,72.31799848,45.58514008,1011.69868
6.9400,72.9554716,45.29109042,1011.368885
6.9450,73.58235376,44.99593785,1011.043932
6.9500,74.19728109,44.69947358,1010.72409
6.9550,74.79937992,44.40185611,1010.409086
6.9600,75.38787193,44.10171002,1010.099056
6.9650,75.96299132,43.79923648,1009.793913
6.9700,76.52474493,43.49551698,1009.494045
6.9750,77.0728154,43.18983933,1009.198982
6.9800,77.60434737,42.88158675,1008.909289
6.9850,78.12039303,42.57049964,1008.624712
6.9900,78.62130673,42.25847412,1008.3454
6.9950,79.10579329,41.94373892,1008.071453
7.0000,79.57205375,41.62777089,1007.803528
7.0050,80.02026382,41.30910149,1007.541689
7.0100,80.44987168,40.98940271,1007.286229
7.0150,80.86088277,40.66860619,1007.037131
7.0200,81.25149235,40.34677283,1006.79485
7.0250,81.62221918,40.0257864,1006.559886
7.0300,81.97249672,39.70692172,1006.33259
7.0350,82.30200683,39.39198951,1006.113327
7.0400,82.6106186,39.08136052,1005.902257
7.0450,82.89834547,38.77625639,1005.699661
7.0500,83.16570174,38.47804426,1005.505709
7.0550,83.41303387,38.18855706,1005.320743
7.0600,83.63873476,37.90915246,1005.145051
7.0650,83.84328337,37.64008604,1004.978735
7.0700,84.02896412,37.38275208,1004.821526
7.0750,84.19453502,37.13898553,1004.673715
7.0800,84.34025922,36.90946689,1004.535571
7.0850,84.46786554,36.69500447,1004.406728
7.0900,84.57897154,36.49666917,1004.287217
7.0950,84.67572776,36.31425239,1004.176372
7.1000,84.75994873,36.14751948,1004.073831
7.1050,84.83308629,35.99806189,1003.979609
7.1100,84.89714935,35.86543007,1003.89321
7.1150,84.95459357,35.75107348,1003.8145
7.1200,85.00685966,35.65394884,1003.743005
7.1250,85.05645229,35.57373035,1003.678228
7.1300,85.10480083,35.51020249,1003.619959
7.1350,85.15285941,35.46338981,1003.568097
7.1400,85.20310722,35.43311054,1003.522168
7.1450,85.25451024,35.41754959,1003.481958
7.1500,85.30829218,35.41654633,1003.447275
7.1550,85.3657937,35.42955927,1003.417468
7.1600,85.42499313,35.45701212,1003.393031
7.1650,85.48735674,35.49727646,1003.373338
7.1700,85.55350655,35.55065327,1003.357911
7.1750,85.62301809,35.61607257,1003.346687
7.1800,85.69411544,35.69306822,1003.339614
7.1850,85.76772755,35.78173942,1003.336138
7.1900,85.84199175,35.87918051,1003.335866
7.1950,85.91695534,35.98590501,1003.338663
7.2000,85.99050576,36.10085332,1003.344637
7.2050,86.0595347,36.22338747,1003.354065
7.2100,86.1240276,36.35138974,1003.366306
7.2150,86.18125127,36.48484329,1003.382048
7.2200,86.23013294,36.62207692,1003.400948
7.2250,86.26715444,36.76151775,1003.423586
7.2300,86.29274155,36.90158661,1003.449395
7.2350,86.30626729,37.04213984,1003.478536
7.2400,86.30597836,37.18107109,1003.510925
7.2450,86.2929506,37.31885819,1003.546664
7.2500,86.2651185,37.45408779,1003.586019
7.2550,86.22282191,37.5862118,1003.629
7.2600,86.16673046,37.71611624,1003.675814
7.2650,86.09672336,37.84303195,1003.726451
7.2700,86.01147068,37.96538784,1003.78102
7.2750,85.91129842,38.08457764,1003.839934
7.2800,85.79677969,38.20080512,1003.903219
7.2850,85.66607591,38.31397883,1003.97139
7.2900,85.51831306,38.42230861,1004.044513
7.2950,85.35346003,38.52654554,1004.122779
7.3000,85.17202256,38.62767663,1004.206292
7.3050,84.97264186,38.72566967,1004.295196
7.3100,84.75460689,38.81984425,1004.389755
7.3150,84.5169394,38.91268575,1004.490648
7.3200,84.26005874,39.00209751,1004.597612
7.3250,83.98356705,39.08825988,1004.710656
7.3300,83.68668907,39.172834,1004.830422
7.3350,83.36976108,39.2546338,1004.956743
7.3400,83.03332209,39.33407058,1005.089665
7.3450,82.67700773,39.41227431,1005.229644
7.3500,82.30243102,39.48763743,1005.37613
7.3550,81.90932596,39.56154929,1005.529703
7.3600,81.49853153,39.6335849,1005.690495
7.3650,81.07272062,39.70496006,1005.858188
7.3700,80.63142395,39.77526753,1006.033097
7.3750,80.17631539,39.84382739,1006.215319
7.3800,79.70798408,39.91216806,1006.404918
7.3850,79.22633988,39.98031751,1006.602308
7.3900,78.73209799,40.04936332,1006.807569
7.3950,78.22454089,40.11939468,1007.021242
7.4000,77.70405381,40.19157361,1007.243543
7.4050,77.17193733,40.2643954,1007.47411
7.4100,76.62699798,40.33937195,1007.713683
7.4150,76.07027505,40.41639863,1007.962061
7.4200,75.50219449,40.49559784,1008.219478
7.4250,74.92251991,40.57653159,1008.485971
7.4300,74.33096149,40.66049803,1008.761808
7.4350,73.72665201,40.74613835,1009.047072
7.4400,73.10997594,40.83400222,1009.341635
7.4450,72.48126179,40.92605234,1009.645878
7.4500,71.83901854,41.02223789,1009.960292
7.4550,71.18420587,41.12353313,1010.284857
7.4600,70.51688905,41.22889162,1010.619515
7.4650,69.83629468,41.33827363,1010.964303
7.4700,69.1423487,41.45362625,1011.319803
7.4750,68.43481559,41.57413135,1011.685832
7.4800,67.71325877,41.70039652,1012.06257
7.4850,66.97889086,41.83212766,1012.450086
7.4900,66.23085376,41.96992122,1012.848397
7.4950,65.4691534,42.11397372,1013.257792
7.5000,64.69382836,42.26517198,1013.678167
7.5050,63.90708255,42.42183109,1014.108716
7.5100,63.10801809,42.58653864,1014.549941
7.5150,62.29667959,42.75798877,1015.001516
7.5200,61.47196166,42.93818229,1015.463758
7.5250,60.63590059,43.12560876,1015.935738
7.5300,59.78692702,43.32138967,1016.418103
7.5350,58.92470839,43.52430095,1016.910583
7.5400,58.04989506,43.73523897,1017.413059
7.5450,57.16087048,43.95334893,1017.925648
7.5500,56.25912676,44.17946034,1018.448043
7.5550,55.34350037,44.41299267,1018.980278
7.5600,54.4136863,44.65333777,1019.522484
7.5650,53.46923827,44.90110071,1020.074763
7.5700,52.51049997,45.15705315,1020.637234
7.5750,51.53606372,45.41927249,1021.210213
7.5800,50.54745989,45.68832486,1021.793418
7.5850,49.54386987,45.96453303,1022.387477
7.5900,48.52589517,46.24866051,1022.992506
7.5950,47.49465539,46.53993923,1023.608516
7.6000,46.44939237,46.83646559,1024.235621
7.6050,45.3919368,47.13918271,1024.873989
7.6100,44.3236957,47.44748813,1025.523256
7.6150,43.24578812,47.75974705,1026.183331
7.6200,42.15915365,48.07689435,1026.854496
7.6250,41.06529018,48.39859351,1027.536886
7.6300,39.96529147,48.72287757,1028.229852
7.6350,38.86060067,49.04862587,1028.933495
7.6400,37.75138623,49.37584059,1029.647972
7.6450,36.6391662,49.70290804,1030.372917
7.6500,35.52471635,50.02998687,1031.108642
7.6550,34.40819836,50.35601741,1031.855254
7.6600,33.29154055,50.67906326,1032.611884
7.6650,32.17432869,50.99948384,1033.379043
7.6700,31.05768874,51.31661637,1034.156869
7.6750,29.94237608,51.63016118,1034.944734
7.6800,28.82864122,51.9391642,1035.742947
7.6850,27.7181254,52.24423307,1036.5511
7.6900,26.61024334,52.54373912,1037.36951
7.6950,25.50585046,52.83812937,1038.197675
7.7000,24.40536,53.12677381,1039.03589
7.7050,23.30837617,53.41183248,1039.884511
7.7100,22.2155702,53.69279418,1040.742913
7.7150,21.12600106,53.96969503,1041.611571
7.7200,20.039762,54.24396001,1042.490447
7.7250,18.95682292,54.51602676,1043.379298
7.7300,17.87903145,54.78500811,1044.277372
7.7350,16.80660598,55.05237457,1045.184938
7.7400,15.73969409,55.31818748,1046.10186
7.7450,14.6788227,55.58271384,1047.02753
7.7500,13.62399417,55.84526137,1047.961499
7.7550,12.57519998,56.10473177,1048.903086
7.7600,11.53297585,56.36344247,1049.852611
7.7650,10.49703743,56.6213135,1050.810157
7.7700,9.46742625,56.87763446,1051.775483
7.7750,8.444541747,57.13333827,1052.748137
7.7800,7.427457337,57.38876196,1053.728315
7.7850,6.416570393,57.64417184,1054.715368
7.7900,5.412139753,57.90023746,1055.709528
7.7950,4.414129343,58.15635833,1056.71039
7.8000,3.422934337,58.41414189,1057.718202
7.8050,2.436658952,58.67376948,1058.733264
7.8100,1.455646234,58.93483717,1059.754964
7.8150,0.4803192239,59.1996145,1060.783515
7.8200,-0.4884922229,59.46620801,1061.818489
7.8250,-1.450495962,59.73523355,1062.860024
7.8300,-2.40669327,60.00724211,1063.908132
7.8350,-3.356156753,60.2826324,1064.962455
7.8400,-4.298551828,60.56182369,1066.022678
7.8450,-5.234322813,60.84461578,1067.088942
7.8500,-6.162266959,61.13134768,1068.160813
7.8550,-7.081913441,61.42255885,1069.23889
7.8600,-7.994223263,61.71737234,1070.322673
7.8650,-8.896886614,62.01578857,1071.411969
7.8700,-9.791324435,62.31673793,1072.506836
7.8750,-10.67628009,62.62008708,1073.606884
7.8800,-11.55256199,62.9259547,1074.712236
7.8850,-12.41914202,63.23374488,1075.822478
7.8900,-13.27539318,63.54312607,1076.937259
7.8950,-14.12143941,63.85453901,1078.056827
7.9000,-14.95747043,64.16889017,1079.181689
7.9050,-15.78379497,64.48405587,1080.311422
7.9100,-16.59961103,64.80009593,1081.44636
7.9150,-17.40518843,65.11822305,1082.586535
7.9200,-18.20067856,65.4360492,1083.731985
7.9250,-18.98701624,65.75305209,1084.88234
7.9300,-19.76344495,66.07040472,1086.038604
7.9350,-20.53102523,66.3870138,1087.200614
7.9400,-21.28974031,66.70174621,1088.368311
7.9450,-22.03984743,67.01546838,1089.542219
7.9500,-22.7836606,67.3263985,1090.722681
7.9550,-23.51993169,67.6336931,1091.909254
7.9600,-24.25065536,67.93855121,1093.103458
7.9650,-24.97555031,68.23919636,1094.304661
7.9700,-25.69539657,68.53615871,1095.513059
7.9750,-26.4098491,68.82879628,1096.729136
7.9800,-27.1185541,69.11635042,1097.952343
7.9850,-27.82367309,69.39872624,1099.18335
7.9900,-28.52468952,69.67578787,1100.42169
7.9950,-29.22208214,69.94851629,1101.668677
8.0000,-29.91593621,70.21742742,1102.92328
8.0050,-30.60700429,70.48187816,1104.186265
8.0100,-31.29492803,70.74118198,1105.4575
8.0150,-31.97929083,70.99600385,1106.736614
8.0200,-32.65987788,71.24756062,1108.023554
8.0250,-33.33873819,71.49421425,1109.319234
8.0300,-34.01577959,71.73704636,1110.623579
8.0350,-34.69151294,71.97621413,1111.936618
8.0400,-35.36672541,72.21084875,1113.258509
8.0450,-36.04110559,72.44123803,1114.58986
8.0500,-36.71477631,72.66767901,1115.930547
8.0550,-37.38786405,72.89161296,1117.281005
8.0600,-38.06088613,73.11150751,1118.640561
8.0650,-38.73445227,73.32846072,1120.009682
8.0700,-39.40858919,73.54165202,1121.38802
8.0750,-40.08289611,73.75214724,1122.77561
8.0800,-40.7570898,73.95892815,1124.172505
8.0850,-41.43222734,74.16267713,1125.579271
8.0900,-42.10778786,74.36388722,1126.996048
8.0950,-42.78402224,74.5630012,1128.421853
8.1000,-43.46232626,74.75826384,1129.856733
8.1050,-44.14027188,74.95150013,1131.300607
8.1100,-44.81847402,75.14275177,1132.75379
8.1150,-45.49715371,75.33110491,1134.216371
8.1200,-46.17505242,75.51812646,1135.687667
8.1250,-46.85307054,75.70484428,1137.168195
8.1300,-47.53048591,75.89096973,1138.657248
8.1350,-48.20778096,76.0763537,1140.155594
8.1400,-48.88457183,76.26174435,1141.663437
8.1450,-49.56063914,76.44646836,1143.179805
8.1500,-50.23667302,76.62976157,1144.705512
8.1550,-50.9123286,76.81331556,1146.239699
8.1600,-51.58658167,76.997068,1147.782608
8.1650,-52.26081688,77.18006731,1149.333627
8.1700,-52.93487942,77.36304539,1150.893581
8.1750,-53.60825374,77.54639404,1152.461976
8.1800,-54.28071449,77.72782773,1154.039111
8.1850,-54.95186774,77.90823029,1155.62526
8.1900,-55.62221115,78.08644969,1157.220737
8.1950,-56.29046701,78.26223762,1158.825144
8.2000,-56.95590144,78.43556338,1160.438312
8.2050,-57.61848486,78.60676259,1162.060633
8.2100,-58.27811432,78.77561804,1163.692519
8.2150,-58.93463117,78.94092296,1165.33422
8.2200,-59.58740789,79.10310786,1166.985637
8.2250,-60.23584051,79.26125426,1168.647665
8.2300,-60.88088813,79.4136827,1170.319282
8.2350,-61.5219245,79.56072196,1172.001362
8.2400,-62.15780287,79.70357471,1173.694315
8.2450,-62.78919939,79.8395856,1175.398031
8.2500,-63.41327939,79.97004671,1177.111671
8.2550,-64.03116269,80.09425631,1178.835948
8.2600,-64.6410012,80.21158608,1180.569354
8.2650,-65.24305717,80.32206489,1182.313216
8.2700,-65.83786732,80.42478704,1184.067198
8.2750,-66.42496395,80.51980689,1185.831222
8.2800,-67.00498764,80.60879942,1187.605753
8.2850,-67.57652163,80.68976957,1189.390004
8.2900,-68.14022763,80.76409649,1191.184342
8.2950,-68.69629288,80.83027246,1192.987764
8.3000,-69.24453287,80.88723887,1194.799815
8.3050,-69.78597628,80.93480982,1196.620599
8.3100,-70.3194578,80.97400906,1198.449084
8.3150,-70.84447692,81.00632552,1200.286094
8.3200,-71.36273315,81.03091687,1202.131961
8.3250,-71.87128862,81.05051913,1203.985124
8.3300,-72.37087644,81.06564326,1205.845468
8.3350,-72.8605128,81.07472188,1207.712212
8.3400,-73.34008704,81.07958333,1209.585212
8.3450,-73.80901513,81.08011439,1211.463162
8.3500,-74.26680683,81.07787072,1213.346338
8.3550,-74.71328954,81.07348503,1215.234503
8.3600,-75.14779251,81.0681229,1217.127762
8.3650,-75.56987496,81.0621184,1219.025136
8.3700,-75.98095151,81.05637133,1220.926948
8.3750,-76.3803589,81.05051039,1222.833217
8.3800,-76.76856278,81.0452884,1224.742887
8.3850,-77.14590257,81.041838,1226.65708
8.3900,-77.51165382,81.0400109,1228.574392
8.3950,-77.8650696,81.0418903,1230.495283
8.4000,-78.20499197,81.04910827,1232.419347
8.4050,-78.53256087,81.06075732,1234.346706
8.4100,-78.84776811,81.07725487,1236.277725
8.4150,-79.15174551,81.09864798,1238.211465
8.4200,-79.44532941,81.12488905,1240.147787
8.4250,-79.72907675,81.15542662,1242.086832
8.4300,-80.00378573,81.18986502,1244.02862
8.4350,-80.2691326,81.229035,1245.973097
8.4400,-80.52702928,81.27188357,1247.9202
8.4450,-80.777603,81.31739728,1249.870294
8.4500,-81.02165444,81.36581253,1251.822995
8.4550,-81.25971077,81.41368615,1253.778495
8.4600,-81.49230432,81.46230015,1255.736932
8.4650,-81.71980949,81.51198341,1257.698901
8.4700,-81.94130912,81.56142274,1259.664092
8.4750,-82.15651721,81.60985787,1261.632487
8.4800,-82.36624258,81.65794447,1263.60367
8.4850,-82.57097943,81.70598277,1265.578317
8.4900,-82.77036565,81.75292522,1267.555635
8.4950,-82.96574365,81.79791736,1269.535992
8.5000,-83.15803366,81.83958822,1271.518932
8.5050,-83.3471413,81.8764406,1273.504508
8.5100,-83.53480473,81.90813691,1275.492457
8.5150,-83.72161529,81.93198781,1277.48204
8.5200,-83.90843808,81.94821556,1279.473742
8.5250,-84.09641478,81.95574144,1281.467493
8.5300,-84.28400661,81.95290496,1283.462707
8.5350,-84.47250272,81.93972523,1285.458637
8.5400,-84.66291688,81.91495718,1287.454163
8.5450,-84.85430506,81.87949709,1289.4491
8.5500,-85.0490852,81.8326784,1291.4434
8.5550,-85.24648022,81.77431629,1293.436542
8.5600,-85.44622307,81.7052382,1295.428681
8.5650,-85.64968757,81.62557466,1297.419671
8.5700,-85.85600017,81.53724378,1299.408605
8.5750,-86.06510252,81.44007203,1301.394355
8.5800,-86.27663757,81.33365624,1303.376317
8.5850,-86.48934859,81.22013424,1305.354183
8.5900,-86.7039358,81.09942719,1307.327193
8.5950,-86.9193545,80.97246228,1309.294356
8.6000,-87.13612551,80.84008069,1311.256249
8.6050,-87.35256358,80.70544415,1313.212364
8.6100,-87.56817337,80.57062841,1315.16351
8.6150,-87.78312382,80.43635832,1317.108992
8.6200,-87.99603873,80.30399563,1319.04704
8.6250,-88.20558483,80.17505715,1320.978147
8.6300,-88.41088342,80.05082975,1322.902061
8.6350,-88.61145558,79.93459216,1324.818376
8.6400,-88.80549504,79.82501375,1326.72642
8.6450,-88.99222473,79.72315764,1328.625882
8.6500,-89.17195955,79.62859509,1330.515439
8.6550,-89.34431136,79.54082886,1332.394767
8.6600,-89.50954653,79.45974073,1334.263933
8.6650,-89.66744336,79.38534086,1336.122872
8.6700,-89.81746802,79.31673853,1337.970371
8.6750,-89.95982569,79.25535729,1339.806462
8.6800,-90.09377438,79.20138328,1341.631259
8.6850,-90.21960283,79.15446787,1343.44335
8.6900,-90.33701887,79.11615815,1345.243874
8.6950,-90.44451724,79.08424905,1347.031078
8.7000,-90.54141222,79.05847985,1348.804896
8.7050,-90.62778948,79.03833559,1350.563872
8.7100,-90.70307028,79.02239106,1352.307835
8.7150,-90.76645588,79.01020984,1354.03689
8.7200,-90.8188096,78.99939229,1355.75117
8.7250,-90.86066335,78.99081382,1357.449979
8.7300,-90.89294824,78.98288015,1359.132703
8.7350,-90.91482135,78.97450489,1360.799584
8.7400,-90.92552595,78.96581822,1362.450706
8.7450,-90.92495079,78.95705962,1364.085116
8.7500,-90.91436176,78.94636412,1365.702805
8.7550,-90.89357647,78.93382065,1367.304088
8.7600,-90.86370113,78.91772425,1368.888331
8.7650,-90.82413814,78.89832691,1370.456522
8.7700,-90.77610558,78.87563573,1372.00761
8.7750,-90.72069804,78.84966807,1373.54156
8.7800,-90.65799889,78.81825774,1375.058101
8.7850,-90.58782472,78.77972959,1376.556423
8.7900,-90.5119939,78.73295245,1378.037667
8.7950,-90.43134212,78.67911227,1379.501846
8.8000,-90.34593417,78.61883834,1380.949943
8.8050,-90.25744219,78.55193794,1382.381509
8.8100,-90.16492799,78.47908347,1383.797527
8.8150,-90.06748658,78.40197321,1385.197127
8.8200,-89.96754042,78.32065829,1386.580602
8.8250,-89.8632799,78.23726553,1387.948206
8.8300,-89.75618008,78.15240113,1389.301177
8.8350,-89.64509505,78.06627428,1390.638622
8.8400,-89.53077458,77.98031088,1391.961306
8.8450,-89.41314013,77.89434648,1393.270024
8.8500,-89.29217263,77.80961301,1394.565355
8.8550,-89.16726458,77.72753346,1395.84691
8.8600,-89.04035628,77.64707613,1397.115395
8.8650,-88.91038129,77.57031249,1398.370586
8.8700,-88.77833157,77.49651086,1399.613677
8.8750,-88.64350678,77.42598649,1400.845388
8.8800,-88.50640016,77.3587165,1402.065577
8.8850,-88.36963782,77.29387775,1403.274909
8.8900,-88.23043267,77.23246242,1404.473818
8.8950,-88.08966831,77.1750785,1405.663621
8.9000,-87.94584399,77.12440007,1406.844858
8.9050,-87.79916691,77.07970543,1408.016536
8.9100,-87.6499025,77.04029259,1409.178955
8.9150,-87.4980808,77.00692885,1410.331653
8.9200,-87.34195893,76.97943041,1411.475318
8.9250,-87.18215515,76.95657923,1412.609777
8.9300,-87.01810862,76.93765158,1413.734647
8.9350,-86.85017298,76.92100559,1414.850597
8.9400,-86.68010361,76.90720474,1415.957542
8.9450,-86.50942413,76.89665746,1417.056547
8.9500,-86.33709273,76.88877767,1418.148505
8.9550,-86.16299008,76.88506312,1419.233834
8.9600,-85.98605899,76.88501872,1420.311776
8.9650,-85.80478367,76.88999238,1421.382221
8.9700,-85.61803051,76.89953245,1422.445346
8.9750,-85.42521641,76.9125576,1423.501321
8.9800,-85.22485526,76.92966816,1424.550494
8.9850,-85.01672319,76.94971682,1425.591832
8.9900,-84.80192722,76.97023921,1426.62565
8.9950,-84.58120914,76.99162416,1427.653109
9.0000,-84.3543032,77.01355445,1428.674898
9.0050,-84.12072322,77.03538903,1429.691737
9.0100,-83.88165562,77.05576464,1430.702684
9.0150,-83.63886909,77.07152847,1431.707739
9.0200,-83.39188714,77.08197408,1432.707371
9.0250,-83.14066369,77.0859269,1433.702427
9.0300,-82.88416712,77.08252235,1434.692489
9.0350,-82.62471175,77.07208031,1435.677759
9.0400,-82.36251519,77.05407795,1436.658639
9.0450,-82.09774176,77.02787901,1437.635697
9.0500,-81.829215,76.99272515,1438.609207
9.0550,-81.5578283,76.95010634,1439.579264
9.0600,-81.28316379,76.8992955,1440.545893
9.0650,-81.00577057,76.84145656,1441.509
9.0700,-80.72644393,76.77477048,1442.469728
9.0750,-80.44497464,76.69922952,1443.427891
9.0800,-80.1618037,76.61636973,1444.384556
9.0850,-79.87712377,76.52687224,1445.339971
9.0900,-79.5895018,76.43286764,1446.294031
9.0950,-79.29766805,76.33384304,1447.247457
9.1000,-79.00144196,76.22964136,1448.19989
9.1050,-78.69887194,76.12073239,1449.15236
9.1100,-78.39038775,76.00775622,1450.104867
9.1150,-78.07599123,75.88930204,1451.058236
9.1200,-77.75369545,75.76576988,1452.012546
9.1250,-77.4247841,75.63712509,1452.967832
9.1300,-77.08854321,75.50485403,1453.924465
9.1350,-76.7447845,75.36843893,1454.883446
9.1400,-76.3923947,75.22805613,1455.844938
9.1450,-76.03280795,75.08314537,1456.80842
9.1500,-75.66448857,74.93443428,1457.773957
9.1550,-75.28965035,74.78108444,1458.742366
9.1600,-74.90717791,74.62308417,1459.71274
9.1650,-74.51822913,74.45925981,1460.686036
9.1700,-74.12304322,74.28820162,1461.660987
9.1750,-73.72451013,74.11170485,1462.639428
9.1800,-73.32171181,73.92994442,1463.622117
9.1850,-72.91415455,73.74563632,1464.608895
9.1900,-72.50331875,73.56006905,1465.600046
9.1950,-72.08882961,73.37289339,1466.595356
9.2000,-71.67110637,73.18439596,1467.594868
9.2050,-71.25033263,72.99512211,1468.598677
9.2100,-70.82795054,72.80548618,1469.605957
9.2150,-70.40394436,72.61496768,1470.616683
9.2200,-69.97927885,72.42345102,1471.630348
9.2250,-69.55492985,72.23240262,1472.646862
9.2300,-69.13190658,72.04081037,1473.66634
9.2350,-68.70983962,71.85034502,1474.688468
9.2400,-68.28894906,71.66192128,1475.71345
9.2450,-67.86815413,71.47544831,1476.73991
9.2500,-67.44671785,71.29068865,1477.766553
9.2550,-67.02505269,71.10594031,1478.792862
9.2600,-66.60404046,70.92194903,1479.818603
9.2650,-66.18530501,70.73791878,1480.843979
9.2700,-65.76947237,70.55525476,1481.868633
9.2750,-65.3559098,70.37433522,1482.892131
9.2800,-64.94535512,70.19515021,1483.914096
9.2850,-64.53715974,70.01708041,1484.934314
9.2900,-64.13042669,69.84049497,1485.952317
9.2950,-63.72609411,69.66621225,1486.968353
9.3000,-63.32444541,69.49231504,1487.981206
9.3050,-62.92768898,69.31943438,1488.990699
9.3100,-62.53403391,69.14739805,1489.997185
9.3150,-62.14292329,68.97935257,1491.000809
9.3200,-61.75377374,68.8164035,1491.999891
9.3250,-61.36654037,68.6568838,1492.993643
9.3300,-60.98122008,68.50110844,1493.982329
9.3350,-60.59733412,68.34748278,1494.96483
9.3400,-60.21508029,68.19517771,1495.940136
9.3450,-59.83356241,68.04480949,1496.908675
9.3500,-59.4531421,67.89759221,1497.86962
9.3550,-59.07213586,67.75158103,1498.822431
9.3600,-58.69061985,67.60940295,1499.76705
9.3650,-58.30791799,67.46831126,1500.702404
9.3700,-57.92361916,67.32973457,1501.627994
9.3750,-57.5381528,67.19362888,1502.544572
9.3800,-57.15033074,67.05891167,1503.45082
9.3850,-56.75935171,66.92590082,1504.346482
9.3900,-56.36607213,66.79456403,1505.231102
9.3950,-55.97030621,66.66448051,1506.104264
9.4000,-55.5728329,66.53584769,1506.966248
9.4050,-55.17275074,66.40900266,1507.816809
9.4100,-54.76927319,66.28391628,1508.655824
9.4150,-54.36322891,66.16013077,1509.48342
9.4200,-53.9543482,66.03798105,1510.299837
9.4250,-53.5420452,65.91736424,1511.104816
9.4300,-53.12528091,65.79733088,1511.898164
9.4350,-52.70422523,65.67895842,1512.680076
9.4400,-52.27966398,65.56055701,1513.450903
9.4450,-51.85062224,65.4431621,1514.211762
9.4500,-51.41886366,65.3258874,1514.962743
9.4550,-50.98269854,65.20865061,1515.703686
9.4600,-50.54380919,65.09146693,1516.436121
9.4650,-50.10148841,64.97494077,1517.159522
9.4700,-49.65610372,64.85861833,1517.874617
9.4750,-49.20786702,64.74183464,1518.581615
9.4800,-48.75793603,64.62504279,1519.281269
9.4850,-48.30740138,64.50643119,1519.974623
9.4900,-47.856808,64.38524817,1520.662252
9.4950,-47.40621487,64.26239856,1521.343821
9.5000,-46.9559119,64.13718119,1522.019664
9.5050,-46.50608034,64.00932867,1522.690005
9.5100,-46.05648053,63.87831967,1523.355965
9.5150,-45.60724749,63.74417722,1524.01761
9.5200,-45.15932955,63.60776454,1524.676085
9.5250,-44.71365046,63.46669581,1525.331135
9.5300,-44.2694149,63.32316594,1525.983762
9.5350,-43.82732847,63.17662403,1526.633383
9.5400,-43.38690168,63.02684146,1527.280132
9.5450,-42.94792213,62.87238559,1527.924156
9.5500,-42.51118548,62.71456209,1528.566622
9.5550,-42.07793029,62.55315497,1529.207807
9.5600,-41.64742191,62.38766792,1529.846867
9.5650,-41.21859851,62.21918956,1530.484319
9.5700,-40.79117738,62.04693654,1531.11976
9.5750,-40.36475732,61.87186093,1531.753125
9.5800,-39.93901811,61.69300368,1532.38328
9.5850,-39.51492231,61.51147346,1533.011343
9.5900,-39.09275685,61.32718822,1533.636693
9.5950,-38.67195905,61.14028257,1534.258719
9.6000,-38.25380565,60.95109043,1534.877929
9.6050,-37.83624934,60.76094957,1535.494187
9.6100,-37.42165794,60.56959196,1536.107948
9.6150,-37.00856784,60.37625909,1536.718037
9.6200,-36.59851585,60.18070443,1537.325665
9.6250,-36.19033998,59.98469999,1537.930701
9.6300,-35.78464969,59.78939552,1538.533107
9.6350,-35.38106921,59.59482655,1539.132162
9.6400,-34.97880875,59.40212764,1539.728306
9.6450,-34.57787597,59.21090383,1540.320533
9.6500,-34.17944532,59.02085503,1540.909102
9.6550,-33.7828551,58.83304793,1541.493444
9.6600,-33.38850002,58.64457526,1542.072998
9.6650,-32.99587178,58.45803177,1542.64805
9.6700,-32.60481529,58.27218292,1543.218145
9.6750,-32.216166,58.08725173,1543.782964
9.6800,-31.82998071,57.90277356,1544.342555
9.6850,-31.4459143,57.71941453,1544.89759
9.6900,-31.06306776,57.53652519,1545.447702
9.6950,-30.68203556,57.35365908,1545.99274
9.7000,-30.30155267,57.1708735,1546.531942
9.7050,-29.92177072,56.98837695,1547.065025
9.7100,-29.54198029,56.80434075,1547.591201
9.7150,-29.16163431,56.62096392,1548.110863
9.7200,-28.78152731,56.43725848,1548.624164
9.7250,-28.40095262,56.25362371,1549.130962
9.7300,-28.02274987,56.06942373,1549.631874
9.7350,-27.64778787,55.88378744,1550.127594
9.7400,-27.2755327,55.69698623,1550.617813
9.7450,-26.90663519,55.50839555,1551.102286
9.7500,-26.53965687,55.31876852,1551.580941
9.7550,-26.17584185,55.12928427,1552.055067
9.7600,-25.81286649,54.94054969,1552.523761
9.7650,-25.45189436,54.75164682,1552.98756
9.7700,-25.09254645,54.56502815,1553.448056
9.7750,-24.73498427,54.38028077,1553.905099
9.7800,-24.37946415,54.19824455,1554.35876
9.7850,-24.02455976,54.01912497,1554.808825
9.7900,-23.67154899,53.8440047,1555.256228
9.7950,-23.32079516,53.67285544,1555.702169
9.8000,-22.97331542,53.50607534,1556.147159
9.8050,-22.62909448,53.34502834,1556.592735
9.8100,-22.28923413,53.19040276,1557.038943
9.8150,-21.95471899,53.04199045,1557.486881
9.8200,-21.62545762,52.89919255,1557.935922
9.8250,-21.30202115,52.76310806,1558.386611
9.8300,-20.98545899,52.63285889,1558.839532
9.8350,-20.67636383,52.50864382,1559.295219
9.8400,-20.37515809,52.39042796,1559.753135
9.8450,-20.08294466,52.27749547,1560.213686
9.8500,-19.80080112,52.16914116,1560.676281
9.8550,-19.52818363,52.06539425,1561.141078
9.8600,-19.26473446,51.96682702,1561.608004
9.8650,-19.01309693,51.8718951,1562.076498
9.8700,-18.77258201,51.78132567,1562.547141
9.8750,-18.54408484,51.69391129,1563.019162
9.8800,-18.32854973,51.60827977,1563.492578
9.8850,-18.12535145,51.52519181,1563.966793
9.8900,-17.93476999,51.44450065,1564.441618
9.8950,-17.75732077,51.3648229,1564.91633
9.9000,-17.59127601,51.28668093,1565.390488
9.9050,-17.4371228,51.20745759,1565.863172
9.9100,-17.29317785,51.12781952,1566.332622
9.9150,-17.16094756,51.04912732,1566.799801
9.9200,-17.03958044,50.96936672,1567.263272
9.9250,-16.9293402,50.88781056,1567.722011
9.9300,-16.82894453,50.80348368,1568.17476
9.9350,-16.73828405,50.71628604,1568.621714
9.9400,-16.65716426,50.62457515,1569.060983
9.9450,-16.58594857,50.52887057,1569.492948
9.9500,-16.52271466,50.42917393,1569.916365
9.9550,-16.46884071,50.32473273,1570.331374
9.9600,-16.42364206,50.2154104,1570.736941
9.9650,-16.38625299,50.09908557,1571.132225
9.9700,-16.35693056,49.97639411,1571.516849
9.9750,-16.3352027,49.84771832,1571.890451
9.9800,-16.31985248,49.71242899,1572.252125
9.9850,-16.31158999,49.57076494,1572.601098
9.9900,-16.3098224,49.42149181,1572.937004
9.9950,-16.31389745,49.26442514,1573.259122
10.0000,-16.32337045,49.0997382,1573.567249
10.0050,-16.33786555,48.92801703,1573.861539
10.0100,-16.35879178,48.74929227,1574.141833
10.0150,-16.38480855,48.56264289,1574.40761
10.0200,-16.4154087,48.37057484,1574.658661
10.0250,-16.45097621,48.17218855,1574.895241
10.0300,-16.48883353,47.96935196,1575.116666
10.0350,-16.52869707,47.76200294,1575.322491
10.0400,-16.56983837,47.55195239,1575.512998
10.0450,-16.61402285,47.34009166,1575.689114
10.0500,-16.66075902,47.12591353,1575.850514
10.0550,-16.70961141,46.91033337,1575.997421
10.0600,-16.76197615,46.69383397,1576.130674
10.0650,-16.8172989,46.47758436,1576.250925
10.0700,-16.87542893,46.26181117,1576.357033
10.0750,-16.93520423,46.04877511,1576.449698
10.0800,-16.99742515,45.8377446,1576.529602
10.0850,-17.0622263,45.63088017,1576.596996
10.0900,-17.12898025,45.42828407,1576.652434
10.0950,-17.19808877,45.23228938,1576.696218
10.1000,-17.27011512,45.04304136,1576.729077
10.1050,-17.3448868,44.86075993,1576.750525
10.1100,-17.42202457,44.68663189,1576.761413
10.1150,-17.50139768,44.52133175,1576.761354
10.1200,-17.58310728,44.36511832,1576.750495
10.1250,-17.66693675,44.2186949,1576.730032
10.1300,-17.75358088,44.08286491,1576.699003
10.1350,-17.84331746,43.95746964,1576.658057
10.1400,-17.93666143,43.84217652,1576.607731
10.1450,-18.03294006,43.73817556,1576.548287
10.1500,-18.131838,43.64552561,1576.479171
10.1550,-18.2334356,43.5649336,1576.400347
10.1600,-18.33982724,43.49564958,1576.31309
10.1650,-18.44934667,43.43760729,1576.216803
10.1700,-18.56219462,43.39067589,1576.11167
10.1750,-18.67924841,43.35511543,1575.998287
10.1800,-18.80090675,43.3319802,1575.877778
10.1850,-18.92658336,43.32030179,1575.750223
10.1900,-19.05706579,43.31932043,1575.615896
10.1950,-19.19248256,43.33009389,1575.475857
10.2000,-19.33392438,43.35050547,1575.329824
10.2050,-19.48158523,43.38241508,1575.178682
10.2100,-19.63600827,43.42433196,1575.023099
10.2150,-19.79721348,43.47433828,1574.863219
10.2200,-19.96471978,43.53392669,1574.699178
10.2250,-20.13957609,43.6018646,1574.531769
10.2300,-20.32288864,43.67755871,1574.36185
10.2350,-20.51500707,43.76069744,1574.18948
10.2400,-20.71586439,43.85200644,1574.015759
10.2450,-20.92620791,43.95035582,1573.840605
10.2500,-21.14615245,44.05482899,1573.663942
10.2550,-21.37590261,44.16580778,1573.486263
10.2600,-21.6144909,44.28273054,1573.307459
10.2650,-21.86383752,44.40638386,1573.12778
10.2700,-22.12251586,44.53500959,1572.946459
10.2750,-22.38958091,44.66806773,1572.763113
10.2800,-22.66522351,44.80626871,1572.577999
10.2850,-22.95016645,44.94746164,1572.390636
10.2900,-23.24257923,45.09228023,1572.200573
10.2950,-23.54289667,45.24061565,1572.008338
10.3000,-23.85082414,45.39198832,1571.813548
10.3050,-24.16597954,45.54499926,1571.615603
10.3100,-24.48726036,45.70199138,1571.415996
10.3150,-24.81424151,45.86358427,1571.213897
10.3200,-25.14671792,46.02772518,1571.009516
10.3250,-25.48372448,46.19567825,1570.80208
10.3300,-25.82609059,46.36595355,1570.592389
10.3350,-26.17225487,46.5401393,1570.379936
10.3400,-26.52324125,46.7175704,1570.165139
10.3450,-26.87719879,46.89809522,1569.946829
10.3500,-27.23522049,47.0816907,1569.726198
10.3550,-27.59656706,47.2683937,1569.503088
10.3600,-27.96055926,47.45821331,1569.277597
10.3650,-28.32680094,47.65225918,1569.049169
10.3700,-28.69539177,47.85014907,1568.818984
10.3750,-29.06665495,48.05164663,1568.586193
10.3800,-29.43938484,48.25732377,1568.35086
10.3850,-29.81468423,48.46575686,1568.113575
10.3900,-30.19182162,48.67773486,1567.873617
10.3950,-30.57079618,48.8918871,1567.631427
10.4000,-30.95100619,49.10834371,1567.386753
10.4050,-31.33458975,49.32658955,1567.140328
10.4100,-31.72090479,49.54607198,1566.891712
10.4150,-32.10955707,49.76650192,1566.641211
10.4200,-32.50271234,49.98885866,1566.390191
10.4250,-32.89865062,50.21261342,1566.137139
10.4300,-33.29749408,50.43789502,1565.882361
10.4350,-33.69944993,50.66424665,1565.626189
10.4400,-34.10345294,50.89196096,1565.368398
10.4450,-34.51072357,51.12156346,1565.108345
10.4500,-34.92126415,51.35296382,1564.847289
10.4550,-35.33475842,51.58587102,1564.584844
10.4600,-35.75104158,51.82045677,1564.320717
10.4650,-36.170933,52.05711903,1564.055824
10.4700,-36.59524712,52.29582566,1563.790094
10.4750,-37.02327979,52.53635036,1563.523739
10.4800,-37.45540964,52.77908024,1563.256037
10.4850,-37.89274117,53.02382933,1562.987511
10.4900,-38.3345817,53.27115799,1562.717578
10.4950,-38.77917865,53.519816,1562.445396
10.5000,-39.22699491,53.77208738,1562.171469
10.5050,-39.67796228,54.02570336,1561.895764
10.5100,-40.1321736,54.28239242,1561.61827
10.5150,-40.5885439,54.54219392,1561.338023
10.5200,-41.04770298,54.8046402,1561.055343
10.5250,-41.5094338,55.06939109,1560.769801
10.5300,-41.97275381,55.33703737,1560.481145
10.5350,-42.43807561,55.60669728,1560.18924
10.5400,-42.9061921,55.87656047,1559.893318
10.5450,-43.37581327,56.14739112,1559.593572
10.5500,-43.84713742,56.41968268,1559.290009
10.5550,-44.32015434,56.69284516,1558.982197
10.5600,-44.79543665,56.96727781,1558.670515
10.5650,-45.27238802,57.24339449,1558.354508
10.5700,-45.75098312,57.52211894,1558.034405
10.5750,-46.23057415,57.80262017,1557.709567
10.5800,-46.71041865,58.0856024,1557.379441
10.5850,-47.19000403,58.3714508,1557.043783
10.5900,-47.6697604,58.65944839,1556.702611
10.5950,-48.14865643,58.95040395,1556.355284
10.6000,-48.62681365,59.24288533,1556.001982
10.6050,-49.10478964,59.5389732,1555.643025
10.6100,-49.58124905,59.83562641,1555.276916
10.6150,-50.05724175,60.13401418,1554.905049
10.6200,-50.53185988,60.43483432,1554.526804
10.6250,-51.00500123,60.73641273,1554.142514
10.6300,-51.47665928,61.03946763,1553.750987
10.6350,-51.94608016,61.34243649,1553.352571
10.6400,-52.41232187,61.64581382,1552.946596
10.6450,-52.87522221,61.95029918,1552.533705
10.6500,-53.33447134,62.25521239,1552.113192
10.6550,-53.7910947,62.55943504,1551.685384
10.6600,-54.24546809,62.86281837,1551.249865
10.6650,-54.69836225,63.16498712,1550.807153
10.6700,-55.14904256,63.46409507,1550.356239
10.6750,-55.59911195,63.75964189,1549.897707
10.6800,-56.0480706,64.05282744,1549.431956
10.6850,-56.49588498,64.34372867,1548.959178
10.6900,-56.9430118,64.63085782,1548.478742
10.6950,-57.38935854,64.91531377,1547.991277
10.7000,-57.8354511,65.19786043,1547.497348
10.7050,-58.27994212,65.47849699,1546.996322
10.7100,-58.72315971,65.75629714,1546.488177
10.7150,-59.16721684,66.0320449,1545.973209
10.7200,-59.60908157,66.30441041,1545.45019
10.7250,-60.05096659,66.5726933,1544.91992
10.7300,-60.49260196,66.83687863,1544.382249
10.7350,-60.93387424,67.0966706,1543.83653
10.7400,-61.37526009,67.35155388,1543.282731
10.7450,-61.81706787,67.60145102,1542.72185
10.7500,-62.25810383,67.84602938,1542.152457
10.7550,-62.69958053,68.08594616,1541.575463
10.7600,-63.14089375,68.3203971,1540.990276
10.7650,-63.58099879,68.55168897,1540.396758
10.7700,-64.0202555,68.77836939,1539.793947
10.7750,-64.45843403,69.00013663,1539.182212
10.7800,-64.89490017,69.21800265,1538.561518
10.7850,-65.32927175,69.43182058,1537.931616
10.7900,-65.76101007,69.64200808,1537.292415
10.7950,-66.19185428,69.84919908,1536.644738
10.8000,-66.62012583,70.05358926,1535.988364
10.8050,-67.04549603,70.25584563,1535.322938
10.8100,-67.46779351,70.45540844,1534.648509
10.8150,-67.88792104,70.65290753,1533.965745
10.8200,-68.30616118,70.84823123,1533.274988
10.8250,-68.72159525,71.04275084,1532.576276
10.8300,-69.1349461,71.23537298,1531.869828
10.8350,-69.54748839,71.4276986,1531.15626
10.8400,-69.95724784,71.62129557,1530.436244
10.8450,-70.36446088,71.81435789,1529.709335
10.8500,-70.77015598,72.00740889,1528.976149
10.8550,-71.17264447,72.20122494,1528.236449
10.8600,-71.5723939,72.39539265,1527.490027
10.8650,-71.96968788,72.58787196,1526.737791
10.8700,-72.36365777,72.7796236,1525.979336
10.8750,-72.75498325,72.97092023,1525.214869
10.8800,-73.1445644,73.16158305,1524.445596
10.8850,-73.53222411,73.35149014,1523.672829
10.8900,-73.91864284,73.54165935,1522.895494
10.8950,-74.30455813,73.73047508,1522.114429
10.9000,-74.68919478,73.92021674,1521.32965
10.9050,-75.07203168,74.10810136,1520.540902
10.9100,-75.45422038,74.29615741,1519.748626
10.9150,-75.83510589,74.48313794,1518.952439
10.9200,-76.21485755,74.66838273,1518.152275
10.9250,-76.59403717,74.85202078,1517.348372
10.9300,-76.97157269,75.03432398,1516.541424
10.9350,-77.34940528,75.21617538,1515.731852
10.9400,-77.72795188,75.39577185,1514.920064
10.9450,-78.10720067,75.5726796,1514.105766
10.9500,-78.486422,75.74793947,1513.289286
10.9550,-78.86528732,75.91995198,1512.469278
10.9600,-79.24538502,76.08956118,1511.647117
10.9650,-79.62580159,76.25521357,1510.822515
10.9700,-80.00906664,76.41895969,1509.996133
10.9750,-80.39329845,76.57956494,1509.168086
10.9800,-80.77923685,76.73692182,1508.33728
10.9850,-81.16718727,76.89090395,1507.503785
10.9900,-81.55634647,77.04257894,1506.667901
10.9950,-81.9467736,77.1917612,1505.829077
11.0000,-82.33963185,77.33768401,1504.986689
11.0050,-82.73417067,77.48012004,1504.140731
11.0100,-83.13104088,77.6201296,1503.291608
11.0150,-83.52828923,77.75831892,1502.438585
11.0200,-83.92754729,77.89510577,1501.58201
11.0250,-84.32770378,78.03177166,1500.721925
11.0300,-84.72868294,78.16702589,1499.858083
11.0350,-85.13128279,78.30206412,1498.989946
11.0400,-85.53529156,78.43656207,1498.117683
11.0450,-85.93937727,78.57097763,1497.240045
11.0500,-86.34474799,78.7066371,1496.357552
11.0550,-86.74934,78.8436234,1495.469939
11.0600,-87.15389245,78.98300797,1494.576895
11.0650,-87.55772513,79.12266322,1493.677817
11.0700,-87.96061199,79.26444757,1492.773457
11.0750,-88.36308652,79.40968941,1491.862872
11.0800,-88.76449778,79.55770031,1490.947032
11.0850,-89.16392271,79.71007253,1490.024818
11.0900,-89.5616648,79.86645865,1489.09675
11.0950,-89.95630086,80.02763482,1488.161782
11.1000,-90.35010108,80.19282852,1487.220046
11.1050,-90.74166536,80.36239323,1486.270812
11.1100,-91.13161729,80.53740194,1485.314337
11.1150,-91.51808643,80.71712879,1484.350283
11.1200,-91.90098021,80.90197617,1483.377944
11.1250,-92.28204778,81.09095564,1482.397377
11.1300,-92.66006907,81.28530494,1481.407815
11.1350,-93.03320985,81.48380193,1480.40942
11.1400,-93.40409941,81.68555681,1479.401937
11.1450,-93.77181935,81.89142832,1478.385244
11.1500,-94.13663682,82.10074997,1477.358974
11.1550,-94.49991997,82.31242366,1476.322893
11.1600,-94.86050661,82.52696626,1475.278201
11.1650,-95.21934321,82.7452176,1474.2245
11.1700,-95.57710338,82.96618543,1473.161671
11.1750,-95.93315336,83.18934931,1472.08989
11.1800,-96.28761214,83.41489578,1471.008928
11.1850,-96.64020413,83.64238846,1469.917617
11.1900,-96.9898594,83.87244878,1468.817764
11.1950,-97.33750433,84.10425885,1467.708417
11.2000,-97.68265607,84.33779652,1466.589864
11.2050,-98.02615395,84.57375744,1465.462727
11.2100,-98.36810404,84.81186888,1464.327444
11.2150,-98.70846112,85.05053479,1463.184222
11.2200,-99.04805572,85.28937073,1462.033196
11.2250,-99.38644619,85.5292915,1460.87416
11.2300,-99.72537977,85.76889637,1459.707418
11.2350,-100.0625654,86.00830698,1458.53272
11.2400,-100.39862,86.24771721,1457.350206
11.2450,-100.7330917,86.48734485,1456.160436
11.2500,-101.066923,86.72588386,1454.962637
11.2550,-101.3998259,86.96415841,1453.757261
11.2600,-101.7305844,87.20064012,1452.544308
11.2650,-102.0610156,87.43531412,1451.323989
11.2700,-102.3887258,87.66829197,1450.095798
11.2750,-102.7148505,87.89856477,1448.859974
11.2800,-103.0399294,88.12558199,1447.617383
11.2850,-103.3631548,88.34958492,1446.367694
11.2900,-103.6861244,88.57003414,1445.110838
11.2950,-104.0092233,88.7857758,1443.847006
11.3000,-104.3303502,88.99725922,1442.576243
11.3050,-104.6497941,89.20508096,1441.298202
11.3100,-104.9663412,89.40974564,1440.012792
11.3150,-105.2807042,89.60893033,1438.720574
11.3200,-105.592438,89.80419759,1437.421147
11.3250,-105.9009415,89.99488941,1436.113188
11.3300,-106.2056427,90.18072344,1434.796861
11.3350,-106.5060854,90.36271035,1433.472057
11.3400,-106.8013606,90.54197317,1432.138552
11.3450,-107.0914865,90.71758406,1430.797114
11.3500,-107.376225,90.88941559,1429.44771
11.3550,-107.6549603,91.05651578,1428.089128
11.3600,-107.9262511,91.21929505,1426.721256
11.3650,-108.1902225,91.37816248,1425.344168
11.3700,-108.4472733,91.53325134,1423.957484
11.3750,-108.6964587,91.68360424,1422.560798
11.3800,-108.9383529,91.82998353,1421.153358
11.3850,-109.1732845,91.97116787,1419.735774
11.3900,-109.4012318,92.10812802,1418.30761
11.3950,-109.6235229,92.24060577,1416.86891
11.4000,-109.8387399,92.36954019,1415.419785
11.4050,-110.0483608,92.49495899,1413.960728
11.4100,-110.2518276,92.61587965,1412.491866
11.4150,-110.4500378,92.73315439,1411.013043
11.4200,-110.6428335,92.84696512,1409.524947
11.4250,-110.8301386,92.95753512,1408.027334
11.4300,-111.012857,93.06487645,1406.520849
11.4350,-111.1908927,93.16978248,1405.005057
11.4400,-111.3625507,93.27323436,1403.479616
11.4450,-111.5292121,93.37479218,1401.944993
11.4500,-111.6891137,93.4741903,1400.401111
11.4550,-111.8427099,93.57331674,1398.84869
11.4600,-111.9895518,93.6715238,1397.286162
11.4650,-112.1292972,93.76796309,1395.713093
11.4700,-112.2608729,93.86475983,1394.130347
11.4750,-112.3854962,93.96089341,1392.537539
11.4800,-112.5026584,94.05560054,1390.934584
11.4850,-112.6116618,94.14925753,1389.321838
11.4900,-112.7136077,94.24150892,1387.699451
11.4950,-112.8074214,94.33277524,1386.067585
11.5000,-112.8936817,94.42155818,1384.426034
11.5050,-112.9713709,94.50863939,1382.77516
11.5100,-113.0408638,94.59289024,1381.114166
11.5150,-113.1018324,94.67639239,1379.443289
11.5200,-113.1547685,94.75842375,1377.762625
11.5250,-113.1995241,94.8394013,1376.072216
11.5300,-113.2356622,94.91868881,1374.372889
11.5350,-113.2648989,94.99620392,1372.663669
11.5400,-113.2857283,95.07097745,1370.944235
11.5450,-113.2988335,95.14284737,1369.21447
11.5500,-113.3048365,95.21181359,1367.475585
11.5550,-113.3032462,95.2777461,1365.7273
11.5600,-113.2942026,95.3405664,1363.970004
11.5650,-113.2774909,95.40069536,1362.20389
11.5700,-113.253539,95.45661633,1360.429058
11.5750,-113.2222775,95.51018578,1358.645659
11.5800,-113.1834484,95.56071772,1356.853629
11.5850,-113.1366523,95.60875596,1355.05392
11.5900,-113.0820743,95.65440612,1353.24709
11.5950,-113.0185851,95.69832662,1351.433591
11.6000,-112.9469411,95.74049084,1349.613023
11.6050,-112.8677142,95.78162519,1347.785449
11.6100,-112.781233,95.82112036,1345.950157
11.6150,-112.6864831,95.86036153,1344.107076
11.6200,-112.5832872,95.89971282,1342.257054
11.6250,-112.4713968,95.93901825,1340.400274
11.6300,-112.350795,95.97936797,1338.538049
11.6350,-112.2215243,96.02102883,1336.671008
11.6400,-112.0840793,96.06336884,1334.799187
11.6450,-111.9378063,96.10735139,1332.922546
11.6500,-111.7828393,96.1516305,1331.040518
11.6550,-111.6216971,96.19692183,1329.153665
11.6600,-111.4561704,96.24284417,1327.262306
11.6650,-111.2877238,96.28946466,1325.366168
11.6700,-111.1158578,96.33847866,1323.466813
11.6750,-110.9422342,96.38931343,1321.563631
11.6800,-110.7667834,96.4408958,1319.657337
11.6850,-110.5900094,96.49517938,1317.746724
11.6900,-110.4134717,96.55256134,1315.833939
11.6950,-110.2375792,96.61417277,1313.919418
11.7000,-110.0618854,96.68031701,1312.003302
11.7050,-109.8863306,96.75217893,1310.085988
11.7100,-109.7106791,96.83027173,1308.168356
11.7150,-109.5353793,96.91535098,1306.25049
11.7200,-109.3607385,97.00683252,1304.33337
11.7250,-109.1858415,97.10470867,1302.417606
11.7300,-109.0110938,97.20878253,1300.503654
11.7350,-108.836188,97.32126641,1298.591789
11.7400,-108.6623615,97.44138939,1296.682604
11.7450,-108.4886223,97.56995094,1294.775504
11.7500,-108.3148742,97.70653818,1292.871677
11.7550,-108.1406797,97.84866396,1290.971534
11.7600,-107.9652241,97.99714793,1289.075366
11.7650,-107.7869678,98.15177681,1287.184265
11.7700,-107.6062297,98.30980006,1285.297143
11.7750,-107.4214501,98.47123721,1283.414948
11.7800,-107.2322827,98.63541747,1281.537694
11.7850,-107.0377841,98.8001614,1279.665543
11.7900,-106.8383185,98.96521479,1277.797562
11.7950,-106.6338352,99.12949926,1275.934947
11.8000,-106.4235365,99.29327033,1274.077434
11.8050,-106.2074018,99.45547227,1272.225173
11.8100,-105.9846739,99.61453239,1270.37834
11.8150,-105.7557493,99.76747043,1268.536885
11.8200,-105.5189936,99.91608559,1266.700661
11.8250,-105.2752338,100.057596,1264.870285
11.8300,-105.0238021,100.1929005,1263.045001
11.8350,-104.7644863,100.3196254,1261.225694
11.8400,-104.4978864,100.4397264,1259.413039
11.8450,-104.2241888,100.5517839,1257.607112
11.8500,-103.9426854,100.6559865,1255.807821
11.8550,-103.654109,100.7520646,1254.016035
11.8600,-103.3582958,100.8406636,1252.230418
11.8650,-103.0542473,100.919454,1250.451323
11.8700,-102.742834,100.9904637,1248.679879
11.8750,-102.4236094,101.051164,1246.915517
11.8800,-102.0970577,101.1017313,1245.157808
11.8850,-101.7631798,101.1414689,1243.406099
11.8900,-101.4211562,101.1703597,1241.659949
11.8950,-101.0716552,101.1878147,1239.918988
11.9000,-100.7154088,101.1926422,1238.183615
11.9050,-100.3519206,101.1847098,1236.453911
11.9100,-99.9816306,101.1657266,1234.730478
11.9150,-99.60506138,101.1361579,1233.012411
11.9200,-99.22163166,101.0975654,1231.299194
11.9250,-98.83180091,101.0498901,1229.590959
11.9300,-98.43596409,100.993794,1227.885805
11.9350,-98.03372907,100.9297954,1226.184211
11.9400,-97.62552596,100.8576336,1224.485199
11.9450,-97.21297605,100.778384,1222.788795
11.9500,-96.7944538,100.6945469,1221.094681
11.9550,-96.36849602,100.6062603,1219.403363
11.9600,-95.93422905,100.5142105,1217.71499
11.9650,-95.49154186,100.4193292,1216.028965
11.9700,-95.03970506,100.3217858,1214.344551
11.9750,-94.57890778,100.2236328,1212.662757
11.9800,-94.10878766,100.1258785,1210.983736
11.9850,-93.62934086,100.0294123,1209.309024
11.9900,-93.13893553,99.93413659,1207.637189
11.9950,-92.63774946,99.83932065,1205.968738
12.0000,-92.12707881,99.74388457,1204.303563
12.0050,-91.60652153,99.64762447,1202.642006
12.0100,-91.07647756,99.55040411,1200.98342
12.0150,-90.53807643,99.45022498,1199.327933
12.0200,-89.99074103,99.34651199,1197.675738
12.0250,-89.43394554,99.23938633,1196.026185
12.0300,-88.86783364,99.12764836,1194.379122
12.0350,-88.29300277,99.00920244,1192.735401
12.0400,-87.70751629,98.8846607,1191.094452
12.0450,-87.11142722,98.75249383,1189.457245
12.0500,-86.504605,98.61414856,1187.823077
12.0550,-85.8865298,98.469832,1186.192178
12.0600,-85.25817125,98.31687856,1184.564335
12.0650,-84.61931534,98.15550841,1182.93999
12.0700,-83.97022773,97.98598426,1181.320247
12.0750,-83.31100426,97.80679156,1179.705383
12.0800,-82.64256338,97.61708485,1178.095597
12.0850,-81.96553372,97.41796762,1176.490839
12.0900,-81.280025,97.20763512,1174.891664
12.0950,-80.58605218,96.98671183,1173.297446
12.1000,-79.88466195,96.75372858,1171.709275
12.1050,-79.17652568,96.50762223,1170.127021
12.1100,-78.4612221,96.25028659,1168.550735
12.1150,-77.73854604,95.98123401,1166.98071
12.1200,-77.00974139,95.69867452,1165.417457
12.1250,-76.27437814,95.40397241,1163.861021
12.1300,-75.53262439,95.09751338,1162.311458
12.1350,-74.78594891,94.77995459,1160.770004
12.1400,-74.03421501,94.45085976,1159.236512
12.1450,-73.2769731,94.11123471,1157.710077
12.1500,-72.51413066,93.76079844,1156.190676
12.1550,-71.74668059,93.4011674,1154.678598
12.1600,-70.97362583,93.03186202,1153.173135
12.1650,-70.19539241,92.65544107,1151.673871
12.1700,-69.41238809,92.27209318,1150.180384
12.1750,-68.62438872,91.88320603,1148.692111
12.1800,-67.83019288,91.49048006,1147.209022
12.1850,-67.03036182,91.09502573,1145.730669
12.1900,-66.2259833,90.69710311,1144.257843
12.1950,-65.41631969,90.29859867,1142.790051
12.2000,-64.60106555,89.90101241,1141.327262
12.2050,-63.78109695,89.50377501,1139.869488
12.2100,-62.95516145,89.1076715,1138.416644
12.2150,-62.12311164,88.71357418,1136.969702
12.2200,-61.28570593,88.32227003,1135.528788
12.2250,-60.44311878,87.93506247,1134.094369
12.2300,-59.59433969,87.55229382,1132.666451
12.2350,-58.73983651,87.17171707,1131.244086
12.2400,-57.87914904,86.79595968,1129.828288
12.2450,-57.01073926,86.42473131,1128.418799
12.2500,-56.13586649,86.05899584,1127.016789
12.2550,-55.25491177,85.69695381,1125.621607
12.2600,-54.36652999,85.34016759,1124.233188
12.2650,-53.47135657,84.98853547,1122.853254
12.2700,-52.56831871,84.64211804,1121.481251
12.2750,-51.65792196,84.30055392,1120.11793
12.2800,-50.73891308,83.96441745,1118.763046
12.2850,-49.81134023,83.6330827,1117.41632
12.2900,-48.8757444,83.30639951,1116.077624
12.2950,-47.93222891,82.9856136,1114.747277
12.3000,-46.9799845,82.66977866,1113.425017
12.3050,-46.01843569,82.35926599,1112.110334
12.3100,-45.04844079,82.05376551,1110.803951
12.3150,-44.07007588,81.75240016,1109.505971
12.3200,-43.08386809,81.45489456,1108.215569
12.3250,-42.09168559,81.16065693,1106.933133
12.3300,-41.09355477,80.87049613,1105.659959
12.3350,-40.08931231,80.58176014,1104.394752
12.3400,-39.08084472,80.29470917,1103.138604
12.3450,-38.06958499,80.00807748,1101.891781
12.3500,-37.05590085,79.72241218,1100.654502
12.3550,-36.04012055,79.43664619,1099.426774
12.3600,-35.02258609,79.15165834,1098.209131
12.3650,-34.00405563,78.86607182,1097.001236
12.3700,-32.98543551,78.57987512,1095.802978
12.3750,-31.96614299,78.2940568,1094.614053
12.3800,-30.94658328,78.00860077,1093.434951
12.3850,-29.92821463,77.72215981,1092.266178
12.3900,-28.91030298,77.43529876,1091.107502
12.3950,-27.8937381,77.14794185,1089.95948
12.4000,-26.87802564,76.85930016,1088.821368
12.4050,-25.86452183,76.5706036,1087.693251
12.4100,-24.8537903,76.28030863,1086.574822
12.4150,-23.84615052,75.99039145,1085.465951
12.4200,-22.84221009,75.70158933,1084.3669
12.4250,-21.84246679,75.41361068,1083.277185
12.4300,-20.84801503,75.12664519,1082.196951
12.4350,-19.85789136,74.84052838,1081.125027
12.4400,-18.87244239,74.55520573,1080.060714
12.4450,-17.89231536,74.27048524,1079.004927
12.4500,-16.91778509,73.98615384,1077.956806
12.4550,-15.94886007,73.70068063,1076.916225
12.4600,-14.98630369,73.41497778,1075.883532
12.4650,-14.03030919,73.12748929,1074.858841
12.4700,-13.08062767,72.83819428,1073.841839
12.4750,-12.13635945,72.54949246,1072.832993
12.4800,-11.19861503,72.26047998,1071.832217
12.4850,-10.26642129,71.97039193,1070.839785
12.4900,-9.33758124,71.68115971,1069.854625
12.4950,-8.411836481,71.39149039,1068.876774
12.5000,-7.488582994,71.10257579,1067.906295
12.5050,-6.565458483,70.81562548,1066.943055
12.5100,-5.643093247,70.53012756,1065.98719
12.5150,-4.720684507,70.24632388,1065.03841
12.5200,-3.797045871,69.96301311,1064.096756
12.5250,-2.871791857,69.67988238,1063.161951
12.5300,-1.945486848,69.39709667,1062.23441
12.5350,-1.016876473,69.11631055,1061.314729
12.5400,-0.08545033132,68.83653066,1060.402812
12.5450,0.8496484123,68.55767062,1059.498573
12.5500,1.786683642,68.27795067,1058.601882
12.5550,2.72810332,67.99983601,1057.712972
12.5600,3.672580078,67.72122492,1056.832026
12.5650,4.62147128,67.44209918,1055.958725
12.5700,5.573582494,67.16236829,1055.093616
12.5750,6.529633818,66.88065999,1054.236438
12.5800,7.488923937,66.59673545,1053.387196
12.5850,8.450805565,66.30989512,1052.54646
12.5900,9.415387991,66.01867703,1051.714404
12.5950,10.38219236,65.72180227,1050.89127
12.6000,11.35139747,65.41968701,1050.077131
12.6050,12.32096926,65.11088872,1049.272887
12.6100,13.29145983,64.79506795,1048.478254
12.6150,14.26219841,64.47324933,1047.693706
12.6200,15.23256726,64.14527945,1046.919635
12.6250,16.20343427,63.81196152,1046.156409
12.6300,17.17465916,63.47060645,1045.402851
12.6350,18.14567854,63.12340047,1044.659681
12.6400,19.11659375,62.77012849,1043.926886
12.6450,20.0871382,62.41192302,1043.204254
12.6500,21.05609181,62.04649116,1042.491629
12.6550,22.02401125,61.67514924,1041.788395
12.6600,22.988815,61.29843963,1041.095161
12.6650,23.95045412,60.91803642,1040.411336
12.6700,24.90784449,60.53444604,1039.737332
12.6750,25.859032,60.14727029,1039.073121
12.6800,26.80461364,59.75697731,1038.41793
12.6850,27.74347233,59.36455034,1037.771641
12.6900,28.67415635,58.97032456,1037.134212
12.6950,29.59627396,58.57439294,1036.505371
12.7000,30.50773246,58.17865882,1035.885485
12.7050,31.40897064,57.78144069,1035.273905
12.7100,32.29825473,57.38432796,1034.671015
12.7150,33.17468967,56.98800556,1034.076678
12.7200,34.03730447,56.59175792,1033.490843
12.7250,34.88592587,56.19627744,1032.91314
12.7300,35.71971159,55.80197617,1032.343859
12.7350,36.53883817,55.40899681,1031.782591
12.7400,37.3418944,55.01734251,1031.229514
12.7450,38.12882496,54.62680071,1030.683996
12.7500,38.90033395,54.23890064,1030.146184
12.7550,39.6564326,53.85409969,1029.615661
12.7600,40.39699187,53.47080338,1029.092074
12.7650,41.12346542,53.09057345,1028.574866
12.7700,41.83658224,52.71266326,1028.063704
12.7750,42.5362242,52.33714917,1027.558537
12.7800,43.22330646,51.96437343,1027.058958
12.7850,43.89870247,51.59493202,1026.564801
12.7900,44.56265336,51.22858856,1026.076394
12.7950,45.21553375,50.86556443,1025.593354
12.8000,45.85872665,50.50600189,1025.115792
12.8050,46.49239678,50.14908694,1024.643276
12.8100,47.11853304,49.79453971,1024.175524
12.8150,47.73770666,49.44263535,1023.712618
12.8200,48.3501492,49.09340377,1023.254668
12.8250,48.95679623,48.74697937,1022.801505
12.8300,49.55944628,48.40202804,1022.352811
12.8350,50.1576593,48.05887238,1021.908966
12.8400,50.7520857,47.71726791,1021.469906
12.8450,51.34257423,47.37644262,1021.03563
12.8500,51.93090906,47.03596899,1020.606156
12.8550,52.51574716,46.69495482,1020.181704
12.8600,53.09894713,46.35562176,1019.762388
12.8650,53.68003501,46.01574866,1019.348032
12.8700,54.25969168,45.67491202,1018.938667
12.8750,54.83850876,45.3346912,1018.53435
12.8800,55.41700203,44.99363878,1018.134893
12.8850,55.99578184,44.65217174,1017.740195
12.8900,56.57577185,44.31146814,1017.350272
12.8950,57.15746132,43.96947924,1016.964859
12.9000,57.74040446,43.62744368,1016.584058
12.9050,58.3255884,43.28500273,1016.207225
12.9100,58.91242784,42.94292854,1015.83438
12.9150,59.50163353,42.60018567,1015.465074
12.9200,60.09332902,42.25720863,1015.099281
12.9250,60.68668168,41.91387086,1014.736829
12.9300,61.28129992,41.57194238,1014.378084
12.9350,61.87687134,41.23015723,1014.022608
12.9400,62.47191193,40.88801322,1013.670349
12.9450,63.06798835,40.54646993,1013.320753
12.9500,63.66311411,40.20573404,1012.974148
12.9550,64.25689241,39.86725705,1012.6309
12.9600,64.84920275,39.53028605,1012.290452
12.9650,65.43855846,39.1939898,1011.953214
12.9700,66.02480332,38.85888354,1011.618931
12.9750,66.60720705,38.52557831,1011.287756
12.9800,67.18362807,38.19548763,1010.960576
12.9850,67.75401283,37.86850568,1010.637121
12.9900,68.3179646,37.54500535,1010.317534
12.9950,68.87535725,37.22549325,1010.001772
13.0000,69.42432466,36.90996145,1009.69054
13.0050,69.96478133,36.59990077,1009.383938
13.0100,70.49660328,36.29467112,1009.081953
13.0150,71.01893107,35.99426133,1008.784748
13.0200,71.53198397,35.69920868,1008.49241
13.0250,72.03471506,35.41079593,1008.205528
13.0300,72.52778046,35.12685173,1007.923532
13.0350,73.01137212,34.84990292,1007.646782
13.0400,73.4848979,34.57950753,1007.375764
13.0450,73.94775747,34.3167272,1007.110936
13.0500,74.39934611,34.06229061,1006.852713
13.0550,74.83880279,33.81492871,1006.601339
13.0600,75.2657496,33.57736776,1006.357574
13.0650,75.67923356,33.34911836,1006.121715
13.0700,76.077796,33.13131313,1005.894408
13.0750,76.46096446,32.92402941,1005.675859
13.0800,76.82891527,32.72731836,1005.46625
13.0850,77.18048736,32.54266431,1005.265954
13.0900,77.51567162,32.37074345,1005.074999
13.0950,77.83337216,32.21144469,1004.893847
13.1000,78.13366622,32.06585391,1004.722378
13.1050,78.41568654,31.93485173,1004.561083
13.1100,78.67846712,31.81876752,1004.410142
13.1150,78.92167894,31.71754253,1004.269353
13.1200,79.14618373,31.631023,1004.138553
13.1250,79.35370118,31.5608067,1004.017461
13.1300,79.54298045,31.50593259,1003.905984
13.1350,79.71639638,31.46682169,1003.803673
13.1400,79.87419011,31.44233578,1003.710168
13.1450,80.01828285,31.43336119,1003.625194
13.1500,80.14913399,31.44026706,1003.548756
13.1550,80.26945285,31.46095529,1003.479889
13.1600,80.37948637,31.49378735,1003.418388
13.1650,80.48078597,31.53955947,1003.364077
13.1700,80.57423785,31.59715651,1003.316645
13.1750,80.66103929,31.66500214,1003.275623
13.1800,80.74144559,31.74341306,1003.240942
13.1850,80.81717981,31.83107502,1003.212203
13.1900,80.88734403,31.92688549,1003.189399
13.1950,80.95418099,32.03156783,1003.172041
13.2000,81.01656099,32.14316018,1003.160403
13.2050,81.07591151,32.26265383,1003.154263
13.2100,81.13021897,32.38673065,1003.153664
13.2150,81.1798351,32.51632005,1003.158786
13.2200,81.22324957,32.65072592,1003.169768
13.2250,81.26000249,32.78747914,1003.186352
13.2300,81.28933339,32.9277963,1003.208674
13.2350,81.31034112,33.07154678,1003.236949
13.2400,81.32236791,33.21660434,1003.270856
13.2450,81.3238642,33.36307756,1003.310681
13.2500,81.31438305,33.51088052,1003.356539
13.2550,81.29184125,33.65717448,1003.408162
13.2600,81.25471937,33.80328053,1003.466066
13.2650,81.20279307,33.94882404,1003.529999
13.2700,81.13518183,34.09341215,1003.600234
13.2750,81.05144165,34.23669126,1003.676647
13.2800,80.95076102,34.37771042,1003.759242
13.2850,80.83331053,34.5166693,1003.848197
13.2900,80.69771532,34.65394152,1003.943926
13.2950,80.5430775,34.78949253,1004.046871
13.3000,80.37047628,34.92204406,1004.156575
13.3050,80.18025234,35.05352369,1004.273441
13.3100,79.96969771,35.18397617,1004.398231
13.3150,79.73962037,35.3129375,1004.531051
13.3200,79.48895609,35.44157252,1004.672083
13.3250,79.21816515,35.56927682,1004.82141
13.3300,78.92671367,35.69822272,1004.97964
13.3350,78.61295177,35.82813633,1005.147298
13.3400,78.27804582,35.95978594,1005.324099
13.3450,77.92173931,36.09359923,1005.510392
13.3500,77.54284874,36.22835869,1005.706152
13.3550,77.14194955,36.36586153,1005.911552
13.3600,76.71819862,36.50473617,1006.126361
13.3650,76.2706752,36.64739655,1006.35128
13.3700,75.80095983,36.79293825,1006.585617
13.3750,75.30727937,36.94160198,1006.829831
13.3800,74.7894466,37.09374861,1007.084064
13.3850,74.24771205,37.24919673,1007.348356
13.3900,73.68060495,37.4085379,1007.623091
13.3950,73.08916604,37.57157271,1007.908084
13.4000,72.47396177,37.7370309,1008.203156
13.4050,71.83504446,37.90570349,1008.50855
13.4100,71.17409333,38.07816383,1008.823962
13.4150,70.49144953,38.25417474,1009.149767
13.4200,69.78772922,38.43405883,1009.485749
13.4250,69.06196238,38.61687443,1009.832274
13.4300,68.31661763,38.80417632,1010.189673
13.4350,67.55284067,38.99488469,1010.557505
13.4400,66.77131312,39.19037034,1010.936068
13.4450,65.97154483,39.39040313,1011.325981
13.4500,65.15566131,39.59394201,1011.726584
13.4550,64.32362654,39.80161418,1012.138154
13.4600,63.47704804,40.014921,1012.56059
13.4650,62.61689439,40.23410763,1012.993806
13.4700,61.74466091,40.45866269,1013.437459
13.4750,60.86141901,40.68857214,1013.891385
13.4800,59.96780507,40.92446156,1014.355726
13.4850,59.06476408,41.16519355,1014.830071
13.4900,58.1534874,41.41057972,1015.314151
13.4950,57.23384718,41.66005397,1015.808188
13.5000,56.3066741,41.91420556,1016.311775
13.5050,55.37108929,42.17107499,1016.825238
13.5100,54.42914094,42.4310785,1017.348222
13.5150,53.48028281,42.6939311,1017.880673
13.5200,52.52653942,42.95951646,1018.422194
13.5250,51.56882292,43.22749484,1018.972658
13.5300,50.60849471,43.49717139,1019.532086
13.5350,49.64560151,43.76662686,1020.099997
13.5400,48.6814694,44.03746781,1020.676581
13.5450,47.71701535,44.30751882,1021.2615
13.5500,46.75356359,44.5778891,1021.854474
13.5550,45.7910744,44.8491333,1022.455862
13.5600,44.8320552,45.12051071,1023.064901
13.5650,43.8764301,45.3909357,1023.681855
13.5700,42.92524068,45.66105053,1024.306413
13.5750,41.97839918,45.93096251,1024.938627
13.5800,41.03662085,46.19955354,1025.57826
13.5850,40.10008868,46.46735272,1026.224994
13.5900,39.16852711,46.73371499,1026.878844
13.5950,38.24249153,46.99790608,1027.539234
13.6000,37.32102383,47.26179021,1028.206551
13.6050,36.40321958,47.52259897,1028.880579
13.6100,35.49156566,47.78153941,1029.560853
13.6150,34.58419795,48.03915945,1030.247491
13.6200,33.68141835,48.29563742,1030.940679
13.6250,32.781465,48.54993014,1031.640435
13.6300,31.88462098,48.8025088,1032.346528
13.6350,30.99130955,49.05249381,1033.0589
13.6400,30.10007405,49.30024331,1033.77822
13.6450,29.21105625,49.54592623,1034.50459
13.6500,28.32410664,49.79076864,1035.238095
13.6550,27.43900621,50.0339695,1035.978799
13.6600,26.55579574,50.27764475,1036.727221
13.6650,25.67518746,50.51927499,1037.482694
13.6700,24.79575191,50.76000934,1038.246327
13.6750,23.91914909,51.00066406,1039.017816
13.6800,23.0439088,51.2415355,1039.797721
13.6850,22.17000705,51.48189065,1040.585699
13.6900,21.29789735,51.72168717,1041.382257
13.6950,20.42700097,51.96090603,1042.187102
13.7000,19.55636899,52.20047634,1043.001077
13.7050,18.68529212,52.43991891,1043.824345
13.7100,17.81317276,52.68031596,1044.657467
13.7150,16.93976098,52.92118318,1045.500283
13.7200,16.06430821,53.16150089,1046.353537
13.7250,15.18698384,53.40115069,1047.217141
13.7300,14.30566238,53.64024972,1048.091344
