type,name,time_units,begin_time,frequency,count,units
signal_3d,"Noraxon MyoMotion-Trajectories-Body center of mass","s",0.0000,200,5068,"mm"

time,x,y,z
0.0000,1.05612972,17.9701586,1075.330424
0.0050,1.056509424,17.96946743,1075.330226
0.0100,1.056889184,17.96877627,1075.330028
0.0150,1.057269,17.96808513,1075.32983
0.0200,1.05768409,17.9672967,1075.329608
0.0250,1.058132194,17.96640815,1075.329363
0.0300,1.058610321,17.96541862,1075.329096
0.0350,1.059114839,17.96432931,1075.328806
0.0400,1.059641376,17.96314303,1075.328495
0.0450,1.060184795,17.96186362,1075.328165
0.0500,1.060739413,17.96049572,1075.327818
0.0550,1.061299332,17.95904488,1075.327455
0.0600,1.061858708,17.95751759,1075.327079
0.0650,1.0624119,17.95592143,1075.326692
0.0700,1.062953592,17.95426522,1075.326295
0.0750,1.063478841,17.95255909,1075.325893
0.0800,1.063983031,17.95081436,1075.325487
0.0850,1.064461774,17.94904302,1075.325081
0.0900,1.064910903,17.94725709,1075.324676
0.0950,1.065326659,17.94546809,1075.324277
0.1000,1.065705947,17.94368688,1075.323884
0.1050,1.066046371,17.94192373,1075.3235
0.1100,1.066346062,17.94018862,1075.323127
0.1150,1.066603532,17.93849153,1075.322768
0.1200,1.066817565,17.93684247,1075.322423
0.1250,1.066986967,17.93525134,1075.322094
0.1300,1.06711024,17.93372756,1075.321785
0.1350,1.067185401,17.93227982,1075.321495
0.1400,1.067209962,17.93091591,1075.321228
0.1450,1.067180996,17.9296426,1075.320985
0.1500,1.067095383,17.92846559,1075.320767
0.1550,1.067261741,17.92633866,1075.320329
0.1600,1.067421764,17.92430951,1075.319912
0.1650,1.067540013,17.92238961,1075.319524
0.1700,1.067615771,17.92060668,1075.319169
0.1750,1.067642803,17.91891652,1075.318841
0.1800,1.067629128,17.91735291,1075.318541
0.1850,1.067593046,17.9159367,1075.318272
0.1900,1.067545005,17.91468421,1075.318035
0.1950,1.067453592,17.91354563,1075.317825
0.2000,1.067333875,17.91250502,1075.317639
0.2050,1.067175504,17.91162007,1075.317488
0.2100,1.067004382,17.9108446,1075.317361
0.2150,1.066814974,17.9101548,1075.317254
0.2200,1.066659271,17.90957784,1075.317164
0.2250,1.066563676,17.90908963,1075.317084
0.2300,1.066501343,17.90870326,1075.31702
0.2350,1.066492518,17.90844897,1075.316973
0.2400,1.066542439,17.90826575,1075.316934
0.2450,1.066635439,17.90814369,1075.316903
0.2500,1.06680947,17.90806997,1075.316869
0.2550,1.0670849,17.90802642,1075.316829
0.2600,1.067491796,17.90797961,1075.316771
0.2650,1.067999446,17.90799509,1075.316711
0.2700,1.068633651,17.90803222,1075.316639
0.2750,1.069400963,17.90813506,1075.316563
0.2800,1.070292928,17.90829689,1075.316481
0.2850,1.071284324,17.90852444,1075.316398
0.2900,1.072372607,17.90876236,1075.316306
0.2950,1.073554565,17.90904459,1075.31621
0.3000,1.074798654,17.90938949,1075.316118
0.3050,1.076080109,17.90975756,1075.316024
0.3100,1.077435113,17.91016389,1075.315929
0.3150,1.078847899,17.9106001,1075.315831
0.3200,1.08030738,17.91106217,1075.315726
0.3250,1.081776679,17.91153869,1075.315623
0.3300,1.083298914,17.91201275,1075.315514
0.3350,1.084831567,17.91243903,1075.315393
0.3400,1.086372447,17.91285198,1075.315265
0.3450,1.087939993,17.91323883,1075.315129
0.3500,1.089521402,17.91361361,1075.314986
0.3550,1.091137646,17.91395315,1075.314829
0.3600,1.09278401,17.91423799,1075.314655
0.3650,1.094431771,17.91447339,1075.314469
0.3700,1.096099228,17.91463919,1075.314265
0.3750,1.097793225,17.91473405,1075.314042
0.3800,1.099488585,17.91474819,1075.3138
0.3850,1.101197777,17.91465807,1075.313534
0.3900,1.10288809,17.91445373,1075.313247
0.3950,1.104615465,17.91417828,1075.312938
0.4000,1.106387512,17.91378541,1075.312601
0.4050,1.108178046,17.9132961,1075.312244
0.4100,1.109970827,17.91273007,1075.311871
0.4150,1.111769638,17.91208058,1075.311483
0.4200,1.113564806,17.91134893,1075.31108
0.4250,1.115314403,17.91054123,1075.310668
0.4300,1.117081934,17.90965668,1075.31024
0.4350,1.118862967,17.90868025,1075.309794
0.4400,1.12065556,17.90764747,1075.309337
0.4450,1.122467179,17.90657115,1075.30887
0.4500,1.124260853,17.90543454,1075.308395
0.4550,1.126063051,17.90425254,1075.30791
0.4600,1.127870396,17.90303174,1075.307418
0.4650,1.129716522,17.90179585,1075.306914
0.4700,1.131592856,17.90052703,1075.306402
0.4750,1.133477554,17.89922686,1075.30588
0.4800,1.13539541,17.89789469,1075.30535
0.4850,1.137295917,17.89656964,1075.304822
0.4900,1.139217629,17.89519883,1075.304282
0.4950,1.141117795,17.89384342,1075.303747
0.5000,1.143003876,17.89248478,1075.303212
0.5050,1.144903056,17.89107519,1075.302666
0.5100,1.146777665,17.88967336,1075.302122
0.5150,1.148638879,17.8882621,1075.301578
0.5200,1.150445564,17.88680694,1075.301032
0.5250,1.15219649,17.88534028,1075.300491
0.5300,1.153910363,17.88385158,1075.299949
0.5350,1.1555681,17.88231674,1075.299409
0.5400,1.157199657,17.88075462,1075.298867
0.5450,1.158768197,17.87912366,1075.298322
0.5500,1.160292506,17.87746271,1075.297779
0.5550,1.161796083,17.87577613,1075.297234
0.5600,1.163236414,17.87403457,1075.296689
0.5650,1.164651684,17.87224929,1075.296141
0.5700,1.166026501,17.87039224,1075.295586
0.5750,1.167381792,17.8684771,1075.295023
0.5800,1.168729945,17.86649028,1075.294449
0.5850,1.170055986,17.86441362,1075.293863
0.5900,1.171395405,17.86232864,1075.293274
0.5950,1.172734281,17.86017509,1075.292672
0.6000,1.174079201,17.85793405,1075.292054
0.6050,1.175404559,17.85567792,1075.291437
0.6100,1.176751029,17.85340707,1075.290811
0.6150,1.178090452,17.85110946,1075.290183
0.6200,1.179450248,17.84877722,1075.289549
0.6250,1.180802085,17.84644432,1075.288915
0.6300,1.182119551,17.84410551,1075.288281
0.6350,1.183434627,17.84181212,1075.287658
0.6400,1.184779587,17.83956891,1075.28704
0.6450,1.18608929,17.83732918,1075.286426
0.6500,1.187413007,17.83509593,1075.285812
0.6550,1.188697274,17.83293436,1075.285217
0.6600,1.189947079,17.83080981,1075.284633
0.6650,1.19116561,17.82871067,1075.28406
0.6700,1.192332997,17.8266598,1075.283502
0.6750,1.193475464,17.82464335,1075.282954
0.6800,1.194590168,17.82267083,1075.282417
0.6850,1.195693985,17.82080485,1075.281902
0.6900,1.196807582,17.81897009,1075.281392
0.6950,1.197847022,17.81715964,1075.280896
0.7000,1.198854136,17.81542762,1075.28042
0.7050,1.199838172,17.81376122,1075.279958
0.7100,1.200761155,17.81212021,1075.279508
0.7150,1.201671687,17.81055613,1075.279072
0.7200,1.202575341,17.809029,1075.278644
0.7250,1.203460689,17.80755711,1075.27823
0.7300,1.20431347,17.8061573,1075.277831
0.7350,1.205143588,17.80482839,1075.277449
0.7400,1.205929473,17.80352732,1075.277079
0.7450,1.206662838,17.8022615,1075.276722
0.7500,1.207364686,17.80103766,1075.276378
0.7550,1.208000271,17.79984571,1075.276049
0.7600,1.208592828,17.7987304,1075.27574
0.7650,1.209156608,17.79767108,1075.275445
0.7700,1.209708334,17.79660647,1075.275151
0.7750,1.210224152,17.79561668,1075.274877
0.7800,1.210689142,17.79466233,1075.274615
0.7850,1.211138233,17.79375224,1075.274363
0.7900,1.21156852,17.79288072,1075.274121
0.7950,1.211980157,17.79202306,1075.273884
0.8000,1.21239649,17.79119748,1075.273652
0.8050,1.21276093,17.79041303,1075.273435
0.8100,1.213102215,17.78966616,1075.273229
0.8150,1.213441011,17.78896707,1075.27303
0.8200,1.213724415,17.78830321,1075.272844
0.8250,1.213995239,17.78765514,1075.272663
0.8300,1.214211878,17.78702766,1075.272493
0.8350,1.21439488,17.78639885,1075.272328
0.8400,1.214516328,17.78582891,1075.272181
0.8450,1.214649646,17.78529089,1075.27204
0.8500,1.214756572,17.78478062,1075.271908
0.8550,1.214811742,17.78430602,1075.271792
0.8600,1.214840695,17.78387307,1075.271687
0.8650,1.214827587,17.78345169,1075.27159
0.8700,1.214799387,17.78310283,1075.271508
0.8750,1.214756157,17.78278987,1075.271435
0.8800,1.21472654,17.78253188,1075.271371
0.8850,1.214707989,17.7823303,1075.271315
0.8900,1.214693418,17.7821487,1075.271264
0.8950,1.214686109,17.782033,1075.271224
0.9000,1.214719423,17.78197026,1075.271188
0.9050,1.214808434,17.78190287,1075.271145
0.9100,1.214916232,17.78186871,1075.271107
0.9150,1.215053685,17.78186414,1075.271071
0.9200,1.21522092,17.78192572,1075.27104
0.9250,1.215431257,17.78200276,1075.271007
0.9300,1.215702835,17.78212862,1075.270974
0.9350,1.216012321,17.78227813,1075.270938
0.9400,1.216335423,17.78245023,1075.270904
0.9450,1.216701271,17.78267228,1075.270873
0.9500,1.217031744,17.78294653,1075.270855
0.9550,1.217383289,17.78322409,1075.270834
0.9600,1.21775956,17.78351494,1075.270812
0.9650,1.218132366,17.78386631,1075.270799
0.9700,1.218523634,17.78423828,1075.270785
0.9750,1.218882244,17.7846236,1075.270778
0.9800,1.21920002,17.78504098,1075.270781
0.9850,1.219513171,17.78544327,1075.270782
0.9900,1.219750026,17.78588343,1075.270799
0.9950,1.219957744,17.78636586,1075.270828
1.0000,1.220125092,17.78684271,1075.270862
1.0050,1.220262055,17.78732827,1075.2709
1.0100,1.220366793,17.78784886,1075.27095
1.0150,1.220422325,17.78837821,1075.271007
1.0200,1.220407631,17.78896354,1075.271084
1.0250,1.220339175,17.78955246,1075.271169
1.0300,1.220214617,17.7901504,1075.271263
1.0350,1.220050471,17.79077321,1075.271369
1.0400,1.219829127,17.79141597,1075.271483
1.0450,1.219576472,17.79205165,1075.271603
1.0500,1.219302786,17.79271008,1075.271731
1.0550,1.219012849,17.79340062,1075.271866
1.0600,1.218653727,17.79406759,1075.272006
1.0650,1.218201916,17.79470983,1075.272153
1.0700,1.217681518,17.7953871,1075.272316
1.0750,1.217087683,17.79608817,1075.272493
1.0800,1.21641476,17.7967788,1075.272682
1.0850,1.215686267,17.7974514,1075.272874
1.0900,1.214840112,17.79812233,1075.273082
1.0950,1.213951657,17.79879633,1075.273297
1.1000,1.213012624,17.79943915,1075.273514
1.1050,1.212027254,17.80007842,1075.273735
1.1100,1.210995369,17.80066851,1075.273955
1.1150,1.209874873,17.80120045,1075.274178
1.1200,1.208742554,17.80170554,1075.274399
1.1250,1.207533834,17.80217779,1075.274626
1.1300,1.206314656,17.80263567,1075.274855
1.1350,1.205091528,17.80311241,1075.275086
1.1400,1.203860706,17.80355966,1075.275315
1.1450,1.202598092,17.8040124,1075.275548
1.1500,1.201328253,17.80444605,1075.27578
1.1550,1.200062216,17.80485597,1075.276009
1.1600,1.198805407,17.80527583,1075.27624
1.1650,1.197600971,17.80568516,1075.276462
1.1700,1.196412109,17.80607707,1075.276682
1.1750,1.195230264,17.80645025,1075.276899
1.1800,1.194047748,17.80679312,1075.277111
1.1850,1.192883779,17.80711016,1075.277316
1.1900,1.191793598,17.80743968,1075.277514
1.1950,1.190700102,17.80770618,1075.277702
1.2000,1.189635232,17.80797109,1075.277887
1.2050,1.188590649,17.80826071,1075.278072
1.2100,1.187534223,17.80855942,1075.278258
1.2150,1.186483646,17.8088847,1075.278447
1.2200,1.185430179,17.80917227,1075.278627
1.2250,1.184397806,17.8094485,1075.278801
1.2300,1.183343554,17.8096965,1075.278971
1.2350,1.182329318,17.80994049,1075.279134
1.2400,1.181326704,17.8101525,1075.279286
1.2450,1.180362128,17.81032255,1075.279424
1.2500,1.179463224,17.81046692,1075.279545
1.2550,1.178583524,17.81059267,1075.279659
1.2600,1.177746964,17.81069696,1075.27976
1.2650,1.176975355,17.81071713,1075.279837
1.2700,1.176287375,17.81069997,1075.279896
1.2750,1.175664927,17.81065566,1075.279938
1.2800,1.175142298,17.81050452,1075.279947
1.2850,1.174669489,17.81030552,1075.279941
1.2900,1.174331073,17.81006713,1075.279907
1.2950,1.174093888,17.80976504,1075.279846
1.3000,1.173944979,17.8094084,1075.279761
1.3050,1.173875633,17.80901588,1075.279657
1.3100,1.173933284,17.80856409,1075.279523
1.3150,1.174051709,17.8080774,1075.279372
1.3200,1.174226857,17.80752465,1075.2792
1.3250,1.174442782,17.80692466,1075.279012
1.3300,1.174697949,17.80628814,1075.278809
1.3350,1.174983938,17.80559807,1075.278588
1.3400,1.17526867,17.80489286,1075.278364
1.3450,1.175547758,17.80414833,1075.278132
1.3500,1.175812799,17.80335522,1075.277888
1.3550,1.176076155,17.80248896,1075.277631
1.3600,1.17638523,17.80156911,1075.277358
1.3650,1.176709051,17.80056706,1075.27707
1.3700,1.177006973,17.79947865,1075.276769
1.3750,1.177321783,17.79825685,1075.276445
1.3800,1.17766237,17.79697124,1075.276106
1.3850,1.177993751,17.795606,1075.275759
1.3900,1.178308033,17.79416843,1075.275401
1.3950,1.178549707,17.79261269,1075.275039
1.4000,1.178688814,17.79102066,1075.274686
1.4050,1.178701686,17.7893317,1075.274341
1.4100,1.178541141,17.78757441,1075.274013
1.4150,1.178189135,17.78572815,1075.273701
1.4200,1.177581151,17.78382059,1075.273422
1.4250,1.176722445,17.78186567,1075.273175
1.4300,1.175571184,17.77984313,1075.272965
1.4350,1.174091613,17.77774387,1075.272797
1.4400,1.172290956,17.77558614,1075.272671
1.4450,1.170158974,17.77336102,1075.272591
1.4500,1.167672374,17.77109078,1075.272565
1.4550,1.164862756,17.76873387,1075.272578
1.4600,1.161703047,17.76631655,1075.272646
1.4650,1.158188208,17.7638402,1075.272767
1.4700,1.154386954,17.76130315,1075.272935
1.4750,1.150281984,17.75868974,1075.273149
1.4800,1.145911503,17.75603442,1075.273414
1.4850,1.141272545,17.75332084,1075.273729
1.4900,1.136370169,17.75055728,1075.274093
1.4950,1.131294731,17.74776085,1075.274499
1.5000,1.126019377,17.74490823,1075.274949
1.5050,1.120584126,17.74199396,1075.275441
1.5100,1.114982318,17.73897282,1075.27597
1.5150,1.109182015,17.735874,1075.276549
1.5200,1.103219436,17.73269239,1075.277176
1.5250,1.097088752,17.72947462,1075.277858
1.5300,1.090777525,17.72617973,1075.278593
1.5350,1.084218658,17.72275294,1075.279382
1.5400,1.077428135,17.71924829,1075.280234
1.5450,1.070386115,17.71564992,1075.281152
1.5500,1.063056342,17.71194197,1075.282139
1.5550,1.055470658,17.70811484,1075.283191
1.5600,1.04759322,17.70421914,1075.284323
1.5650,1.039466971,17.70026205,1075.285533
1.5700,1.031018826,17.69624973,1075.286833
1.5750,1.022332646,17.69220187,1075.288216
1.5800,1.013389062,17.68813271,1075.289689
1.5850,1.004230367,17.68402324,1075.291246
1.5900,0.9948419703,17.67988488,1075.29289
1.5950,0.9852569453,17.67572375,1075.294625
1.6000,0.9754601487,17.67156508,1075.296457
1.6050,0.9654674408,17.66738019,1075.298382
1.6100,0.9552432371,17.66318256,1075.30041
1.6150,0.9448208208,17.65895034,1075.302541
1.6200,0.9341966941,17.65471099,1075.304778
1.6250,0.9233744334,17.65045853,1075.307126
1.6300,0.9123425147,17.64621174,1075.309591
1.6350,0.9010805967,17.64194316,1075.31218
1.6400,0.889594482,17.6376167,1075.314887
1.6450,0.8779110525,17.6332973,1075.317725
1.6500,0.8660285843,17.6289763,1075.320699
1.6550,0.853912357,17.62462485,1075.323816
1.6600,0.8415582671,17.62024218,1075.327081
1.6650,0.8289846769,17.61585432,1075.330503
1.6700,0.8162216326,17.61143218,1075.334081
1.6750,0.8032613563,17.60699084,1075.337822
1.6800,0.7900865049,17.60246728,1075.341732
1.6850,0.7766846843,17.59786906,1075.345816
1.6900,0.7630928739,17.59316084,1075.350076
1.6950,0.7493676665,17.58839432,1075.354516
1.7000,0.7354550063,17.58349258,1075.359141
1.7050,0.7214178182,17.578496,1075.363952
1.7100,0.7072815591,17.57340073,1075.368952
1.7150,0.6930545775,17.56826371,1075.374153
1.7200,0.6787602077,17.56306125,1075.379554
1.7250,0.6643405582,17.55779379,1075.385164
1.7300,0.6497957697,17.55247639,1075.390991
1.7350,0.6351163278,17.54708714,1075.397035
1.7400,0.6202390716,17.54167942,1075.40332
1.7450,0.6051913478,17.53625216,1075.409839
1.7500,0.5899408785,17.53084093,1075.416604
1.7550,0.5744111611,17.52551574,1075.423641
1.7600,0.5586296116,17.52021676,1075.430932
1.7650,0.5425640512,17.51500138,1075.438497
1.7700,0.5261724883,17.5098887,1075.446335
1.7750,0.5094885743,17.50492302,1075.454453
1.7800,0.4924875096,17.50009201,1075.462844
1.7850,0.4751951902,17.49544781,1075.471515
1.7900,0.4575977539,17.49093947,1075.480459
1.7950,0.4396774506,17.48663403,1075.489681
1.8000,0.4214416171,17.48253147,1075.499179
1.8050,0.4028731275,17.47865598,1075.508952
1.8100,0.384005115,17.47502124,1075.518999
1.8150,0.3648652985,17.47160123,1075.529306
1.8200,0.3453902883,17.46846167,1075.53988
1.8250,0.3255544115,17.465513,1075.55072
1.8300,0.3053929124,17.46282236,1075.561828
1.8350,0.2849139385,17.46040939,1075.573199
1.8400,0.2640960956,17.45823547,1075.584838
1.8450,0.2429419781,17.45630836,1075.59674
1.8500,0.2214414033,17.45462951,1075.608903
1.8550,0.1996044083,17.45323277,1075.621335
1.8600,0.1773917542,17.45204651,1075.634026
1.8650,0.1547995739,17.45110787,1075.646983
1.8700,0.1318369093,17.45034385,1075.660198
1.8750,0.1084804301,17.4497636,1075.673672
1.8800,0.08475482701,17.44936619,1075.687408
1.8850,0.06064214978,17.44915118,1075.701409
1.8900,0.03612624805,17.44903327,1075.715672
1.8950,0.01123309561,17.44902211,1075.730188
1.9000,-0.0140344088,17.44911108,1075.74496
1.9050,-0.03963640046,17.44928591,1075.759984
1.9100,-0.06556477631,17.44953314,1075.775257
1.9150,-0.0917992152,17.44986256,1075.790778
1.9200,-0.1182652238,17.45025474,1075.806538
1.9250,-0.1449595872,17.45070798,1075.822539
1.9300,-0.1718311049,17.45118139,1075.83878
1.9350,-0.198832724,17.45174514,1075.855253
1.9400,-0.2259631124,17.4524145,1075.87197
1.9450,-0.2532300998,17.45319442,1075.888934
1.9500,-0.2806264808,17.45408694,1075.906145
1.9550,-0.308089477,17.45512833,1075.923593
1.9600,-0.3356359035,17.45630308,1075.941291
1.9650,-0.3632260031,17.45760236,1075.959221
1.9700,-0.3908659119,17.45903718,1075.977391
1.9750,-0.4185596488,17.46059303,1075.995798
1.9800,-0.4462494747,17.46234863,1076.01444
1.9850,-0.4739254869,17.46425712,1076.033313
1.9900,-0.5015825859,17.46635304,1076.052417
1.9950,-0.5292434048,17.46861324,1076.071755
2.0000,-0.5568540407,17.4710826,1076.09132
2.0050,-0.5844293383,17.47373552,1076.111112
2.0100,-0.6118937962,17.47660474,1076.131124
2.0150,-0.6392353744,17.47967494,1076.151357
2.0200,-0.6664481708,17.48294427,1076.171809
2.0250,-0.6934608679,17.48641718,1076.192474
2.0300,-0.7202247687,17.49013425,1076.213349
2.0350,-0.7467411777,17.4941301,1076.234444
2.0400,-0.7729544878,17.49840437,1076.255742
2.0450,-0.7988740402,17.50297683,1076.277251
2.0500,-0.8244579967,17.50784225,1076.298972
2.0550,-0.8496239803,17.51301006,1076.320888
2.0600,-0.8743982527,17.51851676,1076.343008
2.0650,-0.8987816066,17.52438031,1076.36533
2.0700,-0.9227698358,17.5305747,1076.387861
2.0750,-0.9463152632,17.53712342,1076.410588
2.0800,-0.9694386619,17.54404905,1076.433523
2.0850,-0.9921562288,17.55134167,1076.456665
2.0900,-1.014512926,17.55903662,1076.480026
2.0950,-1.036510419,17.56710456,1076.503606
2.1000,-1.058139474,17.57553482,1076.52741
2.1050,-1.079459042,17.58429811,1076.55144
2.1100,-1.100470438,17.59339086,1076.575691
2.1150,-1.121241036,17.60278117,1076.600179
2.1200,-1.141739345,17.61245558,1076.624896
2.1250,-1.16197539,17.62241253,1076.649838
2.1300,-1.181972315,17.63260302,1076.67501
2.1350,-1.201735015,17.64301656,1076.700418
2.1400,-1.221301027,17.65365289,1076.72606
2.1450,-1.240709999,17.66449095,1076.751941
2.1500,-1.259952647,17.67549615,1076.77806
2.1550,-1.279030988,17.68663578,1076.804413
2.1600,-1.297901752,17.69789904,1076.831001
2.1650,-1.316609198,17.7092738,1076.857819
2.1700,-1.335136511,17.72081464,1076.884886
2.1750,-1.35344143,17.73248305,1076.9122
2.1800,-1.371564163,17.74427519,1076.939752
2.1850,-1.389458877,17.75616282,1076.967545
2.1900,-1.40713812,17.76816558,1076.995578
2.1950,-1.424612213,17.78026795,1077.023857
2.2000,-1.441881929,17.79244984,1077.05237
2.2050,-1.45897674,17.80470451,1077.081126
2.2100,-1.475865144,17.81701991,1077.11012
2.2150,-1.492596349,17.82940353,1077.139343
2.2200,-1.50918391,17.84187907,1077.168802
2.2250,-1.525646723,17.85440357,1077.198491
2.2300,-1.542001896,17.86699933,1077.228416
2.2350,-1.558306914,17.87958647,1077.258572
2.2400,-1.574490956,17.89217401,1077.288942
2.2450,-1.590631179,17.90472556,1077.319525
2.2500,-1.606727983,17.91719121,1077.350317
2.2550,-1.622800561,17.92958002,1077.381321
2.2600,-1.63886747,17.94188245,1077.412525
2.2650,-1.654887358,17.95407065,1077.443939
2.2700,-1.670884012,17.9661792,1077.475561
2.2750,-1.686831938,17.97821063,1077.507391
2.2800,-1.702729612,17.99014369,1077.539415
2.2850,-1.718580937,18.00195916,1077.571643
2.2900,-1.734361832,18.01367784,1077.604075
2.2950,-1.750070443,18.02528584,1077.636693
2.3000,-1.765682152,18.03672601,1077.669497
2.3050,-1.781217318,18.04803357,1077.702489
2.3100,-1.796713435,18.05916861,1077.735658
2.3150,-1.812143629,18.07017015,1077.769003
2.3200,-1.827518231,18.08102922,1077.802516
2.3250,-1.842840997,18.09177237,1077.836212
2.3300,-1.858178054,18.10237033,1077.87007
2.3350,-1.87349418,18.11284071,1077.904088
2.3400,-1.888787259,18.1231841,1077.938266
2.3450,-1.904042954,18.13343918,1077.972602
2.3500,-1.919256517,18.14359237,1078.007074
2.3550,-1.93447165,18.15368358,1078.041692
2.3600,-1.949707448,18.16371842,1078.07645
2.3650,-1.964961611,18.17368649,1078.111332
2.3700,-1.98018111,18.18362549,1078.146324
2.3750,-1.995459599,18.19348783,1078.181424
2.3800,-2.010797065,18.20329092,1078.216623
2.3850,-2.026164369,18.21305708,1078.251911
2.3900,-2.041560771,18.22276644,1078.287268
2.3950,-2.056952687,18.23248607,1078.322703
2.4000,-2.072354069,18.24219483,1078.35818
2.4050,-2.087691548,18.25193491,1078.393708
2.4100,-2.102972137,18.26173058,1078.42928
2.4150,-2.118118647,18.27155863,1078.464876
2.4200,-2.133157476,18.28144599,1078.5005
2.4250,-2.14811035,18.29138954,1078.536151
2.4300,-2.162915942,18.30140477,1078.57182
2.4350,-2.177630619,18.31144561,1078.607492
2.4400,-2.192189464,18.32158014,1078.643162
2.4450,-2.206564225,18.33177325,1078.678815
2.4500,-2.220704971,18.34206843,1078.714441
2.4550,-2.234656245,18.35244375,1078.750035
2.4600,-2.248438762,18.36294086,1078.785609
2.4650,-2.262021978,18.37351786,1078.821151
2.4700,-2.27544711,18.38418773,1078.856647
2.4750,-2.288752449,18.39490139,1078.892099
2.4800,-2.301974823,18.40564613,1078.927514
2.4850,-2.315111077,18.41642457,1078.962878
2.4900,-2.328152269,18.42724919,1078.998174
2.4950,-2.341131307,18.4381059,1079.03341
2.5000,-2.354087129,18.44898388,1079.068591
2.5050,-2.367022343,18.45988474,1079.103692
2.5100,-2.37998477,18.47080845,1079.138724
2.5150,-2.392943939,18.48171042,1079.173687
2.5200,-2.405935681,18.49254325,1079.208572
2.5250,-2.41891878,18.50337339,1079.243403
2.5300,-2.431930934,18.51411885,1079.27815
2.5350,-2.444912812,18.52481963,1079.312805
2.5400,-2.457905626,18.53544562,1079.347361
2.5450,-2.470889556,18.54593923,1079.381819
2.5500,-2.483897337,18.55633909,1079.416174
2.5550,-2.49692639,18.56661164,1079.450418
2.5600,-2.509969025,18.57673677,1079.484547
2.5650,-2.523065844,18.58670018,1079.518556
2.5700,-2.536179463,18.59640991,1079.552413
2.5750,-2.549372581,18.60584965,1079.586134
2.5800,-2.56265853,18.61498741,1079.619702
2.5850,-2.576026692,18.62388425,1079.653108
2.5900,-2.589529956,18.63252813,1079.686344
2.5950,-2.603194481,18.64092799,1079.719431
2.6000,-2.617023533,18.64912675,1079.752353
2.6050,-2.630992994,18.65709437,1079.785104
2.6100,-2.645043637,18.66490601,1079.817698
2.6150,-2.659223544,18.67260643,1079.850136
2.6200,-2.673453668,18.68019208,1079.88241
2.6250,-2.687698064,18.68767225,1079.914505
2.6300,-2.701970861,18.69505165,1079.946425
2.6350,-2.716226624,18.7023454,1079.978161
2.6400,-2.730453601,18.70954566,1080.009702
2.6450,-2.744669956,18.71665858,1080.041061
2.6500,-2.75883929,18.72371129,1080.072236
2.6550,-2.77293972,18.73068524,1080.103231
2.6600,-2.786898647,18.73758341,1080.134037
2.6650,-2.800667445,18.74439373,1080.164639
2.6700,-2.814256524,18.75108406,1080.19505
2.6750,-2.827662641,18.75768794,1080.225261
2.6800,-2.840888038,18.76418456,1080.255278
2.6850,-2.853917498,18.77054009,1080.285094
2.6900,-2.866705839,18.77683207,1080.314722
2.6950,-2.87924177,18.78303062,1080.344155
2.7000,-2.891491328,18.78914753,1080.373401
2.7050,-2.903439975,18.79516333,1080.402452
2.7100,-2.91507341,18.80104244,1080.431293
2.7150,-2.926424925,18.80678639,1080.459929
2.7200,-2.937546064,18.81234832,1080.488349
2.7250,-2.948449772,18.81775835,1080.516573
2.7300,-2.959228195,18.82301452,1080.544605
2.7350,-2.969794289,18.82821831,1080.572469
2.7400,-2.980172884,18.83329434,1080.600161
2.7450,-2.990332553,18.83830599,1080.627702
2.7500,-3.000302614,18.84322629,1080.655075
2.7550,-3.010077427,18.84810665,1080.682309
2.7600,-3.019640322,18.85293178,1080.709392
2.7650,-3.028951155,18.85770487,1080.736312
2.7700,-3.038010676,18.86238692,1080.763069
2.7750,-3.046843047,18.86702097,1080.789668
2.7800,-3.05541947,18.87158625,1080.816108
2.7850,-3.063811124,18.87606303,1080.842389
2.7900,-3.072058565,18.88044182,1080.868534
2.7950,-3.080137987,18.88474587,1080.894533
2.8000,-3.08806923,18.88895303,1080.92038
2.8050,-3.095889419,18.89304671,1080.94611
2.8100,-3.103583097,18.89704821,1080.971715
2.8150,-3.111174592,18.90097446,1080.997205
2.8200,-3.118676078,18.90483322,1081.022571
2.8250,-3.126124916,18.90859074,1081.047808
2.8300,-3.133513067,18.91235887,1081.072946
2.8350,-3.140902376,18.9160856,1081.098017
2.8400,-3.148304392,18.91978955,1081.123012
2.8450,-3.155691325,18.92355188,1081.147945
2.8500,-3.163046217,18.92735932,1081.172818
2.8550,-3.170377423,18.9312608,1081.197652
2.8600,-3.177679275,18.93527789,1081.222438
2.8650,-3.184936116,18.93944393,1081.247193
2.8700,-3.192194428,18.94379364,1081.271941
2.8750,-3.199388579,18.94832309,1081.296662
2.8800,-3.206546362,18.95297159,1081.321372
2.8850,-3.213673508,18.95770667,1081.34605
2.8900,-3.220729421,18.9624957,1081.370712
2.8950,-3.227710757,18.96736483,1081.395356
2.9000,-3.234624829,18.97230178,1081.419989
2.9050,-3.241461914,18.97733568,1081.44461
2.9100,-3.24827318,18.98238378,1081.469217
2.9150,-3.255031832,18.98740476,1081.493795
2.9200,-3.261749075,18.99248584,1081.518365
2.9250,-3.268437039,18.99758404,1081.542923
2.9300,-3.275028185,19.0027229,1081.567465
2.9350,-3.281604662,19.00783068,1081.591996
2.9400,-3.28818353,19.01298765,1081.616547
2.9450,-3.294745196,19.0181611,1081.641097
2.9500,-3.301274797,19.02337376,1081.665656
2.9550,-3.30775997,19.02860701,1081.690195
2.9600,-3.314155897,19.03384945,1081.714718
2.9650,-3.320539117,19.03912642,1081.739257
2.9700,-3.326892313,19.04444276,1081.763801
2.9750,-3.333149336,19.04976974,1081.788336
2.9800,-3.339295249,19.05510463,1081.812866
2.9850,-3.345310966,19.06048728,1081.837384
2.9900,-3.35122602,19.06590055,1081.861906
2.9950,-3.357035023,19.07126825,1081.886395
3.0000,-3.362810848,19.07661951,1081.910873
3.0050,-3.368576205,19.0818947,1081.935321
3.0100,-3.374358863,19.08715573,1081.959776
3.0150,-3.380197618,19.09242014,1081.984239
3.0200,-3.386063848,19.09763773,1082.008711
3.0250,-3.39195663,19.10280503,1082.033172
3.0300,-3.397881008,19.10796927,1082.057646
3.0350,-3.403839298,19.11308743,1082.082117
3.0400,-3.409807722,19.11818125,1082.106571
3.0450,-3.415744215,19.12329663,1082.131004
3.0500,-3.421607656,19.12845405,1082.155426
3.0550,-3.427369124,19.13363681,1082.179811
3.0600,-3.433013635,19.1388221,1082.204148
3.0650,-3.438619506,19.14399788,1082.228452
3.0700,-3.444152998,19.14916934,1082.252713
3.0750,-3.449671201,19.1542852,1082.276931
3.0800,-3.455192964,19.15939842,1082.301127
3.0850,-3.460708662,19.16444476,1082.325295
3.0900,-3.466198054,19.16942331,1082.349419
3.0950,-3.471738595,19.17432897,1082.373529
3.1000,-3.477308388,19.17915071,1082.397605
3.1050,-3.48296503,19.18385841,1082.421641
3.1100,-3.488738274,19.18841944,1082.445629
3.1150,-3.494638775,19.19285445,1082.469576
3.1200,-3.500626802,19.19721436,1082.493498
3.1250,-3.506764159,19.20152947,1082.51741
3.1300,-3.513038238,19.20578172,1082.541295
3.1350,-3.519475878,19.21006269,1082.565162
3.1400,-3.526061961,19.21439154,1082.589016
3.1450,-3.5328337,19.21876376,1082.612847
3.1500,-3.539806988,19.22318782,1082.636656
3.1550,-3.547012956,19.22763246,1082.66044
3.1600,-3.554399034,19.23214824,1082.684191
3.1650,-3.562021492,19.23674956,1082.707912
3.1700,-3.569843411,19.24144386,1082.731584
3.1750,-3.577802733,19.24621113,1082.755172
3.1800,-3.585838614,19.25117387,1082.77869
3.1850,-3.59385758,19.25634203,1082.802125
3.1900,-3.601834861,19.26169294,1082.825433
3.1950,-3.609686286,19.26718252,1082.848577
3.2000,-3.617416505,19.27278534,1082.871545
3.2050,-3.624997527,19.27849298,1082.894337
3.2100,-3.632435424,19.28432294,1082.916939
3.2150,-3.639691337,19.29020716,1082.939335
3.2200,-3.646832483,19.29607995,1082.96153
3.2250,-3.653873515,19.30195045,1082.983532
3.2300,-3.660769915,19.30779035,1083.005327
3.2350,-3.667512494,19.31362051,1083.026922
3.2400,-3.6740879,19.31933556,1083.048276
3.2450,-3.680519517,19.3249699,1083.069418
3.2500,-3.68683734,19.33046476,1083.090337
3.2550,-3.693058508,19.33584788,1083.111053
3.2600,-3.69925345,19.34115544,1083.131605
3.2650,-3.70534006,19.34639999,1083.151972
3.2700,-3.711332659,19.35157868,1083.172155
3.2750,-3.717296442,19.35673881,1083.192202
3.2800,-3.723208945,19.3619129,1083.212106
3.2850,-3.729128912,19.3670757,1083.231894
3.2900,-3.735054362,19.37223563,1083.251569
3.2950,-3.741018452,19.37747614,1083.271174
3.3000,-3.747010732,19.3827854,1083.290725
3.3050,-3.753014033,19.38821349,1083.310233
3.3100,-3.758964986,19.39373683,1083.329679
3.3150,-3.764827876,19.39935277,1083.349067
3.3200,-3.770536252,19.40510054,1083.368367
3.3250,-3.776055573,19.41096972,1083.387574
3.3300,-3.781340165,19.41690818,1083.406659
3.3350,-3.786397364,19.42293747,1083.425629
3.3400,-3.791281675,19.42900797,1083.444497
3.3450,-3.796061592,19.43507315,1083.463284
3.3500,-3.800778671,19.44111148,1083.482
3.3550,-3.805458025,19.44715704,1083.500675
3.3600,-3.810079076,19.45321879,1083.519311
3.3650,-3.814674852,19.45932414,1083.537933
3.3700,-3.819269272,19.46547864,1083.556577
3.3750,-3.823819809,19.47168431,1083.575224
3.3800,-3.82835858,19.47793634,1083.593881
3.3850,-3.832932979,19.48427789,1083.61257
3.3900,-3.837546797,19.49067058,1083.631304
3.3950,-3.842216581,19.4971062,1083.650077
3.4000,-3.847025544,19.50359016,1083.668922
3.4050,-3.851979473,19.51015027,1083.687847
3.4100,-3.857091369,19.51679923,1083.706869
3.4150,-3.862380013,19.52355065,1083.726001
3.4200,-3.867952265,19.53033533,1083.745255
3.4250,-3.873746416,19.53719311,1083.76462
3.4300,-3.87979097,19.54410218,1083.784108
3.4350,-3.886061662,19.55103449,1083.803699
3.4400,-3.892548507,19.55796061,1083.823398
3.4450,-3.899238486,19.56484471,1083.843176
3.4500,-3.906082644,19.5716959,1083.86303
3.4550,-3.913057567,19.57850145,1083.882916
3.4600,-3.920177384,19.58520105,1083.902832
3.4650,-3.927380112,19.59176293,1083.922746
3.4700,-3.934667653,19.59813775,1083.942644
3.4750,-3.942057834,19.60433778,1083.962547
3.4800,-3.949531504,19.61027279,1083.982403
3.4850,-3.957146809,19.61592163,1084.002222
3.4900,-3.964891742,19.62126546,1084.022001
3.4950,-3.972815066,19.62632383,1084.041758
3.5000,-3.980834488,19.63109952,1084.061472
3.5050,-3.988992185,19.63555652,1084.081139
3.5100,-3.997231903,19.63967262,1084.100738
3.5150,-4.005557213,19.6434656,1084.120266
3.5200,-4.013990338,19.64692715,1084.139723
3.5250,-4.022511422,19.65004875,1084.159089
3.5300,-4.031198192,19.6528293,1084.178392
3.5350,-4.039964729,19.65529298,1084.197598
3.5400,-4.048835993,19.65747612,1084.216726
3.5450,-4.057787453,19.65934505,1084.235746
3.5500,-4.066825862,19.66094397,1084.254676
3.5550,-4.075919952,19.6622679,1084.273496
3.5600,-4.085059507,19.6633539,1084.292193
3.5650,-4.094257209,19.66419296,1084.310765
3.5700,-4.103474749,19.66487966,1084.329229
3.5750,-4.112693445,19.66540735,1084.347559
3.5800,-4.121870954,19.66577122,1084.365741
3.5850,-4.130988139,19.66601208,1084.383762
3.5900,-4.140002187,19.66611984,1084.401593
3.5950,-4.148902351,19.66610511,1084.41923
3.6000,-4.157608077,19.66598066,1084.436629
3.6050,-4.1661264,19.6657554,1084.453794
3.6100,-4.174495897,19.66545139,1084.470727
3.6150,-4.182654507,19.66510584,1084.487416
3.6200,-4.19060822,19.66475062,1084.503884
3.6250,-4.198349435,19.66438151,1084.520116
3.6300,-4.205893156,19.66403383,1084.536115
3.6350,-4.21324183,19.66369843,1084.551894
3.6400,-4.220346594,19.66345734,1084.567452
3.6450,-4.227185114,19.66331439,1084.582773
3.6500,-4.233757116,19.66331444,1084.597879
3.6550,-4.240065976,19.6634245,1084.612741
3.6600,-4.246168316,19.66367857,1084.6274
3.6650,-4.25202897,19.66403049,1084.641828
3.6700,-4.257650335,19.66451516,1084.656015
3.6750,-4.26306708,19.66516694,1084.670005
3.6800,-4.268269511,19.66592504,1084.683783
3.6850,-4.273251941,19.66684204,1084.697347
3.6900,-4.278069545,19.66790684,1084.71072
3.6950,-4.282713512,19.66916143,1084.723914
3.7000,-4.287156633,19.67058426,1084.736929
3.7050,-4.291414945,19.67217067,1084.74977
3.7100,-4.295507946,19.67394306,1084.762467
3.7150,-4.299458878,19.67587073,1084.775035
3.7200,-4.303250845,19.67802159,1084.787496
3.7250,-4.306911259,19.68033347,1084.799833
3.7300,-4.310433729,19.68281128,1084.812061
3.7350,-4.31380636,19.68543665,1084.824174
3.7400,-4.317048617,19.68822307,1084.836192
3.7450,-4.32016634,19.69117803,1084.848132
3.7500,-4.323147043,19.6942665,1084.859974
3.7550,-4.32602669,19.69743995,1084.871734
3.7600,-4.328812381,19.7007087,1084.883429
3.7650,-4.331523944,19.70401277,1084.895041
3.7700,-4.33414077,19.7073664,1084.90657
3.7750,-4.336708963,19.71073823,1084.918041
3.7800,-4.339269674,19.71410124,1084.929468
3.7850,-4.341782272,19.71740919,1084.940804
3.7900,-4.344301263,19.72069205,1084.952096
3.7950,-4.346807222,19.72391294,1084.963317
3.8000,-4.349316672,19.7270545,1084.974463
3.8050,-4.351809994,19.73010074,1084.985515
3.8100,-4.354343073,19.73298946,1084.996466
3.8150,-4.356923874,19.73570486,1085.007308
3.8200,-4.359480727,19.73825496,1085.018006
3.8250,-4.362091428,19.74061843,1085.028597
3.8300,-4.364735449,19.74277636,1085.039039
3.8350,-4.3674849,19.74470488,1085.049351
3.8400,-4.370300221,19.74639665,1085.059517
3.8450,-4.373234458,19.74787872,1085.069558
3.8500,-4.376272975,19.74910661,1085.079443
3.8550,-4.379424786,19.7501229,1085.089195
3.8600,-4.382666772,19.75087759,1085.098788
3.8650,-4.386036931,19.75138953,1085.108225
3.8700,-4.389535426,19.75160863,1085.117497
3.8750,-4.393118157,19.75160421,1085.126604
3.8800,-4.396819449,19.75133303,1085.135545
3.8850,-4.40062545,19.75081231,1085.144314
3.8900,-4.404526644,19.75007531,1085.152927
3.8950,-4.408497097,19.74912789,1085.161359
3.9000,-4.412604133,19.74796759,1085.169645
3.9050,-4.416786159,19.74663093,1085.177779
3.9100,-4.421057561,19.74507625,1085.185745
3.9150,-4.425430054,19.74334058,1085.193555
3.9200,-4.429924608,19.74142449,1085.201215
3.9250,-4.434512535,19.7393689,1085.208731
3.9300,-4.439159265,19.73716837,1085.216083
3.9350,-4.443834688,19.73486857,1085.22326
3.9400,-4.448491568,19.73245925,1085.23024
3.9450,-4.453157343,19.72999212,1085.237055
3.9500,-4.457762272,19.72746623,1085.243657
3.9550,-4.462322099,19.72491406,1085.250078
3.9600,-4.466787966,19.72233322,1085.256274
3.9650,-4.471183459,19.71977658,1085.262281
3.9700,-4.475473734,19.71722314,1085.268076
3.9750,-4.479625056,19.71465616,1085.273636
3.9800,-4.483675162,19.71214756,1085.278983
3.9850,-4.487591995,19.70964455,1085.284111
3.9900,-4.491366013,19.7071988,1085.289014
3.9950,-4.495003024,19.70477079,1085.293684
4.0000,-4.498496538,19.70241287,1085.298137
4.0050,-4.501787292,19.70015555,1085.302362
4.0100,-4.5049132,19.69799768,1085.306359
4.0150,-4.507860296,19.69592018,1085.310115
4.0200,-4.51060048,19.6939441,1085.31362
4.0250,-4.513135896,19.69208098,1085.316904
4.0300,-4.51549351,19.69031955,1085.319961
4.0350,-4.517688899,19.68871941,1085.322822
4.0400,-4.519702748,19.68723236,1085.325463
4.0450,-4.521529167,19.68582678,1085.327871
4.0500,-4.523205064,19.68451965,1085.330062
4.0550,-4.524690366,19.68336326,1085.332043
4.0600,-4.526048963,19.68229343,1085.333799
4.0650,-4.527263473,19.68135133,1085.335348
4.0700,-4.528351337,19.6805146,1085.336696
4.0750,-4.529336966,19.67976598,1085.337833
4.0800,-4.530213794,19.6791434,1085.338762
4.0850,-4.53102346,19.67865375,1085.339514
4.0900,-4.531723049,19.67825903,1085.340046
4.0950,-4.532322367,19.67797471,1085.340365
4.1000,-4.532870098,19.67778218,1085.340479
4.1050,-4.533340337,19.67766771,1085.340369
4.1100,-4.533768785,19.67765214,1085.340067
4.1150,-4.534177264,19.67772682,1085.339585
4.1200,-4.534634792,19.67783851,1085.338917
4.1250,-4.535069989,19.67798545,1085.338015
4.1300,-4.535506345,19.67817539,1085.336906
4.1350,-4.53592974,19.67837702,1085.335555
4.1400,-4.536362968,19.67860673,1085.33397
4.1450,-4.536778054,19.67884256,1085.332126
4.1500,-4.537146322,19.67910759,1085.330007
4.1550,-4.537465055,19.67935992,1085.327583
4.1600,-4.537733264,19.67961408,1085.324849
4.1650,-4.53789805,19.67990361,1085.3218
4.1700,-4.538002126,19.68021267,1085.318435
4.1750,-4.538007929,19.68048451,1085.314707
4.1800,-4.537897143,19.68080368,1085.31063
4.1850,-4.537634452,19.68113421,1085.306176
4.1900,-4.537232538,19.6814474,1085.301306
4.1950,-4.536718566,19.68173338,1085.296047
4.2000,-4.53604955,19.68202198,1085.290369
4.2050,-4.53521671,19.68228312,1085.284258
4.2100,-4.534224572,19.68254697,1085.277718
4.2150,-4.533013269,19.68277969,1085.270702
4.2200,-4.531558732,19.68300592,1085.263215
4.2250,-4.52989373,19.68317081,1085.255245
4.2300,-4.528002522,19.68331295,1085.24679
4.2350,-4.52588484,19.68340143,1085.237848
4.2400,-4.523567571,19.68344642,1085.228425
4.2450,-4.521024105,19.68341334,1085.218494
4.2500,-4.518280654,19.68331003,1085.208075
4.2550,-4.515333198,19.68311016,1085.197154
4.2600,-4.512229416,19.68282943,1085.185777
4.2650,-4.5089066,19.68246462,1085.173908
4.2700,-4.505414161,19.68200866,1085.161561
4.2750,-4.501768798,19.68151647,1085.148756
4.2800,-4.497939577,19.68095362,1085.135487
4.2850,-4.493927968,19.68037121,1085.121785
4.2900,-4.48975565,19.67976381,1085.107662
4.2950,-4.485405818,19.67915849,1085.093125
4.3000,-4.48088036,19.67853204,1085.078173
4.3050,-4.476240594,19.67790302,1085.06286
4.3100,-4.471482708,19.67722865,1085.047183
4.3150,-4.466600502,19.67658924,1085.031176
4.3200,-4.461660465,19.67589415,1085.014859
4.3250,-4.456668209,19.67520366,1084.99825
4.3300,-4.451672374,19.6745078,1084.981395
4.3350,-4.446653742,19.67378938,1084.964289
4.3400,-4.441687946,19.67307001,1084.946998
4.3450,-4.436784056,19.67238279,1084.929545
4.3500,-4.431918022,19.67173179,1084.911933
4.3550,-4.427101465,19.67110935,1084.894174
4.3600,-4.422344307,19.67049577,1084.876288
4.3650,-4.417707552,19.6698744,1084.858302
4.3700,-4.413203587,19.66929708,1084.840254
4.3750,-4.408811301,19.66874009,1084.82214
4.3800,-4.404566325,19.66820645,1084.803992
4.3850,-4.400462803,19.66767578,1084.785822
4.3900,-4.396557679,19.66717842,1084.767684
4.3950,-4.392874141,19.66668573,1084.749597
4.4000,-4.389450774,19.66620923,1084.731606
4.4050,-4.386319837,19.66572456,1084.713727
4.4100,-4.383443984,19.66527978,1084.695968
4.4150,-4.380872408,19.66488972,1084.678358
4.4200,-4.378558626,19.66455388,1084.660912
4.4250,-4.37654472,19.66426208,1084.643639
4.4300,-4.374857594,19.66399139,1084.626557
4.4350,-4.373503729,19.66376169,1084.609702
4.4400,-4.372514693,19.66353326,1084.593076
4.4450,-4.371874197,19.66329743,1084.576676
4.4500,-4.371636398,19.66304805,1084.560537
4.4550,-4.371811931,19.66272571,1084.544657
4.4600,-4.372389448,19.66238031,1084.529045
4.4650,-4.373374687,19.66194013,1084.513683
4.4700,-4.374720729,19.66142708,1084.498554
4.4750,-4.376395344,19.66086264,1084.483662
4.4800,-4.378421176,19.66019508,1084.468984
4.4850,-4.380800218,19.65943272,1084.454525
4.4900,-4.383462767,19.65857113,1084.440267
4.4950,-4.386347008,19.65764086,1084.426161
4.5000,-4.389407365,19.65663233,1084.412199
4.5050,-4.392642302,19.65555692,1084.398358
4.5100,-4.395978753,19.65440398,1084.384617
4.5150,-4.399453523,19.65318691,1084.370977
4.5200,-4.403034479,19.65185795,1084.357411
4.5250,-4.406727952,19.65046633,1084.343931
4.5300,-4.410460392,19.64900376,1084.330504
4.5350,-4.414291431,19.64749088,1084.31714
4.5400,-4.418141584,19.64591851,1084.3038
4.5450,-4.421986188,19.64428799,1084.290472
4.5500,-4.425844082,19.64261504,1084.277161
4.5550,-4.429644545,19.64091576,1084.263837
4.5600,-4.433370487,19.63920115,1084.250491
4.5650,-4.437009657,19.63745208,1084.237107
4.5700,-4.440567629,19.63570175,1084.223694
4.5750,-4.444031456,19.63389484,1084.210234
4.5800,-4.447401597,19.63204527,1084.196718
4.5850,-4.450715866,19.63010891,1084.183127
4.5900,-4.453947824,19.62810342,1084.16945
4.5950,-4.457115448,19.62601334,1084.155682
4.6000,-4.460228391,19.62386849,1084.141836
4.6050,-4.463247675,19.62159676,1084.127854
4.6100,-4.46616908,19.6192599,1084.11375
4.6150,-4.4689732,19.61683988,1084.099493
4.6200,-4.471654791,19.6143589,1084.085077
4.6250,-4.474210654,19.61180704,1084.0705
4.6300,-4.476570044,19.60921918,1084.055735
4.6350,-4.478786606,19.60657964,1084.040799
4.6400,-4.4808222,19.60388998,1084.025655
4.6450,-4.48266415,19.60116543,1084.010287
4.6500,-4.484379071,19.59838397,1083.99474
4.6550,-4.485967446,19.5955366,1083.979006
4.6600,-4.487448864,19.59264287,1083.963101
4.6650,-4.488758684,19.58974209,1083.947015
4.6700,-4.489944214,19.58678518,1083.930744
4.6750,-4.49101776,19.58376141,1083.914295
4.6800,-4.491977279,19.58065104,1083.897673
4.6850,-4.492852793,19.57749911,1083.880888
4.6900,-4.493624394,19.57426858,1083.863924
4.6950,-4.494332716,19.57095307,1083.846797
4.7000,-4.494952719,19.56755945,1083.829492
4.7050,-4.495515427,19.56412654,1083.812042
4.7100,-4.496019172,19.56063932,1083.794459
4.7150,-4.496428617,19.55709018,1083.776728
4.7200,-4.496771333,19.55350401,1083.758852
4.7250,-4.497073055,19.54988126,1083.740859
4.7300,-4.497298429,19.54619493,1083.722724
4.7350,-4.497452505,19.54247352,1083.704448
4.7400,-4.49749737,19.53870594,1083.686018
4.7450,-4.497488734,19.53483557,1083.667435
4.7500,-4.497381545,19.53088344,1083.648696
4.7550,-4.497242258,19.52687411,1083.629823
4.7600,-4.49705933,19.52274158,1083.610787
4.7650,-4.496845935,19.51852113,1083.59161
4.7700,-4.496617277,19.5141758,1083.572303
4.7750,-4.496370442,19.50974225,1083.552861
4.7800,-4.496045518,19.50521761,1083.533277
4.7850,-4.495627237,19.50064764,1083.513561
4.7900,-4.495109912,19.49601845,1083.493698
4.7950,-4.49451476,19.49132839,1083.473707
4.8000,-4.493821174,19.48657852,1083.453569
4.8050,-4.49305366,19.48175307,1083.433303
4.8100,-4.492241733,19.47687049,1083.412925
4.8150,-4.491342044,19.47195942,1083.392445
4.8200,-4.490383174,19.4670287,1083.371861
4.8250,-4.489280899,19.46210068,1083.35116
4.8300,-4.488076696,19.45719832,1083.330364
4.8350,-4.486684852,19.45232695,1083.309455
4.8400,-4.485148363,19.44752492,1083.288458
4.8450,-4.483461275,19.4428139,1083.267367
4.8500,-4.481601993,19.43813044,1083.246171
4.8550,-4.47960713,19.43350747,1083.224889
4.8600,-4.477451468,19.42891581,1083.203498
4.8650,-4.475165726,19.42440069,1083.182028
4.8700,-4.472759484,19.41994794,1083.160479
4.8750,-4.470235899,19.41557531,1083.138856
4.8800,-4.46757093,19.41131256,1083.117159
4.8850,-4.464750314,19.40713754,1083.095377
4.8900,-4.461783312,19.40304819,1083.073523
4.8950,-4.458668807,19.39902748,1083.051592
4.9000,-4.455403068,19.39506317,1083.029569
4.9050,-4.452051633,19.39114438,1083.007476
4.9100,-4.448576177,19.38728011,1082.98532
4.9150,-4.44505979,19.38343163,1082.963119
4.9200,-4.441477914,19.37961503,1082.940862
4.9250,-4.437855152,19.37584477,1082.918565
4.9300,-4.434207231,19.37206986,1082.896216
4.9350,-4.430522679,19.36829438,1082.873816
4.9400,-4.426788995,19.36454952,1082.85137
4.9450,-4.423063206,19.36080301,1082.8289
4.9500,-4.419306816,19.3570717,1082.806368
4.9550,-4.415568113,19.3533124,1082.783794
4.9600,-4.411811196,19.34953312,1082.761164
4.9650,-4.408089419,19.34570514,1082.738495
4.9700,-4.404369149,19.34181522,1082.715767
4.9750,-4.400665689,19.33787451,1082.692985
4.9800,-4.396985892,19.33387524,1082.670144
4.9850,-4.393334428,19.32980434,1082.64725
4.9900,-4.389722358,19.32567946,1082.62431
4.9950,-4.386108883,19.32146872,1082.601295
5.0000,-4.38250059,19.31719628,1082.57822
5.0050,-4.37888445,19.31284759,1082.555074
5.0100,-4.375285181,19.30839254,1082.531849
5.0150,-4.371721486,19.30382385,1082.508543
5.0200,-4.36818561,19.29915638,1082.48517
5.0250,-4.364661728,19.29439653,1082.461724
5.0300,-4.361134877,19.28954293,1082.438196
5.0350,-4.357617915,19.28457528,1082.414591
5.0400,-4.3541592,19.27949441,1082.390915
5.0450,-4.350727088,19.27436713,1082.367179
5.0500,-4.34733628,19.2691746,1082.343371
5.0550,-4.343933906,19.26393074,1082.31949
5.0600,-4.340508043,19.25868988,1082.295551
5.0650,-4.336976613,19.25342882,1082.271536
5.0700,-4.333330702,19.24821005,1082.247428
5.0750,-4.329549906,19.24300358,1082.223231
5.0800,-4.325643012,19.23783816,1082.198947
5.0850,-4.321580268,19.23271189,1082.174569
5.0900,-4.317325276,19.227626,1082.150086
5.0950,-4.312882012,19.22258076,1082.125502
5.1000,-4.308257667,19.21755427,1082.100819
5.1050,-4.303415203,19.21253436,1082.076019
5.1100,-4.298339108,19.20752931,1082.051092
5.1150,-4.293048351,19.2024885,1082.026035
5.1200,-4.28751441,19.1974359,1082.000838
5.1250,-4.281769315,19.19233871,1081.97551
5.1300,-4.275815847,19.18717437,1081.950054
5.1350,-4.269675104,19.18195849,1081.924478
5.1400,-4.26334185,19.1766585,1081.898782
5.1450,-4.256773245,19.17130215,1081.872966
5.1500,-4.249973125,19.16593317,1081.847038
5.1550,-4.242938277,19.16054902,1081.821008
5.1600,-4.235717259,19.15517826,1081.794892
5.1650,-4.228307574,19.14975085,1081.768677
5.1700,-4.220713318,19.14426208,1081.742372
5.1750,-4.212911364,19.13868576,1081.715961
5.1800,-4.204938021,19.13298476,1081.689453
5.1850,-4.196770492,19.12719379,1081.662847
5.1900,-4.188479495,19.12125721,1081.636164
5.1950,-4.18007462,19.11516773,1081.609399
5.2000,-4.171606842,19.10891567,1081.582574
5.2050,-4.163014516,19.10256422,1081.555681
5.2100,-4.154360889,19.09608505,1081.528733
5.2150,-4.145574741,19.08947092,1081.501715
5.2200,-4.13667716,19.08271743,1081.474626
5.2250,-4.127677109,19.07579259,1081.44747
5.2300,-4.118581629,19.0686953,1081.420255
5.2350,-4.109448748,19.0614216,1081.392978
5.2400,-4.100287775,19.05392353,1081.365638
5.2450,-4.091087858,19.04619397,1081.338236
5.2500,-4.081908332,19.03820492,1081.310801
5.2550,-4.072743694,19.02998023,1081.283327
5.2600,-4.063603462,19.02152245,1081.255807
5.2650,-4.054522185,19.01277639,1081.228239
5.2700,-4.045557262,19.00371651,1081.200639
5.2750,-4.036700042,18.99440289,1081.173019
5.2800,-4.027952087,18.98477408,1081.145383
5.2850,-4.019319847,18.9748504,1081.117729
5.2900,-4.010751391,18.96460988,1081.090046
5.2950,-4.002312599,18.95406408,1081.062369
5.3000,-3.99397678,18.94319637,1081.034689
5.3050,-3.98572138,18.93201048,1081.007004
5.3100,-3.97756489,18.92052342,1080.979337
5.3150,-3.969467667,18.90879123,1080.951697
5.3200,-3.961439626,18.89683065,1080.924083
5.3250,-3.953448741,18.88469425,1080.896504
5.3300,-3.945504874,18.87246217,1080.868989
5.3350,-3.93757669,18.8601721,1080.84153
5.3400,-3.929627845,18.84790214,1080.814134
5.3450,-3.921625738,18.83567388,1080.786813
5.3500,-3.913550015,18.8235671,1080.759579
5.3550,-3.905312476,18.81166229,1080.732424
5.3600,-3.896941319,18.79998074,1080.705354
5.3650,-3.888421422,18.78860239,1080.678365
5.3700,-3.879719605,18.77759838,1080.651467
5.3750,-3.870860811,18.76699747,1080.62465
5.3800,-3.861788046,18.75682766,1080.597924
5.3850,-3.852492756,18.74710316,1080.571261
5.3900,-3.843011636,18.73786251,1080.544696
5.3950,-3.833308364,18.72908182,1080.518215
5.4000,-3.823399941,18.72077315,1080.491824
5.4050,-3.813343446,18.71294389,1080.465537
5.4100,-3.803093105,18.70558174,1080.439327
5.4150,-3.792712908,18.69866163,1080.413208
5.4200,-3.782200824,18.69213956,1080.387173
5.4250,-3.771570812,18.6860348,1080.361233
5.4300,-3.76088242,18.68030927,1080.335383
5.4350,-3.750141289,18.67487714,1080.30961
5.4400,-3.739365732,18.66973991,1080.283922
5.4450,-3.728603168,18.66483767,1080.258316
5.4500,-3.71786301,18.66014333,1080.232773
5.4550,-3.707159463,18.65560809,1080.207283
5.4600,-3.696427184,18.65116733,1080.181831
5.4650,-3.685707167,18.64684625,1080.156423
5.4700,-3.674932801,18.64263398,1080.13104
5.4750,-3.664175818,18.638526,1080.105694
5.4800,-3.653383481,18.6344928,1080.080371
5.4850,-3.642622924,18.63050487,1080.055081
5.4900,-3.63182562,18.62658797,1080.029805
5.4950,-3.620985997,18.62270043,1080.004546
5.5000,-3.610090752,18.61882689,1079.979287
5.5050,-3.599127935,18.6149388,1079.954036
5.5100,-3.588091492,18.61097833,1079.92876
5.5150,-3.576997861,18.60694409,1079.903471
5.5200,-3.565823557,18.60281511,1079.878178
5.5250,-3.554563598,18.59854334,1079.852878
5.5300,-3.54320126,18.5941221,1079.827578
5.5350,-3.531769457,18.58950677,1079.802299
5.5400,-3.520279148,18.58470373,1079.777033
5.5450,-3.508785588,18.57968086,1079.751796
5.5500,-3.497259268,18.57442183,1079.726565
5.5550,-3.485754269,18.56889468,1079.701345
5.5600,-3.474254654,18.56311289,1079.676169
5.5650,-3.462804653,18.55708779,1079.651044
5.5700,-3.451372742,18.55084616,1079.625966
5.5750,-3.439984299,18.54432416,1079.600936
5.5800,-3.428659805,18.53759253,1079.575949
5.5850,-3.417411068,18.53064213,1079.551023
5.5900,-3.406262404,18.52351232,1079.526176
5.5950,-3.395148259,18.51621976,1079.501391
5.6000,-3.384042567,18.50877433,1079.476675
5.6050,-3.372966898,18.50123775,1079.452042
5.6100,-3.361881367,18.4936325,1079.427476
5.6150,-3.35080127,18.485954,1079.402977
5.6200,-3.339708473,18.47821502,1079.378553
5.6250,-3.328635688,18.47044013,1079.354218
5.6300,-3.317548474,18.46265054,1079.329946
5.6350,-3.306468598,18.45488701,1079.305752
5.6400,-3.295380949,18.44717273,1079.281639
5.6450,-3.28434176,18.43954758,1079.257611
5.6500,-3.273366525,18.43198342,1079.23366
5.6550,-3.26250022,18.42448836,1079.209792
5.6600,-3.251697702,18.41707691,1079.186014
5.6650,-3.240964514,18.40976353,1079.162321
5.6700,-3.230275928,18.40255045,1079.138717
5.6750,-3.219645734,18.39543887,1079.115206
5.6800,-3.209091135,18.38847383,1079.091776
5.6850,-3.198634387,18.38168285,1079.068451
5.6900,-3.188288399,18.37507788,1079.04521
5.6950,-3.178065224,18.36870902,1079.02206
5.7000,-3.167969236,18.36253894,1078.998988
5.7050,-3.157972231,18.35660622,1078.97599
5.7100,-3.148151717,18.3508563,1078.953077
5.7150,-3.138476408,18.34534921,1078.930254
5.7200,-3.128950169,18.34003322,1078.907516
5.7250,-3.119537906,18.33487679,1078.884845
5.7300,-3.110218375,18.32987095,1078.862234
5.7350,-3.101005368,18.32502664,1078.83969
5.7400,-3.091907654,18.32032953,1078.817198
5.7450,-3.082907318,18.31577423,1078.794764
5.7500,-3.074033473,18.31135629,1078.772399
5.7550,-3.065241219,18.30707778,1078.750091
5.7600,-3.056578643,18.3029881,1078.727843
5.7650,-3.047999039,18.29907969,1078.705653
5.7700,-3.039472052,18.29531561,1078.683505
5.7750,-3.030981968,18.29171466,1078.661412
5.7800,-3.022551831,18.28827674,1078.639368
5.7850,-3.014116929,18.28502147,1078.617366
5.7900,-3.00565677,18.28189569,1078.5954
5.7950,-2.997160379,18.27892282,1078.57347
5.8000,-2.988562474,18.27609484,1078.551577
5.8050,-2.979876444,18.27338115,1078.529717
5.8100,-2.97103914,18.27081229,1078.507885
5.8150,-2.962055085,18.26839203,1078.486084
5.8200,-2.952911936,18.26611685,1078.464308
5.8250,-2.943598858,18.26400674,1078.442563
5.8300,-2.934174398,18.26201878,1078.420837
5.8350,-2.924576049,18.26021424,1078.399123
5.8400,-2.914817551,18.25854784,1078.377433
5.8450,-2.904833139,18.25700141,1078.355761
5.8500,-2.894644012,18.25553371,1078.334111
5.8550,-2.884223374,18.2541354,1078.312491
5.8600,-2.87361263,18.25277031,1078.290889
5.8650,-2.86276449,18.25141623,1078.269308
5.8700,-2.851693869,18.25004437,1078.247747
5.8750,-2.840385479,18.24868006,1078.226225
5.8800,-2.82882405,18.24732749,1078.204748
5.8850,-2.817001693,18.24594654,1078.183306
5.8900,-2.804902284,18.24451946,1078.161895
5.8950,-2.792559444,18.24306251,1078.140523
5.9000,-2.780000433,18.24154297,1078.119192
5.9050,-2.76720534,18.23997641,1078.097908
5.9100,-2.754207048,18.23834036,1078.076671
5.9150,-2.740990101,18.23662146,1078.055497
5.9200,-2.727556431,18.23482227,1078.034385
5.9250,-2.713904741,18.23286383,1078.013323
5.9300,-2.700075621,18.23075643,1077.992348
5.9350,-2.686050519,18.22845962,1077.971445
5.9400,-2.671876684,18.22595587,1077.950633
5.9450,-2.657489229,18.22325964,1077.929911
5.9500,-2.642900806,18.22034495,1077.909286
5.9550,-2.628095517,18.21725372,1077.888756
5.9600,-2.613123365,18.21401265,1077.868323
5.9650,-2.59800771,18.21057889,1077.847989
5.9700,-2.582813277,18.20698889,1077.827757
5.9750,-2.567540301,18.20322503,1077.807631
5.9800,-2.552259692,18.19927525,1077.787626
5.9850,-2.536954017,18.19511176,1077.767722
5.9900,-2.521708074,18.19071304,1077.747934
5.9950,-2.506568299,18.1860251,1077.728263
6.0000,-2.491576116,18.18108538,1077.708717
6.0050,-2.476805307,18.17586022,1077.689313
6.0100,-2.462306284,18.17040288,1077.67007
6.0150,-2.448100022,18.16468352,1077.650979
6.0200,-2.434264016,18.15875139,1077.632059
6.0250,-2.420795752,18.15261491,1077.613305
6.0300,-2.407724875,18.14628574,1077.594736
6.0350,-2.395085712,18.13980763,1077.576354
6.0400,-2.382890332,18.13319803,1077.55817
6.0450,-2.371223312,18.12647551,1077.54019
6.0500,-2.360031665,18.11969833,1077.522403
6.0550,-2.349335919,18.11288708,1077.504822
6.0600,-2.339114099,18.10602205,1077.487435
6.0650,-2.329401875,18.09913332,1077.470239
6.0700,-2.320217923,18.09226532,1077.453241
6.0750,-2.311552388,18.0854383,1077.436433
6.0800,-2.303341059,18.07870847,1077.41982
6.0850,-2.295546395,18.07208363,1077.403381
6.0900,-2.288157444,18.06564022,1077.387128
6.0950,-2.281109097,18.05942685,1077.371048
6.1000,-2.274384072,18.05345871,1077.355132
6.1050,-2.267943651,18.04782945,1077.339383
6.1100,-2.261760214,18.04254215,1077.323791
6.1150,-2.255769444,18.03763404,1077.308343
6.1200,-2.249927933,18.03311585,1077.293023
6.1250,-2.244200649,18.02901237,1077.277815
6.1300,-2.23852581,18.02536663,1077.262716
6.1350,-2.232837813,18.02211649,1077.247709
6.1400,-2.22715434,18.01928831,1077.232791
6.1450,-2.221436098,18.01688694,1077.217945
6.1500,-2.215709664,18.01491481,1077.203181
6.1550,-2.209923623,18.01335038,1077.188475
6.1600,-2.204068489,18.01215551,1077.173828
6.1650,-2.198129355,18.01135643,1077.159245
6.1700,-2.192048179,18.01097144,1077.144716
6.1750,-2.185821551,18.01094487,1077.130229
6.1800,-2.179402911,18.01121998,1077.115768
6.1850,-2.172720567,18.01182466,1077.101339
6.1900,-2.165786876,18.01273051,1077.086943
6.1950,-2.158535497,18.01390804,1077.072563
6.2000,-2.150986189,18.0153795,1077.058209
6.2050,-2.143091073,18.01709925,1077.043863
6.2100,-2.134787879,18.019036,1077.029522
6.2150,-2.126078454,18.02121353,1077.015177
6.2200,-2.116924486,18.02360605,1077.000832
6.2250,-2.107329466,18.02624277,1076.986489
6.2300,-2.097296343,18.02905551,1076.972132
6.2350,-2.086809311,18.03203411,1076.957768
6.2400,-2.075867846,18.03519556,1076.943405
6.2450,-2.064465488,18.03846753,1076.929022
6.2500,-2.052640279,18.04180949,1076.914629
6.2550,-2.040415993,18.04514827,1076.900215
6.2600,-2.02779101,18.04840562,1076.885775
6.2650,-2.014832083,18.05157265,1076.87133
6.2700,-2.001529779,18.05455757,1076.856871
6.2750,-1.987952192,18.05738454,1076.842427
6.2800,-1.974098878,18.05998368,1076.827986
6.2850,-1.960062152,18.06239109,1076.813571
6.2900,-1.945845575,18.06455145,1076.799178
6.2950,-1.931423542,18.06648901,1076.784808
6.3000,-1.916793964,18.0682449,1076.770477
6.3050,-1.901947314,18.06976967,1076.756166
6.3100,-1.886860837,18.07105821,1076.741873
6.3150,-1.87159497,18.07208114,1076.727609
6.3200,-1.856181466,18.07283926,1076.713376
6.3250,-1.840671264,18.07329776,1076.699183
6.3300,-1.825099292,18.0734544,1076.685035
6.3350,-1.809473329,18.07328565,1076.670934
6.3400,-1.793846349,18.07277323,1076.65689
6.3450,-1.778203159,18.07191263,1076.642897
6.3500,-1.762641254,18.07066834,1076.628976
6.3550,-1.747171661,18.06902414,1076.615125
6.3600,-1.731829604,18.06697578,1076.60135
6.3650,-1.716637354,18.06453827,1076.587658
6.3700,-1.701632793,18.06167918,1076.574055
6.3750,-1.686778549,18.05838475,1076.560531
6.3800,-1.672087262,18.05467634,1076.547082
6.3850,-1.657599595,18.05050192,1076.533716
6.3900,-1.643252786,18.04592397,1076.520415
6.3950,-1.629092079,18.04089942,1076.507188
6.4000,-1.615023004,18.0354949,1076.49402
6.4050,-1.601036544,18.02965365,1076.480893
6.4100,-1.587132912,18.0234223,1076.467821
6.4150,-1.573279246,18.01681182,1076.454795
6.4200,-1.559479724,18.00987981,1076.441823
6.4250,-1.545700139,18.00262404,1076.428901
6.4300,-1.531923302,17.99511745,1076.416032
6.4350,-1.518155001,17.98738222,1076.403219
6.4400,-1.50435919,17.97945534,1076.390455
6.4450,-1.490594114,17.97133316,1076.377752
6.4500,-1.47681592,17.96305346,1076.365107
6.4550,-1.463049684,17.95463083,1076.352526
6.4600,-1.449284147,17.9461039,1076.339999
6.4650,-1.435542424,17.93743588,1076.327515
6.4700,-1.421847435,17.9286498,1076.315081
6.4750,-1.408196463,17.91979059,1076.302698
6.4800,-1.394585578,17.91088388,1076.290374
6.4850,-1.381096906,17.90190738,1076.278111
6.4900,-1.367743439,17.89289936,1076.265909
6.4950,-1.35451415,17.88385512,1076.253768
6.5000,-1.341468152,17.87476538,1076.241695
6.5050,-1.328613586,17.86566026,1076.229699
6.5100,-1.315976899,17.85655853,1076.217786
6.5150,-1.303526843,17.84739518,1076.205956
6.5200,-1.291307043,17.83819377,1076.194218
6.5250,-1.279278509,17.8289924,1076.182582
6.5300,-1.267403744,17.81981109,1076.171045
6.5350,-1.255712839,17.81062905,1076.159611
6.5400,-1.244149311,17.80143808,1076.148269
6.5450,-1.232715222,17.79227977,1076.137033
6.5500,-1.221353856,17.78320364,1076.125899
6.5550,-1.210098989,17.77422515,1076.114887
6.5600,-1.19895695,17.76537416,1076.103999
6.5650,-1.187879821,17.75668175,1076.093229
6.5700,-1.176853487,17.74815992,1076.082577
6.5750,-1.165831887,17.73976147,1076.072023
6.5800,-1.154818706,17.73151772,1076.061569
6.5850,-1.143784187,17.72338819,1076.051216
6.5900,-1.132716874,17.71544235,1076.040964
6.5950,-1.12161196,17.70763185,1076.030802
6.6000,-1.110523383,17.69990941,1076.020734
6.6050,-1.099463128,17.69231904,1076.010772
6.6100,-1.088416438,17.68487349,1076.000911
6.6150,-1.077387521,17.67756144,1075.991152
6.6200,-1.066319912,17.67038294,1075.981482
6.6250,-1.055226959,17.66333977,1075.971904
6.6300,-1.044099187,17.65644258,1075.962414
6.6350,-1.03292899,17.64966852,1075.953007
6.6400,-1.021704137,17.64305418,1075.943682
6.6450,-1.010423093,17.63658881,1075.934443
6.6500,-0.9990128721,17.63028021,1075.925271
6.6550,-0.9874641665,17.62410253,1075.916165
6.6600,-0.9757929287,17.61810513,1075.907133
6.6650,-0.963994286,17.61223136,1075.898172
6.6700,-0.9520531861,17.60650384,1075.889274
6.6750,-0.939964131,17.60092272,1075.88044
6.6800,-0.9277283997,17.59545509,1075.871671
6.6850,-0.9153324317,17.59015679,1075.862967
6.6900,-0.902822103,17.58495716,1075.854335
6.6950,-0.8901559417,17.57992009,1075.845768
6.7000,-0.8773431332,17.57496182,1075.837259
6.7050,-0.8643982537,17.57017482,1075.828822
6.7100,-0.8512968707,17.56552076,1075.820444
6.7150,-0.8380736512,17.56096975,1075.81213
6.7200,-0.8246782731,17.55655891,1075.803876
6.7250,-0.8111805461,17.55225165,1075.795682
6.7300,-0.7975374554,17.54800566,1075.787537
6.7350,-0.7837778481,17.54383549,1075.779443
6.7400,-0.769885176,17.5397184,1075.771403
6.7450,-0.7558224761,17.53567821,1075.763403
6.7500,-0.7416182185,17.53170703,1075.755454
6.7550,-0.7272653361,17.52778576,1075.747547
6.7600,-0.7127289377,17.52391548,1075.739686
6.7650,-0.6980238975,17.52008555,1075.731872
6.7700,-0.6832058756,17.5162855,1075.724118
6.7750,-0.6682425181,17.51248024,1075.716413
6.7800,-0.6531730604,17.50864463,1075.70876
6.7850,-0.6380001351,17.50477683,1075.701161
6.7900,-0.6227194198,17.50083739,1075.693609
6.7950,-0.6073934889,17.49686395,1075.686127
6.8000,-0.5919599652,17.49284672,1075.678702
6.8050,-0.5764652813,17.48870922,1075.671336
6.8100,-0.5608764174,17.48448534,1075.664028
6.8150,-0.5452546147,17.48016867,1075.656784
6.8200,-0.5295722268,17.47574516,1075.649595
6.8250,-0.5138564074,17.47120833,1075.642469
6.8300,-0.4981295187,17.46655495,1075.635406
6.8350,-0.4823472466,17.46183572,1075.628403
6.8400,-0.4665608283,17.45702369,1075.621467
6.8450,-0.4507592107,17.45210446,1075.614592
6.8500,-0.4349581708,17.44710002,1075.607782
6.8550,-0.4191610833,17.44197071,1075.601033
6.8600,-0.4033366854,17.43672564,1075.59434
6.8650,-0.3875228513,17.43136415,1075.587706
6.8700,-0.371771388,17.42584318,1075.581136
6.8750,-0.356142098,17.42020358,1075.574643
6.8800,-0.3405981024,17.4144339,1075.56822
6.8850,-0.3252305141,17.40849686,1075.561873
6.8900,-0.3100097808,17.4024275,1075.555605
6.8950,-0.2950628987,17.39622822,1075.549436
6.9000,-0.2803411978,17.3898984,1075.543351
6.9050,-0.2658601204,17.38344213,1075.537352
6.9100,-0.2516387246,17.37684467,1075.531441
6.9150,-0.2376302272,17.37012889,1075.525603
6.9200,-0.2238768785,17.36329042,1075.519849
6.9250,-0.2103951354,17.3563813,1075.514181
6.9300,-0.1971584203,17.34939637,1075.508596
6.9350,-0.1842085102,17.34236698,1075.503099
6.9400,-0.1715348543,17.33523379,1075.497686
6.9450,-0.1591755348,17.3280225,1075.49236
6.9500,-0.1471793826,17.32071366,1075.48713
6.9550,-0.1355992259,17.31332449,1075.481999
6.9600,-0.1244476092,17.30580563,1075.476964
6.9650,-0.1137169965,17.29816478,1075.472025
6.9700,-0.1034023507,17.290414,1075.467187
6.9750,-0.09353325053,17.2825449,1075.462447
6.9800,-0.08419562533,17.27454105,1075.457818
6.9850,-0.07535037457,17.26639263,1075.453293
6.9900,-0.06699004467,17.25815711,1075.448876
6.9950,-0.05913837916,17.24979177,1075.444566
7.0000,-0.05185817737,17.24132746,1075.440381
7.0050,-0.04511950864,17.23271013,1075.436314
7.0100,-0.03893686447,17.224003,1075.432373
7.0150,-0.03330230379,17.21520976,1075.428558
7.0200,-0.02826111376,17.20634111,1075.424877
7.0250,-0.02377030852,17.19744896,1075.421337
7.0300,-0.01983708647,17.18857786,1075.417944
7.0350,-0.01646667023,17.17978075,1075.414706
7.0400,-0.01365051145,17.1710683,1075.411624
7.0450,-0.01138261487,17.16246403,1075.408703
7.0500,-0.00963651491,17.15400672,1075.405944
7.0550,-0.008382805311,17.14575045,1075.40335
7.0600,-0.007686919955,17.13774129,1075.400936
7.0650,-0.007512760476,17.12998687,1075.398699
7.0700,-0.007783992346,17.12252087,1075.396629
7.0750,-0.00855483967,17.11540256,1075.394741
7.0800,-0.009791018825,17.10865205,1075.393033
7.0850,-0.01143660387,17.10230033,1075.391499
7.0900,-0.01342801171,17.09635976,1075.390133
7.0950,-0.01569909085,17.0908334,1075.38892
7.1000,-0.01817358991,17.08572377,1075.387849
7.1050,-0.02078848553,17.0810814,1075.386915
7.1100,-0.02348223773,17.07688068,1075.386105
7.1150,-0.02614916482,17.07316961,1075.385408
7.1200,-0.02873363259,17.06992207,1075.384809
7.1250,-0.03114402767,17.06712298,1075.384293
7.1300,-0.03331365174,17.06476864,1075.383847
7.1350,-0.03520735958,17.06284805,1075.383466
7.1400,-0.03673218564,17.06135609,1075.383134
7.1450,-0.03792528313,17.06024858,1075.382849
7.1500,-0.03873595538,17.05952066,1075.382601
7.1550,-0.03912611625,17.05918234,1075.382381
7.1600,-0.03916218106,17.05924426,1075.382202
7.1650,-0.03880374753,17.05965454,1075.382049
7.1700,-0.03805085365,17.06044215,1075.381919
7.1750,-0.03691589973,17.06157538,1075.38181
7.1800,-0.03548448865,17.06304882,1075.381732
7.1850,-0.03375087835,17.06488235,1075.381679
7.1900,-0.03180761253,17.06699197,1075.381654
7.1950,-0.02966499432,17.06940279,1075.381658
7.2000,-0.02741126534,17.07208179,1075.381699
7.2050,-0.02516311587,17.07502556,1075.381794
7.2100,-0.02295002933,17.0781753,1075.381936
7.2150,-0.02085378113,17.08152539,1075.382139
7.2200,-0.01893509038,17.08503191,1075.382405
7.2250,-0.01729669163,17.08865442,1075.382747
7.2300,-0.01595346684,17.09233921,1075.383158
7.2350,-0.0149257047,17.09607535,1075.383642
7.2400,-0.01427188569,17.09981199,1075.384199
7.2450,-0.01394335264,17.10354882,1075.384825
7.2500,-0.01399200459,17.10725508,1075.385525
7.2550,-0.01439830679,17.11090358,1075.386293
7.2600,-0.01511619603,17.11452454,1075.387129
7.2650,-0.01614710128,17.11808806,1075.38803
7.2700,-0.01752212954,17.12155103,1075.388996
7.2750,-0.01921487119,17.12494457,1075.39003
7.2800,-0.02120144483,17.12826956,1075.391131
7.2850,-0.02354932907,17.13150046,1075.392311
7.2900,-0.02625946509,17.13459919,1075.393565
7.2950,-0.02934640561,17.13756607,1075.3949
7.3000,-0.03278315143,17.14044058,1075.396315
7.3050,-0.03662889214,17.14322272,1075.397819
7.3100,-0.0408973013,17.14587959,1075.399414
7.3150,-0.04562661141,17.14847223,1075.401116
7.3200,-0.05080987682,17.15091186,1075.402916
7.3250,-0.05645846991,17.15322344,1075.404818
7.3300,-0.06260181674,17.15543079,1075.406833
7.3350,-0.06921973973,17.15750362,1075.408955
7.3400,-0.07629874599,17.15944377,1075.411184
7.3450,-0.08383616304,17.16128871,1075.413528
7.3500,-0.09177178351,17.162998,1075.41597
7.3550,-0.1001147006,17.1645881,1075.418521
7.3600,-0.1088147787,17.16603716,1075.421175
7.3650,-0.117784134,17.16738337,1075.423922
7.3700,-0.1270254676,17.16860563,1075.426764
7.3750,-0.136448383,17.16967177,1075.429688
7.3800,-0.1460483401,17.17062448,1075.432701
7.3850,-0.155809143,17.17145331,1075.435802
7.3900,-0.1656967318,17.17221052,1075.438992
7.3950,-0.1757280177,17.1728765,1075.442278
7.4000,-0.1858850407,17.17349223,1075.445664
7.4050,-0.1961362594,17.17399363,1075.449139
7.4100,-0.2065036958,17.17443944,1075.452718
7.4150,-0.2169587109,17.17482917,1075.456396
7.4200,-0.2274902906,17.17514653,1075.460176
7.4250,-0.2380926016,17.17540794,1075.464056
7.4300,-0.2487945675,17.17564542,1075.468049
7.4350,-0.259622614,17.17582861,1075.472154
7.4400,-0.2705842076,17.17597859,1075.476376
7.4450,-0.2816663096,17.17616199,1075.480722
7.4500,-0.2929162412,17.17638217,1075.485204
7.4550,-0.3043102716,17.17667069,1075.489822
7.4600,-0.3158597317,17.17698413,1075.494576
7.4650,-0.3275918561,17.17735184,1075.499469
7.4700,-0.3395106475,17.17782652,1075.504515
7.4750,-0.3516472929,17.17838324,1075.509716
7.4800,-0.3640133093,17.17906526,1075.515078
7.4850,-0.3765644202,17.17984751,1075.520594
7.4900,-0.3893475615,17.18077294,1075.526276
7.4950,-0.4023670725,17.1818365,1075.532128
7.5000,-0.4156383123,17.18308668,1075.538156
7.5050,-0.4290981788,17.18447705,1075.54434
7.5100,-0.4427960232,17.18608958,1075.5507
7.5150,-0.4567437076,17.1878942,1075.557231
7.5200,-0.4709942972,17.18997328,1075.56395
7.5250,-0.4855040633,17.19227789,1075.570839
7.5300,-0.5003228435,17.19485334,1075.577915
7.5350,-0.5154800641,17.19766359,1075.585177
7.5400,-0.5309713686,17.20073582,1075.592626
7.5450,-0.5468655622,17.20404395,1075.60027
7.5500,-0.5631270693,17.20761346,1075.608105
7.5550,-0.5798078079,17.21143212,1075.616136
7.5600,-0.5969259242,17.21546593,1075.624367
7.5650,-0.6145108679,17.219733,1075.632805
7.5700,-0.6325564045,17.22425372,1075.641453
7.5750,-0.6511057508,17.22895938,1075.650316
7.5800,-0.6701146182,17.23386598,1075.659387
7.5850,-0.6895921491,17.23899341,1075.668675
7.5900,-0.7095310412,17.2443443,1075.678185
7.5950,-0.7298769442,17.24989759,1075.687907
7.6000,-0.7506533902,17.25558896,1075.697844
7.6050,-0.7717860416,17.26144091,1075.707989
7.6100,-0.7932344874,17.26743056,1075.718335
7.6150,-0.8149387659,17.27351775,1075.728869
7.6200,-0.8368565474,17.27973395,1075.739595
7.6250,-0.8589286178,17.28604969,1075.750505
7.6300,-0.8811212951,17.29241704,1075.761584
7.6350,-0.9033660318,17.29879442,1075.772825
7.6400,-0.9256580936,17.30517827,1075.784228
7.6450,-0.9479314955,17.31153201,1075.795778
7.6500,-0.9701548335,17.31784759,1075.807476
7.6550,-0.9923128231,17.32409715,1075.819318
7.6600,-1.014343384,17.33023191,1075.831284
7.6650,-1.036263018,17.33624725,1075.843383
7.6700,-1.058009469,17.34214005,1075.855608
7.6750,-1.079584344,17.34789978,1075.867953
7.6800,-1.100962282,17.35350158,1075.880417
7.6850,-1.122091855,17.35898096,1075.892991
7.6900,-1.142998296,17.36425906,1075.90568
7.6950,-1.163658255,17.36938114,1075.918477
7.7000,-1.184047162,17.37432379,1075.93138
7.7050,-1.204189626,17.37915979,1075.944403
7.7100,-1.224081607,17.38387916,1075.957537
7.7150,-1.243757958,17.38848124,1075.970793
7.7200,-1.26322309,17.39303054,1075.984177
7.7250,-1.282490563,17.39755603,1075.997688
7.7300,-1.301510566,17.4020238,1076.011312
7.7350,-1.320274524,17.40649061,1076.025053
7.7400,-1.338782629,17.41096975,1076.038913
7.7450,-1.357044235,17.41546315,1076.052885
7.7500,-1.375071075,17.41995813,1076.066966
7.7550,-1.392888259,17.42441226,1076.081149
7.7600,-1.410464753,17.42892595,1076.095438
7.7650,-1.427828176,17.4334706,1076.109839
7.7700,-1.444980197,17.43803145,1076.124348
7.7750,-1.46191989,17.44265211,1076.138962
7.7800,-1.478687866,17.44734335,1076.153692
7.7850,-1.495285106,17.45212526,1076.16853
7.7900,-1.511707217,17.45700359,1076.18348
7.7950,-1.527954414,17.46198405,1076.198537
7.8000,-1.544017954,17.46710892,1076.213708
7.8050,-1.55997649,17.47238217,1076.229007
7.8100,-1.575825899,17.47780253,1076.244427
7.8150,-1.591560546,17.48343088,1076.259973
7.8200,-1.607149949,17.48919961,1076.275631
7.8250,-1.622579277,17.49513483,1076.291405
7.8300,-1.637893776,17.50125615,1076.3073
7.8350,-1.653062854,17.50758396,1076.32331
7.8400,-1.668085697,17.51412557,1076.339431
7.8450,-1.682968784,17.52089228,1076.355667
7.8500,-1.697680895,17.52787907,1076.372009
7.8550,-1.71219145,17.53509853,1076.388461
7.8600,-1.726545124,17.5425331,1076.405021
7.8650,-1.740646863,17.55018533,1076.421674
7.8700,-1.754549488,17.55802416,1076.438427
7.8750,-1.768208626,17.56604526,1076.455268
7.8800,-1.781650372,17.57426579,1076.472202
7.8850,-1.794845219,17.58264992,1076.48922
7.8900,-1.807767473,17.59119876,1076.506312
7.8950,-1.820415059,17.59993401,1076.523482
7.9000,-1.832793818,17.6088738,1076.54074
7.9050,-1.844908296,17.61796923,1076.558076
7.9100,-1.856725497,17.62720468,1076.57549
7.9150,-1.86826461,17.63661532,1076.592988
7.9200,-1.879514955,17.64613727,1076.610565
7.9250,-1.890522675,17.65575179,1076.62822
7.9300,-1.90124586,17.66548578,1076.645963
7.9350,-1.911734469,17.67528975,1076.663795
7.9400,-1.921979775,17.68513909,1076.681713
7.9450,-1.931997888,17.69503754,1076.699726
7.9500,-1.941863858,17.70494428,1076.717844
7.9550,-1.951538386,17.71481847,1076.736054
7.9600,-1.96108101,17.72470113,1076.754386
7.9650,-1.970482132,17.73454546,1076.772828
7.9700,-1.97978089,17.74435256,1076.791386
7.9750,-1.988955642,17.75409696,1076.810063
7.9800,-1.997996666,17.76376254,1076.828849
7.9850,-2.0069895,17.77333054,1076.847762
7.9900,-2.015912896,17.78282059,1076.866793
7.9950,-2.024776537,17.79224965,1076.885965
8.0000,-2.03360542,17.8016362,1076.905268
8.0050,-2.042411605,17.81097451,1076.924713
8.0100,-2.051184457,17.82023809,1076.944296
8.0150,-2.05991096,17.82946571,1076.964014
8.0200,-2.068595725,17.83868294,1076.983868
8.0250,-2.077304911,17.8478348,1077.003874
8.0300,-2.086038644,17.856966,1077.024036
8.0350,-2.094824421,17.86607,1077.044355
8.0400,-2.103689131,17.87512277,1077.064834
8.0450,-2.112615999,17.8841322,1077.085482
8.0500,-2.121618849,17.89309971,1077.106298
8.0550,-2.130706023,17.90207119,1077.127295
8.0600,-2.13990552,17.91099587,1077.148464
8.0650,-2.14923707,17.91992245,1077.169817
8.0700,-2.158705691,17.92882494,1077.191348
8.0750,-2.168299565,17.93774188,1077.213058
8.0800,-2.178014936,17.94661302,1077.234944
8.0850,-2.187888332,17.95547147,1077.25702
8.0900,-2.197902988,17.96432892,1077.279288
8.0950,-2.208085874,17.97319631,1077.301736
8.1000,-2.218488726,17.98201568,1077.324368
8.1050,-2.229021186,17.99085254,1077.347177
8.1100,-2.23970894,17.9997022,1077.37017
8.1150,-2.250554452,18.00854988,1077.393349
8.1200,-2.261519825,18.01745514,1077.416707
8.1250,-2.272640956,18.02645132,1077.440258
8.1300,-2.283901077,18.03551914,1077.463989
8.1350,-2.295308224,18.04466646,1077.487913
8.1400,-2.306852441,18.05391075,1077.512033
8.1450,-2.318532719,18.06323615,1077.536335
8.1500,-2.330366507,18.07262288,1077.560832
8.1550,-2.342354437,18.08212903,1077.585516
8.1600,-2.354457554,18.09174653,1077.610387
8.1650,-2.366731142,18.10145602,1077.635441
8.1700,-2.379169917,18.11126711,1077.660689
8.1750,-2.391760658,18.12119387,1077.686125
8.1800,-2.404485018,18.13116808,1077.711746
8.1850,-2.417332433,18.14121073,1077.737557
8.1900,-2.430314234,18.15129958,1077.763563
8.1950,-2.44339205,18.16140628,1077.789754
8.2000,-2.456539035,18.17153535,1077.816126
8.2050,-2.469759085,18.18168314,1077.842686
8.2100,-2.483045606,18.19184681,1077.869439
8.2150,-2.49639415,18.20197312,1077.896383
8.2200,-2.509787852,18.21206633,1077.923515
8.2250,-2.523199454,18.22209075,1077.950842
8.2300,-2.536669137,18.23200027,1077.97835
8.2350,-2.550166536,18.24181928,1078.00605
8.2400,-2.563658211,18.2515656,1078.033949
8.2450,-2.577163223,18.26116771,1078.062041
8.2500,-2.59058581,18.27065938,1078.090307
8.2550,-2.60396601,18.28002196,1078.118762
8.2600,-2.617249937,18.28920984,1078.147372
8.2650,-2.63044096,18.29823469,1078.176159
8.2700,-2.643563112,18.30706763,1078.205118
8.2750,-2.6566023,18.31571056,1078.234246
8.2800,-2.669589684,18.32421541,1078.263558
8.2850,-2.68247284,18.33251617,1078.293028
8.2900,-2.695284064,18.34065359,1078.322669
8.2950,-2.708033281,18.3485848,1078.352463
8.3000,-2.720715899,18.3562757,1078.3824
8.3050,-2.733368049,18.3637415,1078.412488
8.3100,-2.745955842,18.37100875,1078.442711
8.3150,-2.758459847,18.37813725,1078.473083
8.3200,-2.7709387,18.38512529,1078.503618
8.3250,-2.783293528,18.39205931,1078.534289
8.3300,-2.795554049,18.39896482,1078.565102
8.3350,-2.807679436,18.40580598,1078.596039
8.3400,-2.819671455,18.41264328,1078.627103
8.3450,-2.831512018,18.41947486,1078.658273
8.3500,-2.843183912,18.42636002,1078.689559
8.3550,-2.854678936,18.43333598,1078.72096
8.3600,-2.865973419,18.44044616,1078.752479
8.3650,-2.877053286,18.44770496,1078.784104
8.3700,-2.887974296,18.45514398,1078.815848
8.3750,-2.898713141,18.46274596,1078.84771
8.3800,-2.909283478,18.47056274,1078.879683
8.3850,-2.919699666,18.47863232,1078.911791
8.3900,-2.929933567,18.48695795,1078.944011
8.3950,-2.939960093,18.49560856,1078.976357
8.4000,-2.949739367,18.50463421,1079.008823
8.4050,-2.959310929,18.51401528,1079.041416
8.4100,-2.968678727,18.52375394,1079.074143
8.4150,-2.977890146,18.53383743,1079.106995
8.4200,-2.986977109,18.54426301,1079.139972
8.4250,-2.995965269,18.55499328,1079.173075
8.4300,-3.004884273,18.56601535,1079.206307
8.4350,-3.01372605,18.57734447,1079.23967
8.4400,-3.022563303,18.58893917,1079.273166
8.4450,-3.031405122,18.60074674,1079.306795
8.4500,-3.040284173,18.61276529,1079.340554
8.4550,-3.049216639,18.6248816,1079.374438
8.4600,-3.058227459,18.63712652,1079.408453
8.4650,-3.067336583,18.64949452,1079.44261
8.4700,-3.076504934,18.66195333,1079.4769
8.4750,-3.085723615,18.67447014,1079.511315
8.4800,-3.095025988,18.68705582,1079.545855
8.4850,-3.104431619,18.69972384,1079.580537
8.4900,-3.113931684,18.71241151,1079.61534
8.4950,-3.123574282,18.72510149,1079.650275
8.5000,-3.133396071,18.73773308,1079.68533
8.5050,-3.143397558,18.75024017,1079.720497
8.5100,-3.153643184,18.76261131,1079.755778
8.5150,-3.164153084,18.7747506,1079.791153
8.5200,-3.174962976,18.78666066,1079.826632
8.5250,-3.186116142,18.79830152,1079.862216
8.5300,-3.197553685,18.8096153,1079.897879
8.5350,-3.209325739,18.82058382,1079.933614
8.5400,-3.221460104,18.83118504,1079.969405
8.5450,-3.233926983,18.84142484,1080.005244
8.5500,-3.24681622,18.85127763,1080.041138
8.5550,-3.260093434,18.86074813,1080.077075
8.5600,-3.273748995,18.8698634,1080.11306
8.5650,-3.287829056,18.87863941,1080.1491
8.5700,-3.302298101,18.88713169,1080.185184
8.5750,-3.317146681,18.89533434,1080.221293
8.5800,-3.332357261,18.90323108,1080.257413
8.5850,-3.347877465,18.91090013,1080.293544
8.5900,-3.363729196,18.91832829,1080.329675
8.5950,-3.379863087,18.92555662,1080.365791
8.6000,-3.396297174,18.93261805,1080.401906
8.6050,-3.412966254,18.93960427,1080.438017
8.6100,-3.429845283,18.94661494,1080.474149
8.6150,-3.446933474,18.95366709,1080.510297
8.6200,-3.464164866,18.96080765,1080.546429
8.6250,-3.481486727,18.96809571,1080.582556
8.6300,-3.498859823,18.97557714,1080.618674
8.6350,-3.516256165,18.9833682,1080.65479
8.6400,-3.533600424,18.99142569,1080.690881
8.6450,-3.550858014,18.99978004,1080.72694
8.6500,-3.568030495,19.0084023,1080.762939
8.6550,-3.58509505,19.01728317,1080.798869
8.6600,-3.602056195,19.02642001,1080.834732
8.6650,-3.618904475,19.03579662,1080.870522
8.6700,-3.63560343,19.04539321,1080.906214
8.6750,-3.652156748,19.05525006,1080.941812
8.6800,-3.668534691,19.06536689,1080.977313
8.6850,-3.684729185,19.07573857,1081.012693
8.6900,-3.700733588,19.08640905,1081.047975
8.6950,-3.716480445,19.09728765,1081.083106
8.7000,-3.731942006,19.10835829,1081.118075
8.7050,-3.747114345,19.11956333,1081.152845
8.7100,-3.76197007,19.13086204,1081.187401
8.7150,-3.776481194,19.14222287,1081.221734
8.7200,-3.790680168,19.1535567,1081.255835
8.7250,-3.804581838,19.16486039,1081.28969
8.7300,-3.818211368,19.17608125,1081.323281
8.7350,-3.83154237,19.18716773,1081.356596
8.7400,-3.844543834,19.19812483,1081.38963
8.7450,-3.857201148,19.20894491,1081.422363
8.7500,-3.869558503,19.21955991,1081.454789
8.7550,-3.881611169,19.22996217,1081.486908
8.7600,-3.893388635,19.2401036,1081.518703
8.7650,-3.904876875,19.24998483,1081.550187
8.7700,-3.916100998,19.25961723,1081.581348
8.7750,-3.927101611,19.26897498,1081.612181
8.7800,-3.937878635,19.27798899,1081.64267
8.7850,-3.948418383,19.2865999,1081.672784
8.7900,-3.958793176,19.29477721,1081.702547
8.7950,-3.969031212,19.3025423,1081.731963
8.8000,-3.979133507,19.30994203,1081.761058
8.8050,-3.989145393,19.31698514,1081.789833
8.8100,-3.999036668,19.32370447,1081.818307
8.8150,-4.008762785,19.33014172,1081.84646
8.8200,-4.018404962,19.33630619,1081.874311
8.8250,-4.027890526,19.34228665,1081.901867
8.8300,-4.037276535,19.34811061,1081.929163
8.8350,-4.046505623,19.35380098,1081.956176
8.8400,-4.055612889,19.35937619,1081.982925
8.8450,-4.064591909,19.36486718,1082.00943
8.8500,-4.073441363,19.37031551,1082.035707
8.8550,-4.082127199,19.37577106,1082.061753
8.8600,-4.090716304,19.38122422,1082.087592
8.8650,-4.099168052,19.38671808,1082.113216
8.8700,-4.107525322,19.39224468,1082.138651
8.8750,-4.115766338,19.39782295,1082.163909
8.8800,-4.123896678,19.40347226,1082.188997
8.8850,-4.132015387,19.40915528,1082.213934
8.8900,-4.140018353,19.41493668,1082.238726
8.8950,-4.147945007,19.42084477,1082.263407
8.9000,-4.155736251,19.42698169,1082.287996
8.9050,-4.163380991,19.43333709,1082.312475
8.9100,-4.170893758,19.43987759,1082.336846
8.9150,-4.178262357,19.44664075,1082.361102
8.9200,-4.185434345,19.45362012,1082.385247
8.9250,-4.192431409,19.46076746,1082.409271
8.9300,-4.199228185,19.46806097,1082.433161
8.9350,-4.205845994,19.47545324,1082.456926
8.9400,-4.21234643,19.48293824,1082.480568
8.9450,-4.218793775,19.49052543,1082.504116
8.9500,-4.225160038,19.49821365,1082.527583
8.9550,-4.231443287,19.50604117,1082.550981
8.9600,-4.23760202,19.51397664,1082.574279
8.9650,-4.243581375,19.52205364,1082.59747
8.9700,-4.249347852,19.5302558,1082.620545
8.9750,-4.25488779,19.53854154,1082.643496
8.9800,-4.260150658,19.54694177,1082.666327
8.9850,-4.265123551,19.5553969,1082.689002
8.9900,-4.269856174,19.56382391,1082.711522
8.9950,-4.274384192,19.57224615,1082.733917
9.0000,-4.278711957,19.58064217,1082.756197
9.0050,-4.28283357,19.58899633,1082.778371
9.0100,-4.286785413,19.59724298,1082.800414
9.0150,-4.290638588,19.60527533,1082.822319
9.0200,-4.294393554,19.61305071,1082.844082
9.0250,-4.298060943,19.62054845,1082.865719
9.0300,-4.301608687,19.62772531,1082.887207
9.0350,-4.305117885,19.63457909,1082.908561
9.0400,-4.308604142,19.64109603,1082.929788
9.0450,-4.312085489,19.64725788,1082.950897
9.0500,-4.315527736,19.65305355,1082.971884
9.0550,-4.318957327,19.65852717,1082.992764
9.0600,-4.32236633,19.66364901,1083.013528
9.0650,-4.325771069,19.66844711,1083.034181
9.0700,-4.329219697,19.67286994,1083.054746
9.0750,-4.33269544,19.67694089,1083.075224
9.0800,-4.336227103,19.68069705,1083.095645
9.0850,-4.339816413,19.68417961,1083.116026
9.0900,-4.34341234,19.68744864,1083.13636
9.0950,-4.346978124,19.69051957,1083.156662
9.1000,-4.350508791,19.69337246,1083.176919
9.1050,-4.353953218,19.69603471,1083.197147
9.1100,-4.357324669,19.69852802,1083.21735
9.1150,-4.360631826,19.70084178,1083.237553
9.1200,-4.363807883,19.70299878,1083.25775
9.1250,-4.366894218,19.70500013,1083.277954
9.1300,-4.369866321,19.70690096,1083.298178
9.1350,-4.372733306,19.70869587,1083.318446
9.1400,-4.375460346,19.71040327,1083.33876
9.1450,-4.378087945,19.71200529,1083.359116
9.1500,-4.380570926,19.7135158,1083.379507
9.1550,-4.38299449,19.71491917,1083.399966
9.1600,-4.385314758,19.71620276,1083.420463
9.1650,-4.387587769,19.71734085,1083.441026
9.1700,-4.389810533,19.71828267,1083.461622
9.1750,-4.392093801,19.71909951,1083.482321
9.1800,-4.394423049,19.71979924,1083.503138
9.1850,-4.396760228,19.72049926,1083.524087
9.1900,-4.399153656,19.72123544,1083.545189
9.1950,-4.401584607,19.72201266,1083.566444
9.2000,-4.404067978,19.72283703,1083.587856
9.2050,-4.406611465,19.72372396,1083.609432
9.2100,-4.409242113,19.72469336,1083.631168
9.2150,-4.411965803,19.72571719,1083.653058
9.2200,-4.414808135,19.72678038,1083.675095
9.2250,-4.4177908,19.72792966,1083.697292
9.2300,-4.420948703,19.72914339,1083.719656
9.2350,-4.424263905,19.73044963,1083.742181
9.2400,-4.427734741,19.73189823,1083.764885
9.2450,-4.431306992,19.73347444,1083.787725
9.2500,-4.434937132,19.73516492,1083.810668
9.2550,-4.438639114,19.73690257,1083.833694
9.2600,-4.44243678,19.73869402,1083.856803
9.2650,-4.446385629,19.74052067,1083.880008
9.2700,-4.450495067,19.7424126,1083.903305
9.2750,-4.454735676,19.74437997,1083.926682
9.2800,-4.459125652,19.74640987,1083.950132
9.2850,-4.463645855,19.74848098,1083.973641
9.2900,-4.468257271,19.75060561,1083.997194
9.2950,-4.472991099,19.7527977,1084.020802
9.3000,-4.477845666,19.75499075,1084.044429
9.3050,-4.482881109,19.75720001,1084.068084
9.3100,-4.488044078,19.75943956,1084.091768
9.3150,-4.493305464,19.76179826,1084.11549
9.3200,-4.498607269,19.76431455,1084.13921
9.3250,-4.503944455,19.76692627,1084.1629
9.3300,-4.509317392,19.7696448,1084.186565
9.3350,-4.514697908,19.77242056,1084.21017
9.3400,-4.520079782,19.77521555,1084.233682
9.3450,-4.52544104,19.77804574,1084.257107
9.3500,-4.53077134,19.78093835,1084.280426
9.3550,-4.536020436,19.78383405,1084.303609
9.3600,-4.54117506,19.78680683,1084.326659
9.3650,-4.546206593,19.78977897,1084.349537
9.3700,-4.551092169,19.79277169,1084.372224
9.3750,-4.555859135,19.79578014,1084.394738
9.3800,-4.560450642,19.79877356,1084.417035
9.3850,-4.564841439,19.80174358,1084.439098
9.3900,-4.569049131,19.80467794,1084.460916
9.3950,-4.573062646,19.80755962,1084.482473
9.4000,-4.576905615,19.8103981,1084.50378
9.4050,-4.58054449,19.81320351,1084.524824
9.4100,-4.583954488,19.81597142,1084.545594
9.4150,-4.587163903,19.81868532,1084.566095
9.4200,-4.59016863,19.82135268,1084.586329
9.4250,-4.592950006,19.82396216,1084.606281
9.4300,-4.595480215,19.8264868,1084.625934
9.4350,-4.59776566,19.82894514,1084.645292
9.4400,-4.599839055,19.83129919,1084.664367
9.4450,-4.601690481,19.83357672,1084.683181
9.4500,-4.603373468,19.83575772,1084.701746
9.4550,-4.604842798,19.83782522,1084.720041
9.4600,-4.606170882,19.83978878,1084.73812
9.4650,-4.607320084,19.84167468,1084.755966
9.4700,-4.608312924,19.8434815,1084.773603
9.4750,-4.60915993,19.84519456,1084.791037
9.4800,-4.609899132,19.84683733,1084.808298
9.4850,-4.610596129,19.84834611,1084.825412
9.4900,-4.611277353,19.8497111,1084.8424
9.4950,-4.611936852,19.8509482,1084.859249
9.5000,-4.612589639,19.85204438,1084.875972
9.5050,-4.61325032,19.85298047,1084.89257
9.5100,-4.613936423,19.85374836,1084.909072
9.5150,-4.61464984,19.8543565,1084.925484
9.5200,-4.615434959,19.85482841,1084.941844
9.5250,-4.616321236,19.85510305,1084.958146
9.5300,-4.617295034,19.85524232,1084.974418
9.5350,-4.618372109,19.85521616,1084.990643
9.5400,-4.619548196,19.85500668,1085.006817
9.5450,-4.620827728,19.85458054,1085.022943
9.5500,-4.622245035,19.85398432,1085.039061
9.5550,-4.623837583,19.85321661,1085.055189
9.5600,-4.625574047,19.85226043,1085.071295
9.5650,-4.627428106,19.85114935,1085.087393
9.5700,-4.629384547,19.84986935,1085.10347
9.5750,-4.631420174,19.84845956,1085.119529
9.5800,-4.633510272,19.84688509,1085.135531
9.5850,-4.635692948,19.84518436,1085.15152
9.5900,-4.637962289,19.84335859,1085.167478
9.5950,-4.640288043,19.84141437,1085.183388
9.6000,-4.642702925,19.83937895,1085.199275
9.6050,-4.645147423,19.8372795,1085.215125
9.6100,-4.647689685,19.83511566,1085.230964
9.6150,-4.650266047,19.83287922,1085.246753
9.6200,-4.65294182,19.83056671,1085.262535
9.6250,-4.655666959,19.82824078,1085.278307
9.6300,-4.658442305,19.82595052,1085.294076
9.6350,-4.661244323,19.82369056,1085.309818
9.6400,-4.664049437,19.82150277,1085.325545
9.6450,-4.666831548,19.81938819,1085.341231
9.6500,-4.669632911,19.81732132,1085.356884
9.6550,-4.672413888,19.81533968,1085.372486
9.6600,-4.675196737,19.8133467,1085.388014
9.6650,-4.677959255,19.81141213,1085.403476
9.6700,-4.680691653,19.80950804,1085.418856
9.6750,-4.683410564,19.80762692,1085.434145
9.6800,-4.686123196,19.80575313,1085.449341
9.6850,-4.688826914,19.80391868,1085.464467
9.6900,-4.6914909,19.80211325,1085.479506
9.6950,-4.694129081,19.80032142,1085.494455
9.7000,-4.696692426,19.79854449,1085.509286
9.7050,-4.699176657,19.79678628,1085.523988
9.7100,-4.701553992,19.7950067,1085.538534
9.7150,-4.703807296,19.79326182,1085.552934
9.7200,-4.705963884,19.79152686,1085.567194
9.7250,-4.708001296,19.7898123,1085.581306
9.7300,-4.710005712,19.78809648,1085.5953
9.7350,-4.712018136,19.78635656,1085.6092
9.7400,-4.714021457,19.78458954,1085.62299
9.7450,-4.716031609,19.78277021,1085.636662
9.7500,-4.718003623,19.78092777,1085.650209
9.7550,-4.719987879,19.77909443,1085.663675
9.7600,-4.721898486,19.77730453,1085.677027
9.7650,-4.7237828,19.77552676,1085.690283
9.7700,-4.725636188,19.77385619,1085.7035
9.7750,-4.72746387,19.77227618,1085.716671
9.7800,-4.729265331,19.77081201,1085.7298
9.7850,-4.730994661,19.76948305,1085.742877
9.7900,-4.732693109,19.76831945,1085.755937
9.7950,-4.734388112,19.76733902,1085.769024
9.8000,-4.736113504,19.76654839,1085.782156
9.8050,-4.73788479,19.76600714,1085.795388
9.8100,-4.739725342,19.76572455,1085.808722
9.8150,-4.741681407,19.76569427,1085.822198
9.8200,-4.743734091,19.76591266,1085.835799
9.8250,-4.745908104,19.76638988,1085.849539
9.8300,-4.748248293,19.76709496,1085.863437
9.8350,-4.75077912,19.76803082,1085.877513
9.8400,-4.753500107,19.76918813,1085.891748
9.8450,-4.756453119,19.7705342,1085.906156
9.8500,-4.759664785,19.77201676,1085.920714
9.8550,-4.76312955,19.77362783,1085.935421
9.8600,-4.766836956,19.77537011,1085.95027
9.8650,-4.770849861,19.77718243,1085.965247
9.8700,-4.775173871,19.77905092,1085.98036
9.8750,-4.779824185,19.78093025,1085.995581
9.8800,-4.784843307,19.78275564,1086.010908
9.8850,-4.790199215,19.78453742,1086.026315
9.8900,-4.795894809,19.78626646,1086.041796
9.8950,-4.801945266,19.78788032,1086.05732
9.9000,-4.808300983,19.78938455,1086.072863
9.9050,-4.814965842,19.79071559,1086.088399
9.9100,-4.82186346,19.79187477,1086.103859
9.9150,-4.829040549,19.79289025,1086.119275
9.9200,-4.836458885,19.79370594,1086.134598
9.9250,-4.844105403,19.79429999,1086.149792
9.9300,-4.851933768,19.79463624,1086.164808
9.9350,-4.859940726,19.79472458,1086.179654
9.9400,-4.868093945,19.79451166,1086.194264
9.9450,-4.876409205,19.79400122,1086.208647
9.9500,-4.884813528,19.79320304,1086.222756
9.9550,-4.893346786,19.79208869,1086.236598
9.9600,-4.901964013,19.79066736,1086.250139
9.9650,-4.910645374,19.78887562,1086.263345
9.9700,-4.919385532,19.78672508,1086.276201
9.9750,-4.928166672,19.78421866,1086.28869
9.9800,-4.936937964,19.78135573,1086.300781
9.9850,-4.945695776,19.77813776,1086.312449
9.9900,-4.954436943,19.77451516,1086.323673
9.9950,-4.963130012,19.77048927,1086.334428
10.0000,-4.971762255,19.76605768,1086.344701
10.0050,-4.980327155,19.76123378,1086.354495
10.0100,-4.98884979,19.75601661,1086.363807
10.0150,-4.997292007,19.75039298,1086.372618
10.0200,-5.005619581,19.7444265,1086.380916
10.0250,-5.013849826,19.73809988,1086.388712
10.0300,-5.021891879,19.7314783,1086.395975
10.0350,-5.029724094,19.7245702,1086.402692
10.0400,-5.037321468,19.71742905,1086.408868
10.0450,-5.044730873,19.71008685,1086.414542
10.0500,-5.051939152,19.70252474,1086.4197
10.0550,-5.058923067,19.69479616,1086.424354
10.0600,-5.065733805,19.68689585,1086.42853
10.0650,-5.072355373,19.67887721,1086.432254
10.0700,-5.078760896,19.67073931,1086.435483
10.0750,-5.084920262,19.66255387,1086.438239
10.0800,-5.090863614,19.65431779,1086.440551
10.0850,-5.096579353,19.6460957,1086.442428
10.0900,-5.102058568,19.63790705,1086.44389
10.0950,-5.107296868,19.62981689,1086.444948
10.1000,-5.112318106,19.62183647,1086.445631
10.1050,-5.117102748,19.61397727,1086.445922
10.1100,-5.121647886,19.60628354,1086.44585
10.1150,-5.125935729,19.59877983,1086.445404
10.1200,-5.129968791,19.59147329,1086.444588
10.1250,-5.133753462,19.5844107,1086.443448
10.1300,-5.137279757,19.57760596,1086.441953
10.1350,-5.140562855,19.5710693,1086.440128
10.1400,-5.143626662,19.56479486,1086.437994
10.1450,-5.146450606,19.55882783,1086.435561
10.1500,-5.149012378,19.55317882,1086.432811
10.1550,-5.151310323,19.54785872,1086.429741
10.1600,-5.153418683,19.54285445,1086.426404
10.1650,-5.155295106,19.53815457,1086.422773
10.1700,-5.156937226,19.53378449,1086.418861
10.1750,-5.158380729,19.52973741,1086.414688
10.1800,-5.159645516,19.52605639,1086.410299
10.1850,-5.160728199,19.52272131,1086.405695
10.1900,-5.161662332,19.51969581,1086.400887
10.1950,-5.162462796,19.51702168,1086.395913
10.2000,-5.163161644,19.51464241,1086.390769
10.2050,-5.163768823,19.51261108,1086.385487
10.2100,-5.164322706,19.5108875,1086.380093
10.2150,-5.164846302,19.50941132,1086.374589
10.2200,-5.165323985,19.5082227,1086.36898
10.2250,-5.165809009,19.50728174,1086.363295
10.2300,-5.166353336,19.50655959,1086.357565
10.2350,-5.166971135,19.50604249,1086.351792
10.2400,-5.167679438,19.50575594,1086.346015
10.2450,-5.168501289,19.50566828,1086.340236
10.2500,-5.169442611,19.50575717,1086.334452
10.2550,-5.170523848,19.5060222,1086.328681
10.2600,-5.17173439,19.50643188,1086.322911
10.2650,-5.173118067,19.50700285,1086.317158
10.2700,-5.174645213,19.50767914,1086.311389
10.2750,-5.176286729,19.50846006,1086.305594
10.2800,-5.178061868,19.50933295,1086.299774
10.2850,-5.17999861,19.51022193,1086.293913
10.2900,-5.1820391,19.51115965,1086.287993
10.2950,-5.184216405,19.5121171,1086.28203
10.3000,-5.186518891,19.51308564,1086.27601
10.3050,-5.188936955,19.51402158,1086.269913
10.3100,-5.191464634,19.51499431,1086.263785
10.3150,-5.194073918,19.51601351,1086.257596
10.3200,-5.196778641,19.5170289,1086.251355
10.3250,-5.199533592,19.51807309,1086.245033
10.3300,-5.202386856,19.51909709,1086.238658
10.3350,-5.205286487,19.52014145,1086.232208
10.3400,-5.208259906,19.52120996,1086.225706
10.3450,-5.211244857,19.52229504,1086.219107
10.3500,-5.214293012,19.52339799,1086.212454
10.3550,-5.217380676,19.52452986,1086.205743
10.3600,-5.220493267,19.52569919,1086.198976
10.3650,-5.22359596,19.52695371,1086.19214
10.3700,-5.226723862,19.52827437,1086.18527
10.3750,-5.229859285,19.52967317,1086.178347
10.3800,-5.232980036,19.53115345,1086.171364
10.3850,-5.236135085,19.53267311,1086.164344
10.3900,-5.239284217,19.53426379,1086.157265
10.3950,-5.242448933,19.53588234,1086.150139
10.4000,-5.245603935,19.53754694,1086.14296
10.4050,-5.248822479,19.53922645,1086.135756
10.4100,-5.252084018,19.54091044,1086.128513
10.4150,-5.255383887,19.54260264,1086.12124
10.4200,-5.258794213,19.5443285,1086.113992
10.4250,-5.262250704,19.54606722,1086.106712
10.4300,-5.265758639,19.54783167,1086.099412
10.4350,-5.269332462,19.54961055,1086.092104
10.4400,-5.272935621,19.55142696,1086.084782
10.4450,-5.276580075,19.55328964,1086.077428
10.4500,-5.280301065,19.55518024,1086.070081
10.4550,-5.284083335,19.55710019,1086.062728
10.4600,-5.287919798,19.55904725,1086.055357
10.4650,-5.291837665,19.56105469,1086.048009
10.4700,-5.295862406,19.56310213,1086.040678
10.4750,-5.299982155,19.56518822,1086.033372
10.4800,-5.304185605,19.56732827,1086.02607
10.4850,-5.308514385,19.56950889,1086.018792
10.4900,-5.312930371,19.57176306,1086.011523
10.4950,-5.317380958,19.57406262,1086.004228
10.5000,-5.321874266,19.57646988,1085.996927
10.5050,-5.326418942,19.57893179,1085.98962
10.5100,-5.331009679,19.58148957,1085.982308
10.5150,-5.33559576,19.58416092,1085.974959
10.5200,-5.340205122,19.5869248,1085.967584
10.5250,-5.344827707,19.58976626,1085.960168
10.5300,-5.349427761,19.59271687,1085.952703
10.5350,-5.354026184,19.59573321,1085.945182
10.5400,-5.358641809,19.59875285,1085.937581
10.5450,-5.363242657,19.60180471,1085.929901
10.5500,-5.367836678,19.60489023,1085.922143
10.5550,-5.372411712,19.60800674,1085.914296
10.5600,-5.376988607,19.61116456,1085.906375
10.5650,-5.381540998,19.61437748,1085.898366
10.5700,-5.386064969,19.61767837,1085.890278
10.5750,-5.390543663,19.62102963,1085.882085
10.5800,-5.394934953,19.62447765,1085.873773
10.5850,-5.399219935,19.62803193,1085.865333
10.5900,-5.403419433,19.63165746,1085.856765
10.5950,-5.407491466,19.63538118,1085.848046
10.6000,-5.411453878,19.6391578,1085.839179
10.6050,-5.415319177,19.64303594,1085.83018
10.6100,-5.419047472,19.64691945,1085.820988
10.6150,-5.422686056,19.65083979,1085.811655
10.6200,-5.426197928,19.6548142,1085.802158
10.6250,-5.429595304,19.65880024,1085.792506
10.6300,-5.432856979,19.66280695,1085.782662
10.6350,-5.435975865,19.66680205,1085.772633
10.6400,-5.438919086,19.6707855,1085.762391
10.6450,-5.441686493,19.67479013,1085.751961
10.6500,-5.444261734,19.67879165,1085.741318
10.6550,-5.446686664,19.68275036,1085.730475
10.6600,-5.448965257,19.68665392,1085.719419
10.6650,-5.45114126,19.69046359,1085.708164
10.6700,-5.453181186,19.69414119,1085.696677
10.6750,-5.455147664,19.69764915,1085.68498
10.6800,-5.457027295,19.70103304,1085.673085
10.6850,-5.458813828,19.70431521,1085.661003
10.6900,-5.460522165,19.70743727,1085.648714
10.6950,-5.462150115,19.71044415,1085.63624
10.7000,-5.463719078,19.71335635,1085.623604
10.7050,-5.465176386,19.71619376,1085.610783
10.7100,-5.466533395,19.71893403,1085.597778
10.7150,-5.467852075,19.72157806,1085.584609
10.7200,-5.469041329,19.72409008,1085.571219
10.7250,-5.470169569,19.72646552,1085.557648
10.7300,-5.471238877,19.72867698,1085.543884
10.7350,-5.47223979,19.73070892,1085.529905
10.7400,-5.473189168,19.73254124,1085.515712
10.7450,-5.474115918,19.73417094,1085.501336
10.7500,-5.474965169,19.73558606,1085.486727
10.7550,-5.475778017,19.73681206,1085.471924
10.7600,-5.476525949,19.73783852,1085.456908
10.7650,-5.477171884,19.73872439,1085.441672
10.7700,-5.477710715,19.739437,1085.426191
10.7750,-5.478141819,19.73997708,1085.410476
10.7800,-5.478447287,19.74036802,1085.394524
10.7850,-5.478605182,19.74062716,1085.37833
10.7900,-5.478603209,19.74075863,1085.361888
10.7950,-5.478496794,19.74078358,1085.345235
10.8000,-5.478230435,19.74072623,1085.32836
10.8050,-5.477791215,19.74059054,1085.31125
10.8100,-5.477165401,19.74039142,1085.293913
10.8150,-5.476386933,19.74014106,1085.276375
10.8200,-5.475464836,19.73984845,1085.258651
10.8250,-5.474367543,19.73956056,1085.240742
10.8300,-5.473121738,19.73924799,1085.222659
10.8350,-5.47175813,19.73897082,1085.204434
10.8400,-5.47022942,19.73878258,1085.18608
10.8450,-5.46854577,19.73862176,1085.167581
10.8500,-5.466738066,19.73851653,1085.148965
10.8550,-5.464764354,19.73846726,1085.130212
10.8600,-5.462629488,19.73847563,1085.111323
10.8650,-5.460372217,19.7384736,1085.092318
10.8700,-5.45795862,19.73848694,1085.073181
10.8750,-5.455410611,19.73851914,1085.053925
10.8800,-5.4527774,19.73855993,1085.034587
10.8850,-5.450080218,19.73860535,1085.015202
10.8900,-5.447315865,19.73867833,1084.995746
10.8950,-5.444526528,19.73873365,1084.976244
10.9000,-5.441683607,19.7388322,1084.956695
10.9050,-5.438785018,19.73888304,1084.937082
10.9100,-5.435859836,19.73894693,1084.917429
10.9150,-5.432893557,19.73897699,1084.897716
10.9200,-5.429892346,19.73895214,1084.877941
10.9250,-5.426876133,19.73887461,1084.858115
10.9300,-5.423824726,19.73875499,1084.838253
10.9350,-5.420799417,19.73861038,1084.818377
10.9400,-5.417824657,19.73839497,1084.798499
10.9450,-5.414902508,19.73808293,1084.778606
10.9500,-5.412013317,19.73770835,1084.758706
10.9550,-5.409139673,19.73720106,1084.73875
10.9600,-5.406340007,19.73660095,1084.718794
10.9650,-5.403593201,19.73585678,1084.698816
10.9700,-5.400974943,19.73502344,1084.678857
10.9750,-5.398438501,19.73407247,1084.658904
10.9800,-5.395988,19.73299351,1084.638932
10.9850,-5.393641655,19.73176355,1084.618939
10.9900,-5.391376252,19.73041841,1084.598934
10.9950,-5.389185942,19.72895341,1084.578901
11.0000,-5.387098522,19.72733786,1084.558827
11.0050,-5.385099324,19.72555155,1084.538705
11.0100,-5.383206954,19.72363428,1084.518555
11.0150,-5.38135149,19.72160759,1084.498346
11.0200,-5.379577053,19.71949758,1084.478105
11.0250,-5.377861008,19.71731028,1084.457821
11.0300,-5.376191946,19.71503487,1084.437492
11.0350,-5.374578858,19.71270565,1084.417112
11.0400,-5.373024597,19.71030376,1084.396683
11.0450,-5.371467174,19.70784637,1084.376166
11.0500,-5.369944247,19.7053773,1084.355588
11.0550,-5.36839178,19.70290105,1084.334931
11.0600,-5.366829629,19.70043227,1084.314191
11.0650,-5.365231452,19.6979224,1084.293345
11.0700,-5.363595588,19.69543033,1084.27242
11.0750,-5.361921646,19.69298573,1084.251398
11.0800,-5.360203827,19.69058568,1084.230301
11.0850,-5.358388951,19.68828657,1084.209103
11.0900,-5.356491278,19.68608694,1084.187822
11.0950,-5.354451178,19.68400782,1084.166426
11.1000,-5.35233895,19.68203068,1084.144934
11.1050,-5.35009843,19.68017704,1084.123321
11.1100,-5.347755473,19.67846503,1084.101601
11.1150,-5.345249902,19.67688437,1084.079752
11.1200,-5.342569312,19.67544481,1084.057758
11.1250,-5.339764297,19.67413274,1084.035634
11.1300,-5.336794792,19.67295692,1084.013353
11.1350,-5.333612249,19.67189076,1083.990903
11.1400,-5.330298405,19.67089281,1083.968293
11.1450,-5.326817832,19.67000507,1083.945522
11.1500,-5.32318384,19.66918792,1083.922576
11.1550,-5.319436858,19.66841267,1083.89946
11.1600,-5.315563488,19.66769301,1083.876194
11.1650,-5.311586631,19.66704566,1083.852781
11.1700,-5.307530952,19.66643937,1083.829218
11.1750,-5.303380435,19.66586801,1083.805507
11.1800,-5.299141079,19.66532368,1083.781642
11.1850,-5.294787083,19.66480261,1083.757595
11.1900,-5.290312956,19.66432812,1083.733405
11.1950,-5.285738017,19.66386743,1083.709055
11.2000,-5.281046948,19.66344007,1083.684552
11.2050,-5.276273732,19.66307013,1083.659922
11.2100,-5.271430629,19.66275007,1083.635176
11.2150,-5.266525037,19.66243518,1083.610315
11.2200,-5.261592151,19.66210163,1083.585342
11.2250,-5.256617055,19.66176874,1083.560255
11.2300,-5.251656649,19.66141692,1083.535072
11.2350,-5.246645101,19.66102782,1083.509767
11.2400,-5.241602976,19.66060953,1083.484353
11.2450,-5.236530293,19.66015886,1083.458837
11.2500,-5.231445779,19.65964773,1083.433206
11.2550,-5.226353463,19.65908253,1083.407469
11.2600,-5.221222839,19.65841479,1083.381611
11.2650,-5.216109525,19.65765972,1083.355653
11.2700,-5.21094277,19.65679402,1083.329562
11.2750,-5.205763704,19.65579323,1083.303349
11.2800,-5.200607386,19.65463149,1083.277034
11.2850,-5.195445447,19.65331518,1083.250603
11.2900,-5.190331916,19.65182148,1083.224066
11.2950,-5.185286439,19.65011456,1083.197423
11.3000,-5.180245909,19.6482046,1083.170661
11.3050,-5.175212972,19.64611376,1083.143778
11.3100,-5.1701447,19.64386574,1083.116768
11.3150,-5.165070094,19.641409,1083.089645
11.3200,-5.159973762,19.63877489,1083.062399
11.3250,-5.154813865,19.63596351,1083.034999
11.3300,-5.149580883,19.6329523,1083.007442
11.3350,-5.144251509,19.62978979,1082.97973
11.3400,-5.138794415,19.62650432,1082.951857
11.3450,-5.133224684,19.62306228,1082.923836
11.3500,-5.127529023,19.61948071,1082.895668
11.3550,-5.121676896,19.61572465,1082.867317
11.3600,-5.115619279,19.61180884,1082.838774
11.3650,-5.109361108,19.60774411,1082.810046
11.3700,-5.10291465,19.6035237,1082.781126
11.3750,-5.096244178,19.59912521,1082.751999
11.3800,-5.089362793,19.59455949,1082.722655
11.3850,-5.082297774,19.58977034,1082.693102
11.3900,-5.075042594,19.58478972,1082.663336
11.3950,-5.067643344,19.5796089,1082.633368
11.4000,-5.060061244,19.57424007,1082.603192
11.4050,-5.052348294,19.56869655,1082.572832
11.4100,-5.044490323,19.56294842,1082.542284
11.4150,-5.036516302,19.55701927,1082.511555
11.4200,-5.02842157,19.55093947,1082.480668
11.4250,-5.020206523,19.54470256,1082.449615
11.4300,-5.011899615,19.53834164,1082.418425
11.4350,-5.003497717,19.53186754,1082.387089
11.4400,-4.994933999,19.52533353,1082.355598
11.4450,-4.986266322,19.51871288,1082.323969
11.4500,-4.977431528,19.51201581,1082.29219
11.4550,-4.968448817,19.50531036,1082.26029
11.4600,-4.959289399,19.49857135,1082.228234
11.4650,-4.949940141,19.49177188,1082.196009
11.4700,-4.940371633,19.48498564,1082.163636
11.4750,-4.930621717,19.47818682,1082.131114
11.4800,-4.920676702,19.471349,1082.098437
11.4850,-4.910519361,19.4644808,1082.065608
11.4900,-4.900192094,19.45756579,1082.032639
11.4950,-4.889660633,19.45062431,1081.999528
11.5000,-4.878952513,19.44359023,1081.966265
11.5050,-4.868036254,19.43649268,1081.932858
11.5100,-4.856923501,19.42928567,1081.899288
11.5150,-4.845602387,19.4220446,1081.865568
11.5200,-4.834096438,19.41473841,1081.831701
11.5250,-4.822398951,19.40739487,1081.797692
11.5300,-4.810513904,19.39996719,1081.763548
11.5350,-4.798485809,19.39247729,1081.729268
11.5400,-4.786267383,19.38488186,1081.694828
11.5450,-4.773880254,19.37718478,1081.660234
11.5500,-4.761357369,19.36939396,1081.625517
11.5550,-4.748677174,19.36151657,1081.590673
11.5600,-4.73585068,19.35355014,1081.555709
11.5650,-4.722877447,19.3454988,1081.52063
11.5700,-4.709773006,19.33732893,1081.485435
11.5750,-4.69653646,19.32910495,1081.450134
11.5800,-4.683159544,19.32081115,1081.414723
11.5850,-4.669633777,19.31247957,1081.379223
11.5900,-4.655967707,19.30412857,1081.343648
11.5950,-4.642123174,19.29578824,1081.308006
11.6000,-4.628120717,19.28746874,1081.272301
11.6050,-4.613978372,19.27920819,1081.236543
11.6100,-4.599710052,19.27096992,1081.200718
11.6150,-4.58528237,19.26279895,1081.164821
11.6200,-4.570691796,19.25472551,1081.128875
11.6250,-4.555932637,19.2467464,1081.09288
11.6300,-4.541005603,19.23892705,1081.056874
11.6350,-4.52592331,19.23126266,1081.020865
11.6400,-4.510699548,19.22375083,1080.984861
11.6450,-4.49531201,19.21642504,1080.948859
11.6500,-4.47977091,19.20921808,1080.912844
11.6550,-4.464175043,19.20214626,1080.876841
11.6600,-4.448594873,19.1951936,1080.840867
11.6650,-4.433089909,19.18834563,1080.80492
11.6700,-4.417656501,19.18165325,1080.769033
11.6750,-4.402349312,19.17510894,1080.733204
11.6800,-4.387172759,19.16867775,1080.697442
11.6850,-4.37214853,19.16240071,1080.661733
11.6900,-4.357344345,19.15630499,1080.626127
11.6950,-4.342780062,19.15042912,1080.590639
11.7000,-4.328439434,19.14479422,1080.555272
11.7050,-4.314326269,19.13943695,1080.520036
11.7100,-4.300440413,19.13437129,1080.484946
11.7150,-4.286798462,19.12963045,1080.45001
11.7200,-4.273420202,19.12518982,1080.415243
11.7250,-4.26027286,19.12106249,1080.380651
11.7300,-4.247378453,19.1172307,1080.34624
11.7350,-4.234729917,19.11376607,1080.312023
11.7400,-4.222379994,19.1106318,1080.278012
11.7450,-4.210295479,19.10784298,1080.244189
11.7500,-4.198476632,19.10539251,1080.210574
11.7550,-4.186909338,19.1031947,1080.177159
11.7600,-4.175565664,19.10127615,1080.143947
11.7650,-4.164386292,19.09965049,1080.110947
11.7700,-4.153378091,19.09822294,1080.078131
11.7750,-4.142486173,19.09699511,1080.045501
11.7800,-4.131695732,19.09594759,1080.013052
11.7850,-4.120970605,19.09500422,1079.98077
11.7900,-4.110312894,19.09418037,1079.948641
11.7950,-4.099726249,19.09342696,1079.916678
11.8000,-4.089177475,19.0927574,1079.884871
11.8050,-4.078660474,19.09214746,1079.853217
11.8100,-4.068144421,19.09154349,1079.821707
11.8150,-4.057634282,19.09086093,1079.79033
11.8200,-4.047064466,19.09017162,1079.759083
11.8250,-4.036463189,19.08937897,1079.727967
11.8300,-4.025802146,19.08851428,1079.696968
11.8350,-4.015068153,19.08750321,1079.666089
11.8400,-4.004285612,19.08640666,1079.635349
11.8450,-3.993457158,19.08517712,1079.604743
11.8500,-3.982558888,19.08380302,1079.574259
11.8550,-3.971612097,19.08228705,1079.543915
11.8600,-3.96060953,19.08064303,1079.513689
11.8650,-3.949505307,19.07880059,1079.483568
11.8700,-3.938336642,19.07681399,1079.453586
11.8750,-3.927090459,19.07456434,1079.423714
11.8800,-3.91578518,19.07204726,1079.393947
11.8850,-3.90441469,19.06924575,1079.364274
11.8900,-3.892951308,19.06613939,1079.334677
11.8950,-3.881415776,19.06271207,1079.305151
11.9000,-3.869828753,19.05893195,1079.275701
11.9050,-3.858172711,19.05478069,1079.246323
11.9100,-3.84646044,19.05032635,1079.217039
11.9150,-3.83471827,19.0455609,1079.187836
11.9200,-3.822924269,19.04053819,1079.15871
11.9250,-3.811092233,19.03526108,1079.129665
11.9300,-3.799243215,19.02973863,1079.100674
11.9350,-3.787360339,19.02399133,1079.071743
11.9400,-3.77545934,19.01801281,1079.042861
11.9450,-3.763597137,19.01185987,1079.014043
11.9500,-3.751714542,19.00562127,1078.985287
11.9550,-3.739749319,18.99931674,1078.956596
11.9600,-3.727662457,18.9929883,1078.927976
11.9650,-3.715450472,18.98667394,1078.899422
11.9700,-3.703083401,18.98039162,1078.870924
11.9750,-3.690571788,18.97420411,1078.842501
11.9800,-3.677898559,18.96815938,1078.814162
11.9850,-3.665051939,18.96231423,1078.785935
11.9900,-3.651977169,18.95665045,1078.757787
11.9950,-3.638675447,18.95114998,1078.729723
12.0000,-3.625190177,18.94579099,1078.701747
12.0050,-3.611512627,18.94053841,1078.673856
12.0100,-3.597659879,18.93538862,1078.646044
12.0150,-3.583667968,18.93028287,1078.618309
12.0200,-3.56951019,18.92520596,1078.590647
12.0250,-3.555172441,18.92015052,1078.563046
12.0300,-3.540654874,18.91508615,1078.535499
12.0350,-3.525967788,18.90995472,1078.508015
12.0400,-3.511038749,18.90477767,1078.480579
12.0450,-3.495857081,18.89951486,1078.453199
12.0500,-3.480428773,18.8942,1078.42587
12.0550,-3.464732269,18.88883869,1078.398592
12.0600,-3.448792962,18.88336017,1078.371356
12.0650,-3.432603774,18.87775779,1078.344165
12.0700,-3.416170038,18.87203449,1078.317036
12.0750,-3.399491364,18.86612976,1078.289965
12.0800,-3.382601824,18.86000644,1078.262956
12.0850,-3.365532582,18.85368564,1078.236015
12.0900,-3.348280751,18.84709785,1078.209142
12.0950,-3.330855122,18.8402506,1078.182329
12.1000,-3.313287354,18.8330828,1078.155588
12.1050,-3.295602466,18.82555051,1078.128916
12.1100,-3.27779432,18.81769252,1078.102317
12.1150,-3.259851277,18.80948305,1078.075788
12.1200,-3.241811019,18.80086178,1078.049333
12.1250,-3.223661482,18.79186218,1078.022956
12.1300,-3.205407957,18.78249501,1077.99666
12.1350,-3.187101254,18.77277196,1077.970469
12.1400,-3.168737144,18.76266589,1077.94438
12.1450,-3.150305397,18.75221294,1077.918383
12.1500,-3.131801128,18.7413971,1077.892476
12.1550,-3.113263769,18.73027255,1077.866672
12.1600,-3.094657387,18.71881913,1077.840955
12.1650,-3.076008324,18.7071249,1077.815333
12.1700,-3.057337631,18.69519188,1077.789803
12.1750,-3.038634928,18.6830988,1077.764366
12.1800,-3.019858522,18.67089878,1077.739022
12.1850,-3.001037587,18.65863141,1077.713772
12.1900,-2.982209781,18.64630295,1077.688637
12.1950,-2.963356135,18.63397728,1077.663613
12.2000,-2.944471544,18.62169809,1077.638703
12.2050,-2.92558127,18.6094705,1077.613912
12.2100,-2.906639974,18.59731497,1077.589234
12.2150,-2.88763525,18.58525777,1077.564686
12.2200,-2.868601019,18.57331867,1077.540276
12.2250,-2.849545281,18.56153425,1077.516015
12.2300,-2.830427887,18.54991544,1077.491901
12.2350,-2.811268363,18.53839356,1077.467913
12.2400,-2.792048434,18.52704481,1077.444071
12.2450,-2.772710789,18.51584847,1077.420363
12.2500,-2.753291617,18.50484474,1077.396813
12.2550,-2.733803914,18.49398351,1077.373407
12.2600,-2.714200191,18.48330991,1077.350142
12.2650,-2.694476326,18.47283565,1077.327042
12.2700,-2.674593813,18.462565,1077.304094
12.2750,-2.654558015,18.45249259,1077.281309
12.2800,-2.634323099,18.44262968,1077.258678
12.2850,-2.613890301,18.43295706,1077.236195
12.2900,-2.593273195,18.42349255,1077.213861
12.2950,-2.572475923,18.41427475,1077.191686
12.3000,-2.551469075,18.40525431,1077.169657
12.3050,-2.530229213,18.39646557,1077.147767
12.3100,-2.508770677,18.38791795,1077.126028
12.3150,-2.487094126,18.37956434,1077.104435
12.3200,-2.465233881,18.37138935,1077.08298
12.3250,-2.443254717,18.36337751,1077.061675
12.3300,-2.421141519,18.3555427,1077.040535
12.3350,-2.398890339,18.34781044,1077.019535
12.3400,-2.376561539,18.34018415,1076.998696
12.3450,-2.354206149,18.33260872,1076.978023
12.3500,-2.331834033,18.32510373,1076.957522
12.3550,-2.309455444,18.31762032,1076.937188
12.3600,-2.287078925,18.31017502,1076.917029
12.3650,-2.264734615,18.30271592,1076.89704
12.3700,-2.242461202,18.29523444,1076.87722
12.3750,-2.22024025,18.28776408,1076.857567
12.3800,-2.198077104,18.28030185,1076.838086
12.3850,-2.176009145,18.27281622,1076.818785
12.3900,-2.154012538,18.2653136,1076.799657
12.3950,-2.132108346,18.25779524,1076.780713
12.4000,-2.110282298,18.25023767,1076.761937
12.4050,-2.088593662,18.24267849,1076.743343
12.4100,-2.067055335,18.23508346,1076.724923
12.4150,-2.045699782,18.22748902,1076.706683
12.4200,-2.024544594,18.21992945,1076.688633
12.4250,-2.003616036,18.21239727,1076.670768
12.4300,-1.982956142,18.20489458,1076.653093
12.4350,-1.962549742,18.19740666,1076.63559
12.4400,-1.942417329,18.18995222,1076.618253
12.4450,-1.922568656,18.18250842,1076.601092
12.4500,-1.903031035,18.17507112,1076.584098
12.4550,-1.883798805,18.16759026,1076.567264
12.4600,-1.8649,18.16009571,1076.550601
12.4650,-1.846329672,18.15254018,1076.534105
12.4700,-1.828079389,18.14493434,1076.517772
12.4750,-1.810116946,18.13734186,1076.501611
12.4800,-1.792478608,18.12975067,1076.485624
12.4850,-1.775111576,18.12213139,1076.469803
12.4900,-1.75795668,18.11455381,1076.454135
12.4950,-1.740987663,18.10698984,1076.438615
12.5000,-1.724180323,18.09948392,1076.423242
12.5050,-1.707444193,18.09207084,1076.408009
12.5100,-1.690791762,18.0847528,1076.392918
12.5150,-1.674193112,18.07754521,1076.377963
12.5200,-1.657585778,18.07041474,1076.363134
12.5250,-1.640952063,18.06336416,1076.348424
12.5300,-1.624305795,18.05639494,1076.333842
12.5350,-1.607581045,18.04956784,1076.319392
12.5400,-1.590748345,18.04285481,1076.305066
12.5450,-1.573770913,18.03624812,1076.290858
12.5500,-1.556710234,18.02969793,1076.276768
12.5550,-1.539475144,18.02325679,1076.262793
12.5600,-1.522096873,18.01686244,1076.248931
12.5650,-1.504526347,18.01050313,1076.235171
12.5700,-1.486795564,18.00416873,1076.221521
12.5750,-1.468868771,17.99781078,1076.207968
12.5800,-1.450771596,17.99141713,1076.194514
12.5850,-1.432510515,17.98494599,1076.18116
12.5900,-1.41406933,17.97832627,1076.167902
12.5950,-1.395443991,17.97152097,1076.154736
12.6000,-1.376616552,17.9645541,1076.141663
12.6050,-1.357634861,17.95736699,1076.128693
12.6100,-1.338480937,17.94993079,1076.115818
12.6150,-1.319166968,17.9422857,1076.10305
12.6200,-1.299700244,17.93441972,1076.090392
12.6250,-1.28002571,17.92636414,1076.077846
12.6300,-1.260166034,17.91802775,1076.065392
12.6350,-1.24013001,17.90947751,1076.053044
12.6400,-1.219906824,17.90069839,1076.040801
12.6450,-1.199510189,17.8917445,1076.028666
12.6500,-1.178980311,17.88253186,1076.016634
12.6550,-1.158310668,17.87312092,1076.004702
12.6600,-1.137572737,17.86351939,1075.992889
12.6650,-1.116796098,17.85378389,1075.981195
12.6700,-1.096009811,17.84393659,1075.969631
12.6750,-1.075294725,17.83395978,1075.958206
12.6800,-1.054645728,17.82388482,1075.946912
12.6850,-1.034125014,17.81372446,1075.935755
12.6900,-1.013794846,17.80349532,1075.924744
12.6950,-0.9936807202,17.79319567,1075.913877
12.7000,-0.9738680458,17.78289404,1075.903175
12.7050,-0.9543473369,17.77252994,1075.892622
12.7100,-0.9351889245,17.76215328,1075.882236
12.7150,-0.9164372406,17.75179016,1075.87202
12.7200,-0.8981338244,17.7413994,1075.861975
12.7250,-0.8803054206,17.73099401,1075.852098
12.7300,-0.8629823209,17.72057297,1075.842398
12.7350,-0.8461662744,17.71015111,1075.832868
12.7400,-0.8299122874,17.69972176,1075.823516
12.7450,-0.814243492,17.68928424,1075.814338
12.7500,-0.7991297309,17.67888941,1075.805335
12.7550,-0.7845876807,17.66855673,1075.796506
12.7600,-0.7706205291,17.65824385,1075.787842
12.7650,-0.7572028628,17.64798931,1075.779338
12.7700,-0.7442979238,17.63779823,1075.770986
12.7750,-0.7319122069,17.62767571,1075.762786
12.7800,-0.7200173316,17.61765277,1075.754732
12.7850,-0.7085877245,17.60774378,1075.746822
12.7900,-0.6975903674,17.59794787,1075.739055
12.7950,-0.6870239416,17.58828227,1075.731427
12.8000,-0.6768202312,17.57875072,1075.723933
12.8050,-0.6669843781,17.56932837,1075.716565
12.8100,-0.6574384387,17.55999812,1075.709311
12.8150,-0.6481430925,17.55079371,1075.702168
12.8200,-0.6390874697,17.54169983,1075.695136
12.8250,-0.6302363682,17.53272272,1075.688209
12.8300,-0.6215062335,17.52382627,1075.68137
12.8350,-0.6129037432,17.5150071,1075.674624
12.8400,-0.6043989265,17.50625319,1075.667965
12.8450,-0.5959926493,17.49753156,1075.661389
12.8500,-0.5875932417,17.48883038,1075.654887
12.8550,-0.5792378447,17.48012574,1075.64846
12.8600,-0.5708535134,17.47148219,1075.642108
12.8650,-0.562444597,17.46283483,1075.635822
12.8700,-0.5539726918,17.45416293,1075.629598
12.8750,-0.5454157722,17.44551945,1075.623436
12.8800,-0.5367433049,17.43685856,1075.617328
12.8850,-0.5279302391,17.4281964,1075.611271
12.8900,-0.5189367901,17.41957191,1075.605261
12.8950,-0.5097308096,17.41091982,1075.599287
12.9000,-0.5003395066,17.40226897,1075.593356
12.9050,-0.490749387,17.3936013,1075.587457
12.9100,-0.4809823341,17.38496143,1075.581597
12.9150,-0.4710194594,17.37631032,1075.575764
12.9200,-0.460855203,17.36766551,1075.569959
12.9250,-0.4505406231,17.35901245,1075.564184
12.9300,-0.4400845581,17.35041141,1075.55845
12.9350,-0.4295146132,17.34181831,1075.552752
12.9400,-0.4189002773,17.33321282,1075.547094
12.9450,-0.4082103958,17.32462056,1075.54147
12.9500,-0.3975159757,17.31605581,1075.535892
12.9550,-0.3868301754,17.30755629,1075.530369
12.9600,-0.3761897636,17.29908857,1075.524897
12.9650,-0.3656253828,17.29063418,1075.519482
12.9700,-0.3551682645,17.28220178,1075.514124
12.9750,-0.3448450335,17.27381689,1075.508831
12.9800,-0.3347218472,17.26550475,1075.503621
12.9850,-0.3248147535,17.25726839,1075.498493
12.9900,-0.3151290859,17.24912872,1075.493451
12.9950,-0.3056803154,17.24109779,1075.488498
13.0000,-0.2965115234,17.23316833,1075.483643
13.0050,-0.2876340875,17.22538645,1075.478894
13.0100,-0.2790447831,17.21773399,1075.474248
13.0150,-0.2707655671,17.2102224,1075.469709
13.0200,-0.2627866335,17.20286047,1075.465278
13.0250,-0.2551216397,17.19570138,1075.460966
13.0300,-0.2477517085,17.18867878,1075.456759
13.0350,-0.2406687478,17.18186531,1075.452666
13.0400,-0.2338626676,17.17523413,1075.448688
13.0450,-0.2273303332,17.1688246,1075.444831
13.0500,-0.2210774775,17.16265094,1075.4411
13.0550,-0.2151115175,17.15666454,1075.437495
13.0600,-0.2094120129,17.15095443,1075.434026
13.0650,-0.2039945475,17.14549603,1075.430695
13.0700,-0.1988925676,17.14031066,1075.427514
13.0750,-0.1941089252,17.13539267,1075.424483
13.0800,-0.1896186785,17.13072692,1075.4216
13.0850,-0.1854508308,17.12637443,1075.418875
13.0900,-0.1816105379,17.1223396,1075.41631
13.0950,-0.1781111031,17.11860329,1075.413908
13.1000,-0.1749575984,17.11520998,1075.411671
13.1050,-0.1721522257,17.11218972,1075.409605
13.1100,-0.1697318273,17.10954034,1075.407717
13.1150,-0.1677135663,17.10727636,1075.406006
13.1200,-0.1660584599,17.10539035,1075.404466
13.1250,-0.1647210947,17.10392277,1075.403091
13.1300,-0.1637474883,17.10285948,1075.401886
13.1350,-0.1630554073,17.10221146,1075.400836
13.1400,-0.1626478729,17.1019385,1075.399936
13.1450,-0.1624433149,17.10208922,1075.399175
13.1500,-0.1624271421,17.10265881,1075.398554
13.1550,-0.1625072046,17.10359001,1075.398045
13.1600,-0.1626642786,17.10483108,1075.397639
13.1650,-0.162848862,17.10639181,1075.397332
13.1700,-0.1630182065,17.10824921,1075.397112
13.1750,-0.1631302614,17.1103512,1075.396965
13.1800,-0.1631679937,17.11272657,1075.39689
13.1850,-0.1630610925,17.11532588,1075.396869
13.1900,-0.1628389324,17.11812163,1075.396905
13.1950,-0.1624347721,17.12113964,1075.396987
13.2000,-0.1618546095,17.12431728,1075.397111
13.2050,-0.1610432152,17.12770663,1075.397273
13.2100,-0.1600664063,17.1311907,1075.397472
13.2150,-0.158900652,17.13479743,1075.397708
13.2200,-0.1576029147,17.1385086,1075.397988
13.2250,-0.1561832625,17.14225646,1075.398306
13.2300,-0.1546905427,17.1460745,1075.398671
13.2350,-0.1531480021,17.14996648,1075.39909
13.2400,-0.1515893478,17.15387232,1075.399557
13.2450,-0.1500718917,17.15779898,1075.400083
13.2500,-0.1486248504,17.16171936,1075.400672
13.2550,-0.1473380613,17.16556093,1075.401327
13.2600,-0.1462602279,17.16937471,1075.402062
13.2650,-0.1454245202,17.17315064,1075.402878
13.2700,-0.1448520502,17.1768704,1075.40378
13.2750,-0.144576042,17.18052554,1075.404769
13.2800,-0.1446286231,17.18408832,1075.405848
13.2850,-0.1449840691,17.18757369,1075.407016
13.2900,-0.1457047702,17.19096266,1075.408285
13.2950,-0.1467923481,17.19426615,1075.409658
13.3000,-0.1482245425,17.19743376,1075.411125
13.3050,-0.1499791487,17.2005203,1075.412692
13.3100,-0.1521340071,17.20352725,1075.414374
13.3150,-0.1546468569,17.20642274,1075.416167
13.3200,-0.1575693362,17.20926021,1075.418082
13.3250,-0.1608829448,17.2119938,1075.420115
13.3300,-0.1645952647,17.21469645,1075.422279
13.3350,-0.1687508136,17.21735995,1075.424584
13.3400,-0.1733237515,17.22002234,1075.427027
13.3450,-0.1783196765,17.22268514,1075.429614
13.3500,-0.1837961421,17.22530995,1075.432349
13.3550,-0.1897361635,17.22796188,1075.435237
13.3600,-0.1962022313,17.23058784,1075.438281
13.3650,-0.2032181874,17.23327032,1075.441497
13.3700,-0.210762996,17.23597335,1075.444875
13.3750,-0.2188979497,17.23871122,1075.448428
13.3800,-0.2276317381,17.24150164,1075.452159
13.3850,-0.2369672185,17.24431944,1075.456069
13.3900,-0.2469539722,17.24720723,1075.460172
13.3950,-0.2575670975,17.25015189,1075.464463
13.4000,-0.2687869017,17.25311356,1075.468935
13.4050,-0.2806194563,17.2561044,1075.473594
13.4100,-0.2930139282,17.25915834,1075.478434
13.4150,-0.3059465581,17.26224041,1075.483457
13.4200,-0.3194097126,17.26537829,1075.48866
13.4250,-0.3334228291,17.26854602,1075.494049
13.4300,-0.3478776812,17.2717752,1075.499619
13.4350,-0.3627458988,17.27503872,1075.50536
13.4400,-0.3779924564,17.27839543,1075.511276
13.4450,-0.3936155864,17.28182463,1075.517374
13.4500,-0.4095549465,17.28530258,1075.523638
13.4550,-0.4258055066,17.28886652,1075.530075
13.4600,-0.4423297745,17.29255615,1075.536686
13.4650,-0.4590898951,17.29640175,1075.543466
13.4700,-0.476042386,17.30038981,1075.550408
13.4750,-0.4931568817,17.30452346,1075.557507
13.4800,-0.5104147529,17.30881674,1075.564766
13.4850,-0.5277941034,17.3132426,1075.572176
13.4900,-0.545256199,17.31780874,1075.579732
13.4950,-0.562806626,17.32248416,1075.587434
13.5000,-0.5804370283,17.32730868,1075.595281
13.5050,-0.5981698306,17.33220308,1075.603274
13.5100,-0.6159411233,17.33718322,1075.611404
13.5150,-0.6337848585,17.34225094,1075.619676
13.5200,-0.6516368293,17.34740139,1075.628078
13.5250,-0.6694617309,17.35263437,1075.636605
13.5300,-0.6871977047,17.35792449,1075.645247
13.5350,-0.7048616711,17.36321233,1075.653998
13.5400,-0.7224024491,17.36855262,1075.662859
13.5450,-0.7397851504,17.37387554,1075.671816
13.5500,-0.7569708033,17.37923848,1075.680867
13.5550,-0.7739610022,17.38464664,1075.690016
13.5600,-0.7906799474,17.39007934,1075.699247
13.5650,-0.807112611,17.39550815,1075.708557
13.5700,-0.8232355744,17.40096378,1075.717942
13.5750,-0.8390608707,17.40644545,1075.727406
13.5800,-0.8545667419,17.41191461,1075.73694
13.5850,-0.8697712006,17.41739064,1075.746546
13.5900,-0.8846831653,17.42286366,1075.756224
13.5950,-0.8993041782,17.42831308,1075.765967
13.6000,-0.9136808476,17.43379705,1075.775789
13.6050,-0.9278474781,17.43922954,1075.785686
