type,name,time_units,begin_time,frequency,count,units
signal_3d,"Noraxon MyoMotion-Trajectories-Radial styloid process RT","s",0.0000,200,5068,"mm"

time,x,y,z
0.0000,185.6706981,80.1700926,991.4649305
0.0050,185.6831182,80.14546191,991.4575439
0.0100,185.6955406,80.12083177,991.4501589
0.0150,185.7079653,80.09620219,991.4427754
0.0200,185.7216502,80.06839461,991.4345758
0.0250,185.736537,80.03735849,991.42557
0.0300,185.7525335,80.00310723,991.4157825
0.0350,185.7695144,79.96572007,991.4052523
0.0400,185.7873199,79.92532798,991.39403
0.0450,185.805756,79.88209685,991.3821755
0.0500,185.8245997,79.83622076,991.3697555
0.0550,185.8436097,79.78792291,991.3568423
0.0600,185.8625361,79.73745632,991.3435132
0.0650,185.8811289,79.6851047,991.3298494
0.0700,185.8991444,79.63118545,991.3159367
0.0750,185.9163503,79.57605157,991.3018653
0.0800,185.9325265,79.52008687,991.2877297
0.0850,185.9474656,79.46369159,991.2736264
0.0900,185.9609739,79.40726058,991.2596495
0.0950,185.9728782,79.35116401,991.2458851
0.1000,185.983033,79.29573898,991.2324079
0.1050,185.9913246,79.24129102,991.2192818
0.1100,185.9976713,79.18810251,991.2065627
0.1150,186.0020236,79.13644324,991.194302
0.1200,186.0043624,79.08657513,991.1825495
0.1250,186.0046909,79.03874974,991.1713544
0.1300,186.0030227,78.99320276,991.1607657
0.1350,185.9993747,78.95014932,991.1508334
0.1400,185.9937642,78.9097803,991.1416071
0.1450,185.9862081,78.87225814,991.1331343
0.1500,185.9767274,78.8377117,991.1254576
0.1550,185.9714466,78.7736845,991.1101148
0.1600,185.9655678,78.71306569,991.0955871
0.1650,185.9586633,78.65637799,991.0822505
0.1700,185.9504509,78.6040396,991.0700182
0.1750,185.9415696,78.55457542,991.0587085
0.1800,185.9316015,78.50882181,991.0482988
0.1850,185.9209804,78.46747063,991.0388595
0.1900,185.9109729,78.43083419,991.0305173
0.1950,185.9001587,78.39735327,991.0229736
0.2000,185.889121,78.36679769,991.0162303
0.2050,185.8775471,78.34085694,991.0106351
0.2100,185.8660618,78.31817182,991.0058277
0.2150,185.854813,78.29810163,991.0017729
0.2200,185.8449701,78.28144836,990.9983724
0.2250,185.8374216,78.26753358,990.995446
0.2300,185.8312497,78.25685727,990.993182
0.2350,185.8266846,78.25039716,990.9916452
0.2400,185.8243255,78.24665609,990.9906992
0.2450,185.8234785,78.24515372,990.9902174
0.2500,185.8245516,78.24550365,990.9898713
0.2550,185.828613,78.24726874,990.9896166
0.2600,185.8361712,78.2492308,990.988991
0.2650,185.8467261,78.25338386,990.9885537
0.2700,185.8608974,78.25869363,990.9880498
0.2750,185.8791985,78.26636931,990.9877171
0.2800,185.9010538,78.27612375,990.987442
0.2850,185.9259522,78.28806155,990.9873478
0.2900,185.953672,78.30075349,990.9872068
0.2950,185.9842141,78.31494348,990.987108
0.3000,186.0167858,78.33148285,990.9874406
0.3050,186.0503075,78.34852924,990.9876693
0.3100,186.0860033,78.36711058,990.9880655
0.3150,186.1235135,78.38652005,990.9884288
0.3200,186.1625898,78.40591502,990.9884166
0.3250,186.2026192,78.42533346,990.9883603
0.3300,186.2448703,78.44450091,990.9881329
0.3350,186.2881972,78.46135711,990.9872803
0.3400,186.3322091,78.47690523,990.9859443
0.3450,186.3775027,78.49133939,990.9842812
0.3500,186.4238448,78.50443285,990.9821158
0.3550,186.4715171,78.51567888,990.9792912
0.3600,186.5209213,78.52403754,990.9755663
0.3650,186.5703379,78.53020294,990.9711936
0.3700,186.6208256,78.53307863,990.9658335
0.3750,186.6729199,78.53280752,990.9596003
0.3800,186.7250359,78.52909263,990.9523782
0.3850,186.777855,78.52120404,990.9440337
0.3900,186.8306439,78.50861593,990.9345414
0.3950,186.8846051,78.49282602,990.923998
0.4000,186.9402908,78.47273109,990.9123202
0.4050,186.9969613,78.44898611,990.8997388
0.4100,187.0541937,78.42206453,990.8863723
0.4150,187.1120218,78.39207167,990.8723211
0.4200,187.1697096,78.35914891,990.8575952
0.4250,187.2256136,78.3235542,990.8423468
0.4300,187.2821947,78.28518068,990.8264097
0.4350,187.3390243,78.24369834,990.809724
0.4400,187.3962749,78.20055854,990.7927313
0.4450,187.4539361,78.15563917,990.7751925
0.4500,187.5106171,78.10913815,990.7574314
0.4550,187.567137,78.06118487,990.7392885
0.4600,187.6236461,78.01179457,990.720769
0.4650,187.6805148,77.96159435,990.7017576
0.4700,187.7382154,77.91039811,990.682474
0.4750,187.7953021,77.85799289,990.6627428
0.4800,187.8529839,77.80469222,990.6427178
0.4850,187.9101297,77.75129483,990.6226631
0.4900,187.9674166,77.6964229,990.6021737
0.4950,188.02378,77.64161816,990.581627
0.5000,188.0799386,77.58640939,990.5610116
0.5050,188.1366835,77.52913525,990.5398529
0.5100,188.1925703,77.47156602,990.5185562
0.5150,188.2480366,77.41344185,990.4971277
0.5200,188.3020882,77.35350786,990.475434
0.5250,188.3548958,77.29265902,990.4536538
0.5300,188.4070962,77.23055235,990.4316703
0.5350,188.4581709,77.16668472,990.4095245
0.5400,188.5087963,77.10181379,990.3872924
0.5450,188.5578816,77.03447284,990.3647351
0.5500,188.6066799,76.96586731,990.3421522
0.5550,188.6549858,76.89605251,990.3193069
0.5600,188.701574,76.82468999,990.2964369
0.5650,188.7477282,76.75201001,990.2734548
0.5700,188.7930177,76.67693165,990.2501408
0.5750,188.8375034,76.59994283,990.2264474
0.5800,188.8818645,76.52061551,990.2023038
0.5850,188.9253465,76.43870743,990.177743
0.5900,188.9693708,76.35650119,990.153103
0.5950,189.0128766,76.27219285,990.1279829
0.6000,189.0562233,76.18522629,990.1022809
0.6050,189.0990419,76.09795132,990.0766444
0.6100,189.1424594,76.00953023,990.0505217
0.6150,189.1856779,75.92032161,990.0243008
0.6200,189.2294246,75.83048984,989.998029
0.6250,189.272954,75.74050534,989.9717305
0.6300,189.3151398,75.64981172,989.9452111
0.6350,189.3576507,75.56067471,989.9191335
0.6400,189.4008022,75.47326817,989.8933332
0.6450,189.4427853,75.38569842,989.8675268
0.6500,189.4848826,75.29859564,989.8418141
0.6550,189.526169,75.21372438,989.8167402
0.6600,189.5663695,75.13024157,989.7921116
0.6650,189.6058239,75.04789615,989.7679423
0.6700,189.6433064,74.96742869,989.7443398
0.6750,189.67977,74.88855403,989.7212402
0.6800,189.7151731,74.81103635,989.698459
0.6850,189.7499217,74.73762082,989.6766939
0.6900,189.7846768,74.6656558,989.655272
0.6950,189.8170762,74.59452663,989.6342477
0.7000,189.8483597,74.52655357,989.6141266
0.7050,189.8784647,74.46100557,989.5945833
0.7100,189.9058661,74.39678244,989.5754986
0.7150,189.932146,74.33527726,989.5569622
0.7200,189.9578246,74.27530576,989.5388002
0.7250,189.9826853,74.21753631,989.521222
0.7300,190.0058289,74.16246941,989.5042927
0.7350,190.0277449,74.11012548,989.4880332
0.7400,190.0479636,74.05921835,989.4722994
0.7450,190.0661214,74.00972708,989.4570217
0.7500,190.0831823,73.96204968,989.4423229
0.7550,190.0982564,73.91555035,989.4281204
0.7600,190.1118208,73.87188453,989.4147027
0.7650,190.1242642,73.8304655,989.4019214
0.7700,190.135956,73.78889484,989.3890908
0.7750,190.1467268,73.75019633,989.3771179
0.7800,190.1557334,73.7126704,989.3655103
0.7850,190.1638954,73.67695031,989.3543702
0.7900,190.171226,73.64273388,989.3436261
0.7950,190.1778076,73.6091824,989.3331021
0.8000,190.1844837,73.57683656,989.3228485
0.8050,190.1892485,73.54623184,989.3131608
0.8100,190.193245,73.51715784,989.3039285
0.8150,190.1971186,73.489534,989.2949712
0.8200,190.1990439,73.46317857,989.2864287
0.8250,190.2002538,73.43757707,989.278093
0.8300,190.1996778,73.41287955,989.2701486
0.8350,190.1978777,73.38830931,989.2623561
0.8400,190.1943651,73.36567901,989.2551772
0.8450,190.1910213,73.34458103,989.2483913
0.8500,190.1867139,73.3246898,989.2419937
0.8550,190.1812472,73.30638619,989.236265
0.8600,190.1753313,73.2893072,989.2308817
0.8650,190.1679871,73.27291979,989.2258319
0.8700,190.1600295,73.25899775,989.2213366
0.8750,190.1521713,73.24641343,989.2172924
0.8800,190.1445137,73.23582991,989.2136377
0.8850,190.137464,73.22714123,989.2103983
0.8900,190.1302508,73.21941822,989.2073798
0.8950,190.1236264,73.21408347,989.204951
0.9000,190.1185502,73.21032435,989.202729
0.9050,190.1151079,73.20665661,989.2004079
0.9100,190.1121795,73.20472154,989.1985506
0.9150,190.1100317,73.20382194,989.1967999
0.9200,190.1088072,73.20481631,989.1952713
0.9250,190.108481,73.20661892,989.1937915
0.9300,190.1102485,73.21005423,989.1925
0.9350,190.1125022,73.21427817,989.1911413
0.9400,190.115386,73.21919532,989.1898879
0.9450,190.1193977,73.22588544,989.1888705
0.9500,190.1224306,73.23440932,989.1883735
0.9550,190.1255452,73.24316045,989.1877857
0.9600,190.1291604,73.25272185,989.187342
0.9650,190.1322701,73.26393438,989.1870913
0.9700,190.1357869,73.27564179,989.1868099
0.9750,190.1381103,73.28802299,989.1867954
0.9800,190.1389134,73.30160436,989.1871424
0.9850,190.1392874,73.31467686,989.1873483
0.9900,190.1370147,73.32912722,989.1880596
0.9950,190.1336148,73.34536203,989.1893034
1.0000,190.1287556,73.36166239,989.1907106
1.0050,190.1224527,73.37835162,989.1922365
1.0100,190.1152296,73.39644184,989.1942305
1.0150,190.106246,73.41495202,989.1964516
1.0200,190.0949258,73.43558929,989.1993772
1.0250,190.0817507,73.45650409,989.2025341
1.0300,190.0668744,73.47797898,989.2060561
1.0350,190.050717,73.50044564,989.2099492
1.0400,190.0321266,73.52361544,989.2140779
1.0450,190.0123063,73.54713068,989.218495
1.0500,189.9917496,73.57151072,989.2231881
1.0550,189.9700786,73.59732963,989.2282531
1.0600,189.9461293,73.62236397,989.2333415
1.0650,189.9190865,73.64647604,989.2384504
1.0700,189.8898454,73.67208785,989.2441689
1.0750,189.8582295,73.69856316,989.2502994
1.0800,189.824583,73.72516556,989.2568911
1.0850,189.7890434,73.75087718,989.2633639
1.0900,189.7502469,73.77683809,989.2703786
1.0950,189.7102338,73.80281771,989.2775229
1.1000,189.6684756,73.82811255,989.2847479
1.1050,189.6250863,73.85316818,989.2920079
1.1100,189.5808065,73.87646841,989.2990849
1.1150,189.5340137,73.89825263,989.306245
1.1200,189.4873401,73.91905209,989.3132848
1.1250,189.4388677,73.93910458,989.3205662
1.1300,189.3904162,73.9589113,989.32794
1.1350,189.3421695,73.97909073,989.3353863
1.1400,189.29381,73.99834698,989.342708
1.1450,189.2450605,74.01740382,989.3500736
1.1500,189.1959545,74.03591987,989.3573615
1.1550,189.14699,74.05405286,989.3646856
1.1600,189.0986353,74.07236065,989.3720522
1.1650,189.0519682,74.09021069,989.3791616
1.1700,189.0061152,74.1077192,989.3862795
1.1750,188.9605494,74.12478675,989.3933491
1.1800,188.9155765,74.14065057,989.4002049
1.1850,188.8713138,74.15553527,989.4067843
1.1900,188.8299435,74.17054389,989.4131877
1.1950,188.7889715,74.1835265,989.4192574
1.2000,188.7491317,74.19643765,989.425248
1.2050,188.7105596,74.20951192,989.4311279
1.2100,188.6720201,74.22243712,989.4369406
1.2150,188.6341172,74.23556789,989.442666
1.2200,188.5961622,74.24703314,989.4479349
1.2250,188.5590581,74.25783666,989.4529509
1.2300,188.5205402,74.26766033,989.4577036
1.2350,188.4825135,74.27727229,989.4621773
1.2400,188.4436045,74.28561818,989.4661248
1.2450,188.4046248,74.29265572,989.4695426
1.2500,188.3658231,74.29874338,989.4722941
1.2550,188.3260145,74.30431114,989.4747018
1.2600,188.2858811,74.30913956,989.4766079
1.2650,188.246409,74.31146059,989.477689
1.2700,188.207936,74.31281997,989.4781934
1.2750,188.16976,74.31323454,989.4780648
1.2800,188.1332627,74.31044186,989.4768758
1.2850,188.0970183,74.30614855,989.4750911
1.2900,188.0630956,74.30046484,989.4723564
1.2950,188.0306858,74.29256521,989.4686115
1.3000,187.9991701,74.28301451,989.4640665
1.3050,187.9683934,74.27226502,989.4588156
1.3100,187.939741,74.25954074,989.4525386
1.3150,187.9114225,74.24558042,989.4456111
1.3200,187.8828845,74.2298273,989.4379947
1.3250,187.8532875,74.21255469,989.4296553
1.3300,187.8220517,74.19462022,989.4208395
1.3350,187.7884589,74.17542319,989.4113789
1.3400,187.7517964,74.15667331,989.4018969
1.3450,187.7112407,74.13745802,989.3920987
1.3500,187.6660588,74.11741769,989.3818509
1.3550,187.6166715,74.09640147,989.3712886
1.3600,187.5642233,74.07518216,989.3604341
1.3650,187.5076754,74.05290351,989.349232
1.3700,187.4456214,74.02938871,989.3377464
1.3750,187.3794385,74.00339385,989.3256926
1.3800,187.3088462,73.97675359,989.3132476
1.3850,187.2332281,73.94995429,989.3009736
1.3900,187.1518954,73.92220273,989.2884052
1.3950,187.063698,73.89335052,989.2761446
1.4000,186.9675639,73.86507429,989.2643544
1.4050,186.8628044,73.83625132,989.253137
1.4100,186.7478545,73.80794136,989.2428941
1.4150,186.6220065,73.77926204,989.2334364
1.4200,186.4834439,73.7517833,989.2255237
1.4250,186.3322687,73.72553065,989.2190414
1.4300,186.1667637,73.70038859,989.2142134
1.4350,185.9859257,73.67640571,989.2112916
1.4400,185.7899213,73.65408332,989.2103437
1.4450,185.5782826,73.63366124,989.2116172
1.4500,185.3504871,73.61599575,989.2154492
1.4550,185.1071492,73.59932273,989.2212664
1.4600,184.8468529,73.58556579,989.2298353
1.4650,184.5698904,73.57440147,989.2411067
1.4700,184.2778624,73.56604633,989.2550026
1.4750,183.970026,73.55962969,989.2713551
1.4800,183.6469936,73.55701082,989.2906555
1.4850,183.3087743,73.55742065,989.3127824
1.4900,182.9547247,73.56096334,989.3376897
1.4950,182.5874401,73.56829235,989.3653392
1.5000,182.2058424,73.57868973,989.3957528
1.5050,181.8110594,73.59259461,989.4291622
1.5100,181.4030564,73.60856895,989.4654182
1.5150,180.9807408,73.62773061,989.5050003
1.5200,180.5448979,73.65033551,989.5480748
1.5250,180.095927,73.67713621,989.5947483
1.5300,179.633317,73.70685726,989.64492
1.5350,179.1552842,73.73804469,989.6987429
1.5400,178.6625562,73.77200475,989.7564312
1.5450,178.1545978,73.80840653,989.8181643
1.5500,177.630337,73.84697473,989.8841948
1.5550,177.090986,73.88702963,989.9543027
1.5600,176.534787,73.93029546,990.0290857
1.5650,175.9630606,73.97703396,990.1086085
1.5700,175.3743979,74.02732812,990.1932598
1.5750,174.7708738,74.08153789,990.2828694
1.5800,174.1521419,74.14022838,990.3778044
1.5850,173.5192148,74.20254011,990.4778021
1.5900,172.8721169,74.2686261,990.5830398
1.5950,172.2115218,74.33911358,990.6938459
1.6000,171.5373028,74.41441235,990.8103793
1.6050,170.8497595,74.49367885,990.9326105
1.6100,170.1474183,74.57736956,991.0609379
1.6150,169.4309444,74.66535325,991.1955964
1.6200,168.6998579,74.75789349,991.3366291
1.6250,167.9548517,74.85536541,991.4845037
1.6300,167.1955872,74.95780921,991.6392558
1.6350,166.4207386,75.06537743,991.8015933
1.6400,165.6303313,75.17639334,991.9711971
1.6450,164.8246611,75.29305928,992.1487056
1.6500,164.0030556,75.41556931,992.3346192
1.6550,163.1637521,75.5430363,992.5292026
1.6600,162.3062098,75.67556072,992.7328573
1.6650,161.4306283,75.81427756,992.9461848
1.6700,160.536923,75.95832464,993.1693253
1.6750,159.6243791,76.10790482,993.4026311
1.6800,158.6921466,76.26188806,993.6466767
1.6850,157.7394886,76.41991996,993.901639
1.6900,156.7673239,76.58168126,994.1680685
1.6950,155.7767034,76.74811427,994.4461363
1.7000,154.7662952,76.91736086,994.7363389
1.7050,153.7380907,77.09003307,995.0387266
1.7100,152.6926924,77.26591705,995.3536116
1.7150,151.631085,77.44649813,995.6815016
1.7200,150.5540394,77.63079231,996.0224696
1.7250,149.459696,77.81784624,996.3766293
1.7300,148.349228,78.00822568,996.7444407
1.7350,147.222831,78.20064245,997.1258111
1.7400,146.0786578,78.39654721,997.5216342
1.7450,144.918315,78.59506121,997.9315503
1.7500,143.7413442,78.79686948,998.3559671
1.7550,142.5461123,79.00411016,998.7958582
1.7600,141.33403,79.21400063,999.250422
1.7650,140.1042285,79.42830829,999.7204872
1.7700,138.856422,79.64636281,1000.205598
1.7750,137.5917612,79.86992362,1000.706434
1.7800,136.3107917,80.09767715,1001.222375
1.7850,135.0143674,80.33114691,1001.753825
1.7900,133.7031314,80.56867275,1002.300519
1.7950,132.3772942,80.81144568,1002.862328
1.8000,131.0376152,81.05939216,1003.439248
1.8050,129.684451,81.31261816,1004.03099
1.8100,128.3190075,81.57150844,1004.637601
1.8150,126.9428133,81.83483554,1005.25844
1.8200,125.5546545,82.10380955,1005.893459
1.8250,124.1529797,82.37569386,1006.542713
1.8300,122.7399912,82.65277252,1007.206337
1.8350,121.3164067,82.93522415,1007.884018
1.8400,119.8813933,83.22236928,1008.576251
1.8450,118.4352724,83.51375665,1009.282574
1.8500,116.9783311,83.80927543,1010.002797
1.8550,115.5108438,84.11016904,1010.737407
1.8600,114.0323888,84.41402929,1011.485777
1.8650,112.5427219,84.72179593,1012.248171
1.8700,111.0415628,85.03105863,1013.024335
1.8750,109.5294277,85.34248645,1013.814303
1.8800,108.0066472,85.65620389,1014.618372
1.8850,106.4730159,85.97233447,1015.436693
1.8900,104.9277226,86.28839132,1016.269237
1.8950,103.3720047,86.60444481,1017.115573
1.9000,101.8054715,86.92012161,1017.975879
1.9050,100.2294498,87.23532083,1018.850177
1.9100,98.64449018,87.54979189,1019.738457
1.9150,97.05085576,87.86332709,1020.640523
1.9200,95.45087917,88.17579192,1021.556354
1.9250,93.84425354,88.48696471,1022.486099
1.9300,92.23200017,88.79592397,1023.430017
1.9350,90.61622395,89.10462176,1024.387753
1.9400,88.99622181,89.41346331,1025.359959
1.9450,87.37201994,89.72279354,1026.346892
1.9500,85.74403588,90.03269299,1027.348554
1.9550,84.11417436,90.34384984,1028.364499
1.9600,82.48180439,90.65648514,1029.395662
1.9650,80.84841953,90.96963957,1030.440997
1.9700,79.21415472,91.28429349,1031.501171
1.9750,77.57916666,91.59980235,1032.575827
1.9800,75.94529665,91.91842239,1033.665047
1.9850,74.31281221,92.23874729,1034.768648
1.9900,72.68226294,92.56172856,1035.886536
1.9950,71.05305461,92.88682165,1037.018958
2.0000,69.4268361,93.21495399,1038.165488
2.0050,67.80343955,93.54561582,1039.326203
2.0100,66.18505198,93.87974941,1040.500953
2.0150,64.57171533,94.21681663,1041.689862
2.0200,62.96326097,94.55643028,1042.892967
2.0250,61.36218277,94.89926649,1044.110183
2.0300,59.76947347,95.24608689,1045.341489
2.0350,58.18503439,95.59816943,1046.587547
2.0400,56.61046884,95.95494171,1047.847536
2.0450,55.04561666,96.31723056,1049.121948
2.0500,53.49133508,96.6848296,1050.410957
2.0550,51.94988883,97.05759808,1051.713934
2.0600,50.4206845,97.43662842,1053.03125
2.0650,48.90409945,97.82248871,1054.3628
2.0700,47.39988451,98.21440225,1055.709
2.0750,45.90950416,98.61266108,1057.069278
2.0800,44.43276914,99.01834969,1058.444169
2.0850,42.96905422,99.43079737,1059.833612
2.0900,41.51727855,99.85111096,1061.238124
2.0950,40.0774504,100.2783789,1062.657653
2.1000,38.64966125,100.7123795,1064.092661
2.1050,37.23247584,101.1520021,1065.542942
2.1100,35.82617174,101.5969792,1067.008136
2.1150,34.42902368,102.0468267,1068.489079
2.1200,33.04180896,102.5007129,1069.985303
2.1250,31.66518716,102.9591842,1071.496627
2.1300,30.29815614,103.4205333,1073.023261
2.1350,28.94060626,103.8845784,1074.565547
2.1400,27.59180727,104.3509915,1076.123094
2.1450,26.25106277,104.8194812,1077.696097
2.1500,24.91826566,105.2886579,1079.284548
2.1550,23.59315277,105.7571623,1080.888237
2.1600,22.27694245,106.2248688,1082.507368
2.1650,20.9686099,106.6910212,1084.141484
2.1700,19.66854917,107.1575163,1085.791698
2.1750,18.37765415,107.6230868,1087.458102
2.1800,17.09483602,108.0868139,1089.1399
2.1850,15.82132369,108.5481658,1090.837506
2.1900,14.55715584,109.0077236,1092.550794
2.1950,13.30158442,109.4645174,1094.280045
2.2000,12.0551582,109.9180323,1096.024548
2.2050,10.81693469,110.3678103,1097.784589
2.2100,9.587445023,110.8131887,1099.560285
2.2150,8.366557002,111.2547661,1101.350642
2.2200,7.153574957,111.6927578,1103.15598
2.2250,5.948216382,112.1258354,1104.975863
2.2300,4.750293532,112.5547808,1106.810526
2.2350,3.558161713,112.9768876,1108.659488
2.2400,2.374280527,113.3926757,1110.522052
2.2450,1.196728369,113.8008782,1112.397849
2.2500,0.02534052023,114.1998165,1114.286721
2.2550,-1.139691891,114.5902981,1116.18856
2.2600,-2.299039075,114.9713089,1118.102581
2.2650,-3.45154793,115.3426175,1120.029672
2.2700,-4.597864113,115.7046989,1121.969418
2.2750,-5.737010591,116.0579933,1123.922019
2.2800,-6.868842359,116.4015187,1125.886499
2.2850,-7.993440391,116.7351482,1127.863801
2.2900,-9.109801825,117.0597246,1129.853839
2.2950,-10.21759722,117.3746121,1131.855506
2.3000,-11.31619702,117.6783944,1133.869085
2.3050,-12.40582751,117.9721379,1135.89447
2.3100,-13.4875128,118.254268,1137.930809
2.3150,-14.55980149,118.5266771,1139.978164
2.3200,-15.62291599,118.788858,1142.035923
2.3250,-16.6767595,119.0419602,1144.104872
2.3300,-17.7226876,119.2849675,1146.183525
2.3350,-18.75992416,119.5180713,1148.271718
2.3400,-19.78794947,119.7418508,1150.369503
2.3450,-20.80650146,119.9570181,1152.47664
2.3500,-21.81518474,120.1630209,1154.591679
2.3550,-22.81480996,120.3614406,1156.715117
2.3600,-23.80581993,120.5522217,1158.846273
2.3650,-24.78812895,120.7347891,1160.98415
2.3700,-25.75963296,120.9108739,1163.127945
2.3750,-26.72318651,121.078508,1165.277179
2.3800,-27.67859044,121.2382073,1167.431088
2.3850,-28.62488399,121.3907083,1169.589019
2.3900,-29.56182639,121.5355029,1171.749691
2.3950,-30.48874988,121.6743222,1173.913657
2.4000,-31.40554138,121.8067153,1176.078551
2.4050,-32.31037697,121.9340572,1178.245165
2.4100,-33.20351266,122.0568186,1180.412848
2.4150,-34.08302675,122.1742643,1182.580806
2.4200,-34.94911283,122.2879152,1184.749012
2.4250,-35.80261184,122.397392,1186.917264
2.4300,-36.64197356,122.5031164,1189.085151
2.4350,-37.4688731,122.6035341,1191.251694
2.4400,-38.28126809,122.7010466,1193.416614
2.4450,-39.07871635,122.7944045,1195.579275
2.4500,-39.85971842,122.8850887,1197.739059
2.4550,-40.62530468,122.9728288,1199.895491
2.4600,-41.37628285,123.0585709,1202.048942
2.4650,-42.11176918,123.1415466,1204.199156
2.4700,-42.83298981,123.2218336,1206.344852
2.4750,-43.54123529,123.2979749,1208.486139
2.4800,-44.23726356,123.3701883,1210.623244
2.4850,-44.92122834,123.4382803,1212.755303
2.4900,-45.59271835,123.5029201,1214.881122
2.4950,-46.25254258,123.5641223,1217.001061
2.5000,-46.90199877,123.6214359,1219.115206
2.5050,-47.54106172,123.6751257,1221.22199
2.5100,-48.17093506,123.7255698,1223.321683
2.5150,-48.79118351,123.7713663,1225.414609
2.5200,-49.40260249,123.8117231,1227.500231
2.5250,-50.00408102,123.8488335,1229.580135
2.5300,-50.59680052,123.8803728,1231.652564
2.5350,-51.17913335,123.9077589,1233.71717
2.5400,-51.75206998,123.930605,1235.773517
2.5450,-52.31548879,123.9470772,1237.821924
2.5500,-52.86998048,123.9588624,1239.861757
2.5550,-53.41563083,123.9651238,1241.892802
2.5600,-53.95223484,123.9656272,1243.914857
2.5650,-54.48102698,123.9600147,1245.927612
2.5700,-55.00104314,123.9461291,1247.929728
2.5750,-55.51414968,123.9234984,1249.922017
2.5800,-56.02072071,123.8915451,1251.903656
2.5850,-56.5205903,123.8520215,1253.87361
2.5900,-57.01562396,123.804184,1255.831151
2.5950,-57.5066057,123.7484238,1257.777374
2.6000,-57.99392967,123.6857474,1259.710853
2.6050,-58.47748539,123.6148276,1261.631574
2.6100,-58.95547078,123.5383576,1263.540267
2.6150,-59.42957874,123.4571745,1265.43649
2.6200,-59.89773476,123.3714835,1267.320271
2.6250,-60.35923697,123.2814823,1269.190932
2.6300,-60.81466026,123.187275,1271.048621
2.6350,-61.2629233,123.0894316,1272.892872
2.6400,-61.70384357,122.9879065,1274.723169
2.6450,-62.13823615,122.8825634,1276.540149
2.6500,-62.56513438,122.7744588,1278.343761
2.6550,-62.98430068,122.6627673,1280.134384
2.6600,-63.39370889,122.5480079,1281.912142
2.6650,-63.79217902,122.4300155,1283.676478
2.6700,-64.18017322,122.3077304,1285.428453
2.6750,-64.55734216,122.1828931,1287.167428
2.6800,-64.92439291,122.0540022,1288.893827
2.6850,-65.28073248,121.9207426,1290.607602
2.6900,-65.62520734,121.785269,1292.309375
2.6950,-65.95755766,121.6469448,1293.999113
2.7000,-66.27679557,121.5063244,1295.677548
2.7050,-66.5824924,121.3632015,1297.344485
2.7100,-66.87460314,121.2163041,1298.999416
2.7150,-67.15381738,121.0662106,1300.642615
2.7200,-67.42187552,120.9113897,1302.273286
2.7250,-67.67925624,120.7524489,1303.892416
2.7300,-67.92852648,120.5895123,1305.499576
2.7350,-68.1670465,120.4258412,1307.096116
2.7400,-68.39604206,120.2585021,1308.682149
2.7450,-68.61446913,120.0895401,1310.25869
2.7500,-68.82314555,119.918565,1311.824863
2.7550,-69.02209553,119.7464127,1313.382247
2.7600,-69.21087028,119.5729501,1314.930351
2.7650,-69.38841158,119.3984837,1316.468775
2.7700,-69.55453403,119.2223459,1317.997957
2.7750,-69.71014288,119.0455095,1319.517675
2.7800,-69.85437249,118.8675958,1321.028273
2.7850,-69.98934978,118.6879182,1322.529526
2.7900,-70.11619457,118.5060195,1324.02244
2.7950,-70.23409332,118.323164,1325.506578
2.8000,-70.34393251,118.1383325,1326.981605
2.8050,-70.44638031,117.9511556,1328.449548
2.8100,-70.54124539,117.7621075,1329.909874
2.8150,-70.62917213,117.5717187,1331.362911
2.8200,-70.71064495,117.3803193,1332.807944
2.8250,-70.78681131,117.1870057,1334.244649
2.8300,-70.85720275,116.9952277,1335.674021
2.8350,-70.92333806,116.8032252,1337.097969
2.8400,-70.98582815,116.6113919,1338.515697
2.8450,-71.0437885,116.4221877,1339.927771
2.8500,-71.09679874,116.2350985,1341.334521
2.8550,-71.14528731,116.0509305,1342.736694
2.8600,-71.1889824,115.8707997,1344.133871
2.8650,-71.22761572,115.6952191,1345.526671
2.8700,-71.26238293,115.5250818,1346.915983
2.8750,-71.29160375,115.360502,1348.301004
2.8800,-71.31567989,115.199955,1349.682976
2.8850,-71.3349392,115.0426872,1351.060935
2.8900,-71.34803799,114.8876017,1352.436266
2.8950,-71.35496687,114.7354027,1353.808826
2.9000,-71.35567226,114.5859986,1355.179148
2.9050,-71.3497792,114.4405242,1356.54714
2.9100,-71.33879484,114.2963657,1357.912871
2.9150,-71.32196872,114.1525856,1359.275953
2.9200,-71.29964811,114.0115798,1360.636771
2.9250,-71.27241581,113.8717517,1361.995138
2.9300,-71.23835981,113.7337829,1363.351239
2.9350,-71.19955202,113.5958261,1364.705372
2.9400,-71.15649473,113.4597406,1366.058503
2.9450,-71.10863855,113.3249443,1367.409907
2.9500,-71.05538174,113.1922021,1368.760142
2.9550,-70.99681203,113.0609549,1370.107692
2.9600,-70.93138517,112.9310144,1371.453322
2.9650,-70.86096477,112.8031603,1372.798054
2.9700,-70.78521208,112.6774056,1374.141532
2.9750,-70.70219976,112.5529781,1375.483718
2.9800,-70.61113501,112.4302833,1376.825063
2.9850,-70.51176745,112.3103658,1378.164903
2.9900,-70.40466925,112.1927131,1379.504065
2.9950,-70.29004786,112.0750952,1380.841171
3.0000,-70.16989461,111.9584614,1382.176457
3.0050,-70.04502608,111.8412789,1383.509026
3.0100,-69.91584916,111.7253828,1384.840295
3.0150,-69.78377889,111.6110754,1386.169742
3.0200,-69.64781132,111.4967973,1387.497979
3.0250,-69.50829505,111.3823917,1388.823949
3.0300,-69.36499261,111.2695634,1390.148562
3.0350,-69.21843678,111.1563431,1391.471231
3.0400,-69.0679982,111.0438323,1392.791197
3.0450,-68.9126215,110.93339,1394.108233
3.0500,-68.75094232,110.8254347,1395.423149
3.0550,-68.58223647,110.7200087,1396.734876
3.0600,-68.40608452,110.6165541,1398.043136
3.0650,-68.22477962,110.5144726,1399.348209
3.0700,-68.03741907,110.4140702,1400.649727
3.0750,-67.84556074,110.3140115,1401.947656
3.0800,-67.64990357,110.2154108,1403.242435
3.0850,-67.44995044,110.1163645,1404.534437
3.0900,-67.24522402,110.0171878,1405.82292
3.0950,-67.03795031,109.9168785,1407.10902
3.1000,-66.82755602,109.8156333,1408.391849
3.1050,-66.61570699,109.7129324,1409.670914
3.1100,-66.40342548,109.6077683,1410.945825
3.1150,-66.19113366,109.500808,1412.216456
3.1200,-65.97782085,109.3926938,1413.483699
3.1250,-65.76538524,109.284414,1414.747431
3.1300,-65.55398072,109.1749741,1416.006936
3.1350,-65.34481841,109.0672232,1417.261586
3.1400,-65.13766667,108.9613721,1418.511501
3.1450,-64.93402269,108.8574424,1419.755775
3.1500,-64.73465642,108.7556324,1420.994035
3.1550,-64.5406014,108.6550632,1422.226118
3.1600,-64.35079226,108.5570874,1423.451496
3.1650,-64.16675581,108.463013,1424.669803
3.1700,-63.98785879,108.3731794,1425.880154
3.1750,-63.81291533,108.2867391,1427.081422
3.1800,-63.64041402,108.2072386,1428.273801
3.1850,-63.46737165,108.1353893,1429.457526
3.1900,-63.29358668,108.0710675,1430.630801
3.1950,-63.11655549,108.0137007,1431.792813
3.2000,-62.93669973,107.9624393,1432.943182
3.2050,-62.75314737,107.9171081,1434.08212
3.2100,-62.56649897,107.8786083,1435.208698
3.2150,-62.37538367,107.8448733,1436.323194
3.2200,-62.18151259,107.8143255,1437.425816
3.2250,-61.98503184,107.7876951,1438.516982
3.2300,-61.78468037,107.7640582,1439.596609
3.2350,-61.58021104,107.7439154,1440.665013
3.2400,-61.37153313,107.7241728,1441.72109
3.2450,-61.1588689,107.706057,1442.766008
3.2500,-60.94348977,107.6874059,1443.799294
3.2550,-60.72561659,107.6691953,1444.82176
3.2600,-60.50760989,107.6516039,1445.834279
3.2650,-60.28734988,107.6347374,1446.836491
3.2700,-60.06533884,107.6186816,1447.828267
3.2750,-59.84329246,107.6042408,1448.811211
3.2800,-59.62115178,107.5920252,1449.78473
3.2850,-59.40054238,107.5803918,1450.750018
3.2900,-59.18182815,107.5690545,1451.706984
3.2950,-58.96542491,107.5609753,1452.657026
3.3000,-58.75118873,107.5545732,1453.600991
3.3050,-58.53880689,107.5509525,1454.539235
3.3100,-58.32622972,107.5496245,1455.471627
3.3150,-58.11234934,107.5497524,1456.398816
3.3200,-57.89576532,107.5527546,1457.319563
3.3250,-57.67552249,107.5578216,1458.234029
3.3300,-57.450429,107.5629933,1459.141791
3.3350,-57.22054523,107.5695258,1460.042869
3.3400,-56.98707169,107.5760092,1460.937938
3.3450,-56.75174403,107.5807723,1461.827837
3.3500,-56.51587027,107.5829832,1462.712747
3.3550,-56.27985597,107.5835752,1463.593738
3.3600,-56.04309632,107.5827195,1464.470933
3.3650,-55.80622343,107.5813267,1465.345218
3.3700,-55.56984166,107.5783052,1466.217984
3.3750,-55.33253558,107.5742318,1467.088875
3.3800,-55.09521934,107.5690979,1467.95794
3.3850,-54.85942175,107.5643503,1468.825407
3.3900,-54.62467392,107.5585017,1469.692343
3.3950,-54.39148729,107.5518663,1470.55831
3.4000,-54.16202853,107.5448285,1471.424151
3.4050,-53.93671402,107.5381545,1472.28981
3.4100,-53.71553551,107.5324171,1473.155988
3.4150,-53.49908173,107.52778,1474.023002
3.4200,-53.28992958,107.5231819,1474.891165
3.4250,-53.08686182,107.5193267,1475.759938
3.4300,-52.89016051,107.5161336,1476.629883
3.4350,-52.69914265,107.5129991,1477.500489
3.4400,-52.51286746,107.5093135,1478.372387
3.4450,-52.3312177,107.5043929,1479.244538
3.4500,-52.15232352,107.4987119,1480.117284
3.4550,-51.97602761,107.4928369,1480.988778
3.4600,-51.80243657,107.4847399,1481.859374
3.4650,-51.6297524,107.4737651,1482.728258
3.4700,-51.45789669,107.458491,1483.595267
3.4750,-51.28685572,107.4397322,1484.46111
3.4800,-51.11630305,107.4152155,1485.324318
3.4850,-50.94799044,107.3844752,1486.184899
3.4900,-50.78137873,107.3469607,1487.042989
3.4950,-50.61812261,107.3031985,1487.898787
3.5000,-50.45552635,107.2533323,1488.752121
3.5050,-50.29486248,107.196546,1489.602695
3.5100,-50.13422191,107.1321373,1490.450368
3.5150,-49.97417159,107.0605271,1491.294669
3.5200,-49.81545432,106.9815462,1492.135503
3.5250,-49.65770175,106.8951433,1492.972179
3.5300,-49.50316565,106.8013644,1493.805253
3.5350,-49.34986384,106.7005501,1494.633774
3.5400,-49.19834801,106.5942938,1495.458098
3.5450,-49.04840566,106.4812383,1496.277299
3.5500,-48.90030583,106.3625911,1497.091794
3.5550,-48.75339005,106.2380841,1497.900993
3.5600,-48.60803774,106.1088844,1498.704088
3.5650,-48.46494508,105.974504,1499.500864
3.5700,-48.3230943,105.8377823,1500.291729
3.5750,-48.18280506,105.698109,1501.075585
3.5800,-48.04288988,105.5549542,1501.852314
3.5850,-47.90339512,105.4098032,1502.621079
3.5900,-47.76321127,105.2624433,1503.381156
3.5950,-47.62225224,105.1129322,1504.132432
3.6000,-47.4787478,104.9615427,1504.873594
3.6050,-47.33276367,104.8089427,1505.604718
3.6100,-47.18650061,104.6552067,1506.32532
3.6150,-47.03820538,104.5013801,1507.035199
3.6200,-46.88816036,104.347654,1507.735113
3.6250,-46.73617698,104.1945255,1508.424537
3.6300,-46.58335342,104.0428311,1509.103213
3.6350,-46.42951154,103.8916517,1509.771885
3.6400,-46.27365914,103.7433923,1510.430302
3.6450,-46.11535896,103.5980456,1511.078076
3.6500,-45.95443707,103.4568062,1511.715935
3.6550,-45.79155928,103.3188482,1512.342795
3.6600,-45.6281364,103.1853307,1512.959803
3.6650,-45.46322842,103.0544787,1513.566418
3.6700,-45.29707646,102.9285895,1514.161987
3.6750,-45.13055747,102.8078713,1514.747941
3.6800,-44.96283551,102.6906724,1515.3243
3.6850,-44.79425592,102.5788385,1515.890646
3.6900,-44.62647283,102.4719386,1516.447567
3.6950,-44.45923863,102.3712518,1516.99539
3.7000,-44.29122517,102.2757649,1517.534653
3.7050,-44.12289075,102.1853988,1518.065486
3.7100,-43.9546332,102.1003247,1518.588914
3.7150,-43.78663872,102.0196192,1519.105613
3.7200,-43.61846729,101.9449726,1519.616256
3.7250,-43.45082778,101.8750208,1520.120356
3.7300,-43.28334917,101.8092885,1520.618598
3.7350,-43.11530829,101.7473201,1521.111104
3.7400,-42.94723765,101.6893489,1521.598412
3.7450,-42.77899407,101.6354521,1522.081196
3.7500,-42.61029456,101.5844907,1522.559019
3.7550,-42.44173426,101.5347397,1523.032563
3.7600,-42.27299384,101.4867462,1523.502548
3.7650,-42.10482638,101.4388545,1523.968375
3.7700,-41.93658176,101.3911496,1524.430238
3.7750,-41.76889441,101.343042,1524.889015
3.7800,-41.60251537,101.2940491,1525.345237
3.7850,-41.43663511,101.2427653,1525.797589
3.7900,-41.27214719,101.1906271,1526.247474
3.7950,-41.10866977,101.1366189,1526.694097
3.8000,-40.9466134,101.0806012,1527.137339
3.8050,-40.78538277,101.0223708,1527.576716
3.8100,-40.62655944,100.9607542,1528.011855
3.8150,-40.47044212,100.8954175,1528.442561
3.8200,-40.31487708,100.827037,1528.867918
3.8250,-40.16198729,100.754737,1529.288938
3.8300,-40.01177313,100.6784634,1529.70419
3.8350,-39.86626349,100.5981795,1530.114007
3.8400,-39.72415211,100.5136126,1530.518138
3.8450,-39.58747485,100.4257372,1530.916746
3.8500,-39.45557484,100.3338845,1531.309107
3.8550,-39.32881509,100.2390893,1531.695795
3.8600,-39.20600779,100.1404654,1532.076338
3.8650,-39.08881029,100.0390726,1532.450407
3.8700,-38.97705438,99.93298488,1532.818015
3.8750,-38.86942873,99.82488963,1533.179079
3.8800,-38.76671334,99.71380435,1533.533618
3.8850,-38.66872321,99.60020884,1533.881402
3.8900,-38.57500947,99.48509412,1534.22296
3.8950,-38.48528949,99.36886356,1534.557419
3.9000,-38.40152363,99.25140055,1534.885601
3.9050,-38.32173067,99.13327473,1535.207666
3.9100,-38.24631482,99.01368358,1535.523142
3.9150,-38.17573284,98.89427851,1535.832139
3.9200,-38.11058014,98.77536163,1536.134786
3.9250,-38.05010866,98.65775437,1536.431321
3.9300,-37.99352739,98.54106058,1536.721184
3.9350,-37.94022052,98.42717265,1537.003893
3.9400,-37.88878236,98.31531781,1537.279109
3.9450,-37.84004645,98.20726129,1537.547547
3.9500,-37.79242622,98.1030665,1537.807811
3.9550,-37.7461829,98.00330677,1538.06089
3.9600,-37.70064239,97.90773423,1538.305411
3.9650,-37.65644635,97.81786002,1538.542277
3.9700,-37.61254914,97.7328254,1538.771051
3.9750,-37.56798071,97.65189674,1538.991218
3.9800,-37.5248693,97.5772697,1539.202809
3.9850,-37.48136612,97.50698504,1539.406204
3.9900,-37.43784917,97.44264527,1539.600979
3.9950,-37.39452847,97.38269727,1539.786967
4.0000,-37.35136342,97.32846331,1539.964597
4.0050,-37.30660921,97.2804759,1540.13368
4.0100,-37.26216353,97.23842474,1540.293903
4.0150,-37.21743119,97.20181055,1540.44505
4.0200,-37.17203898,97.17076056,1540.586755
4.0250,-37.12532523,97.14529916,1540.720196
4.0300,-37.07854454,97.12516817,1540.844985
4.0350,-37.03250103,97.11175299,1540.961806
4.0400,-36.98640596,97.10356444,1541.070231
4.0450,-36.94013985,97.09942927,1541.169924
4.0500,-36.89511116,97.09979141,1541.261144
4.0550,-36.84982939,97.10642811,1541.344213
4.0600,-36.8071029,97.11722723,1541.418321
4.0650,-36.76597699,97.1333888,1541.48416
4.0700,-36.72664798,97.15449061,1541.541948
4.0750,-36.69037079,97.17999438,1541.591212
4.0800,-36.65748933,97.21084979,1541.631785
4.0850,-36.62882792,97.24763042,1541.664542
4.0900,-36.60333835,97.28914844,1541.688366
4.0950,-36.58145115,97.33580402,1541.703379
4.1000,-36.5647442,97.38752477,1541.709571
4.1050,-36.55256555,97.44373314,1541.706469
4.1100,-36.54602486,97.50470934,1541.694872
4.1150,-36.54525265,97.57065042,1541.675257
4.1200,-36.55304172,97.64012296,1541.647017
4.1250,-36.56745198,97.71351375,1541.608811
4.1300,-36.58875744,97.79092685,1541.561521
4.1350,-36.61674327,97.87185401,1541.504123
4.1400,-36.65257491,97.95675443,1541.436532
4.1450,-36.69540871,98.04517755,1541.35809
4.1500,-36.74482365,98.13765576,1541.268272
4.1550,-36.80104662,98.23332155,1541.166031
4.1600,-36.86450097,98.332321,1541.05114
4.1650,-36.93330621,98.43571849,1540.923567
4.1700,-37.00923041,98.54326957,1540.782963
4.1750,-37.09111707,98.65350038,1540.628145
4.1800,-37.17901179,98.76860916,1540.459216
4.1850,-37.27168156,98.88767314,1540.275533
4.1900,-37.37035336,99.01049758,1540.07551
4.1950,-37.47546145,99.136141,1539.860117
4.2000,-37.58585809,99.26671232,1539.628227
4.2050,-37.70148102,99.40072587,1539.379521
4.2100,-37.82256,99.53956951,1539.113846
4.2150,-37.94763395,99.6818781,1538.829967
4.2200,-38.07567248,99.82827023,1538.528182
4.2250,-38.20762752,99.97766095,1538.207947
4.2300,-38.34303099,100.1317237,1537.869064
4.2350,-38.48183796,100.2889854,1537.511562
4.2400,-38.6247552,100.4506248,1537.135354
4.2450,-38.77079159,100.6160049,1536.739703
4.2500,-38.92100311,100.784672,1536.325014
4.2550,-39.07496931,100.9564236,1535.890913
4.2600,-39.23343013,101.1317134,1535.438752
4.2650,-39.39470065,101.3104852,1534.96749
4.2700,-39.56035015,101.4927344,1534.477269
4.2750,-39.73129597,101.6801195,1533.968181
4.2800,-39.90599574,101.8710191,1533.440532
4.2850,-40.08412713,102.0670216,1532.895119
4.2900,-40.26635435,102.2675735,1532.332235
4.2950,-40.45212692,102.4732686,1531.752042
4.3000,-40.64120516,102.6835927,1531.154467
4.3050,-40.83498706,102.8985372,1530.54112
4.3100,-41.03261468,103.1171221,1529.91214
4.3150,-41.23401123,103.3414077,1529.268247
4.3200,-41.44032637,103.5684444,1528.610356
4.3250,-41.65212219,103.7998978,1527.93857
4.3300,-41.86987218,104.0352622,1527.254485
4.3350,-42.09260004,104.2739552,1526.558132
4.3400,-42.3220318,104.5159288,1525.851443
4.3450,-42.55796585,104.7623563,1525.135123
4.3500,-42.79948978,105.0129528,1524.409345
4.3550,-43.04674544,105.2669517,1523.674614
4.3600,-43.29915054,105.5238161,1522.931806
4.3650,-43.55845902,105.782659,1522.18162
4.3700,-43.82466254,106.0447782,1521.425158
4.3750,-44.09659166,106.309405,1520.662626
4.3800,-44.37473635,106.5767224,1519.894989
4.3850,-44.65849819,106.8451224,1519.1231
4.3900,-44.94907833,107.1153156,1518.348496
4.3950,-45.24657819,107.3861698,1517.571995
4.4000,-45.55165725,107.6571009,1516.795262
4.4050,-45.86486342,107.9275686,1516.018755
4.4100,-46.18478897,108.198766,1515.243018
4.4150,-46.51295139,108.4710039,1514.468622
4.4200,-46.84692706,108.743648,1513.696867
4.4250,-47.18839926,109.0159523,1512.927774
4.4300,-47.53752514,109.2873652,1512.162171
4.4350,-47.89410007,109.5576813,1511.401392
4.4400,-48.25891764,109.8256742,1510.645608
4.4450,-48.63081916,110.0916037,1509.895093
4.4500,-49.01135111,110.3545873,1509.150908
4.4550,-49.40031511,110.6130164,1508.413316
4.4600,-49.7973487,110.8684991,1507.682582
4.4650,-50.20240662,111.1189587,1506.958453
4.4700,-50.61426471,111.3650812,1506.240437
4.4750,-51.03194112,111.6068441,1505.529007
4.4800,-51.45641063,111.8431848,1504.823206
4.4850,-51.88756265,112.074411,1504.123317
4.4900,-52.32325459,112.2998502,1503.429295
4.4950,-52.76263952,112.5207968,1502.739196
4.5000,-53.20405666,112.7366054,1502.053315
4.5050,-53.64820486,112.9480599,1501.370385
4.5100,-54.09285383,113.1542099,1500.690376
4.5150,-54.53945959,113.3559784,1500.012802
4.5200,-54.98708352,113.5519571,1499.337075
4.5250,-55.43624942,113.7433791,1498.663355
4.5300,-55.88477595,113.9301074,1497.990944
4.5350,-56.33479619,114.1132926,1497.319487
4.5400,-56.78415016,114.2924176,1496.648145
4.5450,-57.23228846,114.4673758,1495.9766
4.5500,-57.67945508,114.6396009,1495.304825
4.5550,-58.12406542,114.8091079,1494.631963
4.5600,-58.56589037,114.9760767,1493.957713
4.5650,-59.00431716,115.1407281,1493.281573
4.5700,-59.43982382,115.3036749,1492.603671
4.5750,-59.87169499,115.4636977,1491.923698
4.5800,-60.30017805,115.6215526,1491.241144
4.5850,-60.72676252,115.776293,1490.555042
4.5900,-61.15074275,115.9287801,1489.864936
4.5950,-61.57260394,116.0788246,1489.170634
4.6000,-61.99263142,116.2273957,1488.472347
4.6050,-62.41002795,116.3728287,1487.76826
4.6100,-62.82470103,116.5170295,1487.058621
4.6150,-63.23667507,116.6593145,1486.342254
4.6200,-63.64576545,116.800894,1485.61877
4.6250,-64.05192047,116.9412307,1484.888146
4.6300,-64.4535056,117.081181,1484.149493
4.6350,-64.85239422,117.2196594,1483.403156
4.6400,-65.24768557,117.3576417,1482.647605
4.6450,-65.63970494,117.4950513,1481.882094
4.6500,-66.02960798,117.6312949,1481.108226
4.6550,-66.4176612,117.7659404,1480.325609
4.6600,-66.80417579,117.8997988,1479.534655
4.6650,-67.18732999,118.0337249,1478.73522
4.6700,-67.56841493,118.1666994,1477.927013
4.6750,-67.94768005,118.2981975,1477.110329
4.6800,-68.32480746,118.4274256,1476.285564
4.6850,-68.70056044,118.5566158,1475.452532
4.6900,-69.0745868,118.6840772,1474.61089
4.6950,-69.4477596,118.8099278,1473.761086
4.7000,-69.81922674,118.9349375,1472.902563
4.7050,-70.18980016,119.0598799,1472.036239
4.7100,-70.55900022,119.1841409,1471.162851
4.7150,-70.9259418,119.3071015,1470.282123
4.7200,-71.29172824,119.4296461,1469.393654
4.7250,-71.65651514,119.551822,1468.498559
4.7300,-72.01951586,119.6724627,1467.596241
4.7350,-72.38088359,119.7928502,1466.686407
4.7400,-72.73920616,119.9128907,1465.768948
4.7450,-73.09669075,120.030112,1464.843634
4.7500,-73.4513372,120.1460386,1463.910602
4.7550,-73.80525849,120.2613138,1462.970057
4.7600,-74.15827129,120.3740693,1462.021149
4.7650,-74.51072373,120.4851036,1461.064405
4.7700,-74.86261919,120.593134,1460.100664
4.7750,-75.21418476,120.6993583,1459.129306
4.7800,-75.56348013,120.8033093,1458.150632
4.7850,-75.90994461,120.9063938,1457.164904
4.7900,-76.25378762,121.0079643,1456.171516
4.7950,-76.5951764,121.1082489,1455.171139
4.8000,-76.93409544,121.2069312,1454.162866
4.8050,-77.270852,121.3034474,1453.147568
4.8100,-77.60624807,121.3983354,1452.125589
4.8150,-77.93871511,121.4922881,1451.097565
4.8200,-78.26933427,121.5855933,1450.063099
4.8250,-78.59552375,121.678747,1449.022174
4.8300,-78.91841309,121.772277,1447.97535
4.8350,-79.23537392,121.8661382,1446.922627
4.8400,-79.54770172,121.9613411,1445.864432
4.8450,-79.85554625,122.0584016,1444.800278
4.8500,-80.15800592,122.1552008,1443.730498
4.8550,-80.45622491,122.2527558,1442.655195
4.8600,-80.74946888,122.350435,1441.573794
4.8650,-81.03874686,122.4489803,1440.487052
4.8700,-81.32408064,122.5483235,1439.395001
4.8750,-81.60558545,122.648806,1438.297821
4.8800,-81.88248689,122.7513413,1437.1955
4.8850,-82.15444632,122.8551648,1436.0878
4.8900,-82.42130157,122.960351,1434.975441
4.8950,-82.68307482,123.0664282,1433.858188
4.9000,-82.93993036,123.172998,1432.735369
4.9050,-83.19378071,123.27952,1431.607472
4.9100,-83.44328979,123.3860117,1430.475159
4.9150,-83.69074589,123.49145,1429.338754
4.9200,-83.93569827,123.5961111,1428.19781
4.9250,-84.1786031,123.7006731,1427.052738
4.9300,-84.42016202,123.8034191,1425.903067
4.9350,-84.65948458,123.9051689,1424.749076
4.9400,-84.89647881,124.0063332,1423.590815
4.9450,-85.13235109,124.1061854,1422.429107
4.9500,-85.36642832,124.20553,1421.262246
4.9550,-85.59975157,124.3031331,1420.091064
4.9600,-85.83138824,124.3991517,1418.915207
4.9650,-86.06281015,124.4925868,1417.735104
4.9700,-86.2928173,124.5836557,1416.550236
4.9750,-86.52206409,124.6723814,1415.36053
4.9800,-86.75069226,124.7588019,1414.165689
4.9850,-86.97852205,124.8427435,1412.966097
4.9900,-87.20581539,124.9247604,1411.761862
4.9950,-87.43138812,125.0042546,1410.552149
5.0000,-87.65543013,125.0816142,1409.33744
5.0050,-87.87733016,125.1568699,1408.117492
5.0100,-88.09806102,125.2289291,1406.891784
5.0150,-88.31816688,125.2977167,1405.660038
5.0200,-88.53715708,125.3636517,1404.422953
5.0250,-88.75462215,125.4268712,1403.180338
5.0300,-88.97003997,125.4876356,1401.931815
5.0350,-89.18385644,125.5449196,1400.677708
5.0400,-89.39768833,125.5985356,1399.417745
5.0450,-89.61025962,125.6507939,1398.152393
5.0500,-89.82237416,125.7007268,1396.880983
5.0550,-90.03241866,125.748522,1395.603921
5.0600,-90.23991571,125.7955922,1394.321802
5.0650,-90.44292613,125.8402845,1393.034704
5.0700,-90.6412334,125.8852115,1391.741179
5.0750,-90.83417105,125.9291254,1390.441934
5.0800,-91.02198985,125.9730897,1389.136573
5.0850,-91.20401199,126.0166534,1387.825102
5.0900,-91.37894476,126.0602836,1386.507304
5.0950,-91.54712815,126.1034539,1385.183293
5.1000,-91.70847248,126.1457426,1383.853444
5.1050,-91.8619412,126.1870026,1382.517102
5.1100,-92.00702272,126.2277082,1381.173946
5.1150,-92.14424534,126.2663741,1379.823847
5.1200,-92.27273317,126.3039121,1378.466489
5.1250,-92.39332526,126.339325,1377.102118
5.1300,-92.50611949,126.3717381,1375.731014
5.1350,-92.61169275,126.4016156,1374.353204
5.1400,-92.70979735,126.4279372,1372.96902
5.1450,-92.79905401,126.4515291,1371.578798
5.1500,-92.87971879,126.4734088,1370.182493
5.1550,-92.95118179,126.4939566,1368.780941
5.1600,-93.01480106,126.5140176,1367.374174
5.1650,-93.07030174,126.5318509,1365.962165
5.1700,-93.11774002,126.5471912,1364.545369
5.1750,-93.15642796,126.5595495,1363.123262
5.1800,-93.18720624,126.5680616,1361.696131
5.1850,-93.20917873,126.5742351,1360.263846
5.1900,-93.22438767,126.5760513,1358.827191
5.1950,-93.23284225,126.5738754,1357.385838
5.2000,-93.23591342,126.567183,1355.940596
5.2050,-93.23173655,126.5580833,1354.491209
5.2100,-93.2220279,126.5457186,1353.037984
5.2150,-93.20442041,126.5305013,1351.580867
5.2200,-93.17957852,126.5122946,1350.119535
5.2250,-93.14779901,126.4899325,1348.654364
5.2300,-93.10894594,126.4638278,1347.185733
5.2350,-93.06511409,126.4334427,1345.712587
5.2400,-93.01636239,126.3975986,1344.235267
5.2450,-92.96258927,126.3557109,1342.75377
5.2500,-92.90528782,126.3068159,1341.269309
5.2550,-92.84409002,126.2520339,1339.781606
5.2600,-92.77946262,126.1913445,1338.289853
5.2650,-92.71205084,126.1236962,1336.794034
5.2700,-92.64350421,126.0480117,1335.294753
5.2750,-92.57306498,125.9667895,1333.792268
5.2800,-92.50073686,125.8780493,1332.287325
5.2850,-92.42696003,125.7819608,1330.779607
5.2900,-92.34973308,125.6788366,1329.269194
5.2950,-92.27114014,125.5681424,1327.757318
5.3000,-92.19018066,125.4498752,1326.243859
5.3050,-92.10649076,125.3236476,1324.728876
5.3100,-92.020557,125.1896351,1323.213502
5.3150,-91.93120225,125.0494184,1321.698196
5.3200,-91.83911034,124.9027563,1320.182842
5.3250,-91.74338359,124.7510448,1318.667777
5.3300,-91.64466082,124.5955617,1317.154196
5.3350,-91.54228804,124.4371202,1315.641628
5.3400,-91.43554127,124.2773653,1314.130269
5.3450,-91.32401283,124.1157932,1312.621129
5.3500,-91.2072061,123.9544259,1311.114637
5.3550,-91.08309954,123.7948472,1309.610722
5.3600,-90.95306319,123.6366345,1308.109327
5.3650,-90.8164308,123.4825617,1306.609923
5.3700,-90.67283359,123.3335366,1305.113093
5.3750,-90.5230626,123.1903882,1303.617772
5.3800,-90.3656176,123.0535951,1302.125046
5.3850,-90.20037987,122.9237001,1300.633191
5.3900,-90.02855436,122.8011092,1299.143773
5.3950,-89.84888167,122.685714,1297.656515
5.4000,-89.66178786,122.5778797,1296.171656
5.4050,-89.46861884,122.4781265,1294.689435
5.4100,-89.26799233,122.3865387,1293.208888
5.4150,-89.06126005,122.3030106,1291.730541
5.4200,-88.84848536,122.2261794,1290.254255
5.4250,-88.62950705,122.1574354,1288.780535
5.4300,-88.40570821,122.0962098,1287.308859
5.4350,-88.17692463,122.0407731,1285.838981
5.4400,-87.94351542,121.9913701,1284.371179
5.4450,-87.7065868,121.9467129,1282.905178
5.4500,-87.46629354,121.9063505,1281.439995
5.4550,-87.22314027,121.8687917,1279.975154
5.4600,-86.97531418,121.8323763,1278.510849
5.4650,-86.72372463,121.798104,1277.046954
5.4700,-86.46665856,121.7655952,1275.583
5.4750,-86.20598162,121.7347825,1274.119125
5.4800,-85.94040504,121.7046865,1272.655025
5.4850,-85.67188161,121.6741918,1271.19098
5.4900,-85.39833357,121.6444462,1269.726368
5.4950,-85.11991621,121.6137777,1268.261542
5.5000,-84.83609517,121.5821119,1266.795762
5.5050,-84.54673694,121.5483232,1265.329749
5.5100,-84.25170779,121.5108917,1263.861809
5.5150,-83.95134179,121.4698994,1262.392541
5.5200,-83.64507109,121.4246509,1260.922805
5.5250,-83.33270527,121.3739715,1259.45261
5.5300,-83.01376736,121.3177285,1257.982675
5.5350,-82.68895358,121.2550338,1256.51435
5.5400,-82.35869694,121.1858424,1255.046903
5.5450,-82.02414998,121.1098402,1253.581161
5.5500,-81.68426321,121.0270821,1252.115941
5.5550,-81.3407512,120.9362355,1250.651371
5.5600,-80.99308058,120.8378967,1249.189502
5.5650,-80.64231955,120.7325619,1247.730415
5.5700,-80.28780652,120.6206866,1246.274011
5.5750,-79.93024629,120.5005757,1244.820459
5.5800,-79.57020463,120.3740186,1243.368734
5.5850,-79.20809616,120.2406693,1241.919999
5.5900,-78.84497957,120.1009038,1240.474882
5.5950,-78.47891382,119.9555733,1239.033046
5.6000,-78.10956878,119.8044164,1237.594991
5.6050,-77.73742383,119.6492647,1236.161142
5.6100,-77.36116101,119.4911694,1234.730775
5.6150,-76.98141651,119.3296297,1233.303664
5.6200,-76.59774481,119.1650151,1231.880369
5.6250,-76.21096561,118.9981114,1230.461443
5.6300,-75.82006949,118.8295688,1229.045441
5.6350,-75.42557609,118.6606074,1227.632951
5.6400,-75.02708064,118.4919167,1226.22425
5.6450,-74.62574125,118.3250105,1224.818897
5.6500,-74.2224184,118.1583375,1223.416334
5.6550,-73.81837597,117.9919484,1222.0166
5.6600,-73.41202334,117.8270324,1220.620414
5.6650,-73.00393486,117.6631814,1219.227265
5.6700,-72.59323885,117.5009283,1217.837654
5.6750,-72.18043694,117.3401358,1216.451871
5.6800,-71.76572195,117.1822471,1215.068884
5.6850,-71.3496075,117.0282542,1213.689809
5.6900,-70.93193638,116.8790882,1212.313393
5.6950,-70.51303312,116.7359943,1210.939653
5.7000,-70.09292668,116.59799,1209.567811
5.7050,-69.6706422,116.4663898,1208.197602
5.7100,-69.24826564,116.3396479,1206.829322
5.7150,-68.82477935,116.2196942,1205.463352
5.7200,-68.40031076,116.1051168,1204.099566
5.7250,-67.97398884,115.9949709,1202.737561
5.7300,-67.54510951,115.8892254,1201.377103
5.7350,-67.11398513,115.7883054,1200.018668
5.7400,-66.68071565,115.6918156,1198.661316
5.7450,-66.2448956,115.5995956,1197.305526
5.7500,-65.80717688,115.511801,1195.951932
5.7550,-65.36638659,115.4283697,1194.600036
5.7600,-64.92355517,115.3506677,1193.249234
5.7650,-64.47778574,115.2780321,1191.899766
5.7700,-64.02831764,115.2093282,1190.551133
5.7750,-63.57490855,115.1449616,1189.204189
5.7800,-63.11798062,115.0850552,1187.858443
5.7850,-62.65609199,115.0297695,1186.514005
5.7900,-62.18883176,114.977538,1185.170813
5.7950,-61.71595756,114.9288861,1183.828946
5.8000,-61.23598962,114.8834233,1182.48887
5.8050,-60.74927896,114.8402795,1181.150386
5.8100,-60.2542421,114.8001126,1179.813341
5.8150,-59.75152785,114.7622304,1178.477966
5.8200,-59.24058083,114.7268177,1177.143977
5.8250,-58.72125834,114.6942711,1175.811684
5.8300,-58.19484551,114.6635154,1174.480229
5.8350,-57.65964613,114.636085,1173.149175
5.8400,-57.11621862,114.6107867,1171.819423
5.8450,-56.56306277,114.5870132,1170.491297
5.8500,-56.00102282,114.563341,1169.165053
5.8550,-55.42961781,114.5395631,1167.841556
5.8600,-54.8498293,114.5145898,1166.51996
5.8650,-54.26064663,114.4878372,1165.200928
5.8700,-53.66254928,114.4584351,1163.88444
5.8750,-53.05556556,114.4268286,1162.571607
5.8800,-52.43925361,114.3935598,1161.263148
5.8850,-51.81344235,114.3574413,1159.958577
5.8900,-51.17771894,114.3180871,1158.657858
5.8950,-50.53285914,114.2760805,1157.361111
5.9000,-49.87991008,114.2301443,1156.068457
5.9050,-49.21844669,114.1807506,1154.780259
5.9100,-48.54960868,114.1268491,1153.496354
5.9150,-47.87299741,114.0687931,1152.218123
5.9200,-47.18880455,114.0064667,1150.945459
5.9250,-46.49723298,113.9374661,1149.677975
5.9300,-45.79968539,113.8624188,1148.417667
5.9350,-45.09588857,113.7799431,1147.164039
5.9400,-44.38731516,113.6896951,1145.918038
5.9450,-43.67256476,113.5919268,1144.679898
5.9500,-42.95200059,113.4862631,1143.450069
5.9550,-42.22530455,113.3736856,1142.228393
5.9600,-41.49359447,113.2549284,1141.014409
5.9650,-40.75730187,113.129298,1139.808194
5.9700,-40.01806032,112.9975191,1138.609326
5.9750,-39.27573225,112.8595075,1137.417949
5.9800,-38.53224414,112.7150138,1136.234535
5.9850,-37.78692562,112.563337,1135.058127
5.9900,-37.04173077,112.4044081,1133.889089
5.9950,-36.29798406,112.2367927,1132.727539
6.0000,-35.55643683,112.0619029,1131.573516
6.0050,-34.81932919,111.87876,1130.427734
6.0100,-34.08794405,111.6891356,1129.290993
6.0150,-33.3628662,111.4919429,1128.162614
6.0200,-32.64573685,111.2890645,1127.043053
6.0250,-31.93626607,111.0808068,1125.931827
6.0300,-31.23543928,110.8676445,1124.829872
6.0350,-30.54399211,110.6507321,1123.736922
6.0400,-29.86228692,110.4307626,1122.653493
6.0450,-29.19252336,110.2079371,1121.579319
6.0500,-28.53279999,109.9842304,1120.51376
6.0550,-27.88386584,109.7602814,1119.457513
6.0600,-27.2449701,109.5358358,1118.410252
6.0650,-26.61710849,109.3111649,1117.371354
6.0700,-26.00049368,109.0878238,1116.340978
6.0750,-25.39465736,108.86644,1115.318679
6.0800,-24.79848036,108.6479513,1114.304789
6.0850,-24.21054703,108.432711,1113.298297
6.0900,-23.63074359,108.2227235,1112.29972
6.0950,-23.05750963,108.0187802,1111.308405
6.1000,-22.49027414,107.821299,1110.323973
6.1050,-21.92773929,107.6331094,1109.346443
6.1100,-21.36922992,107.4541109,1108.375438
6.1150,-20.81304698,107.2850465,1107.410379
6.1200,-20.25800889,107.1258567,1106.450456
6.1250,-19.70257266,106.9776195,1105.494889
6.1300,-19.14534882,106.8412257,1104.543664
6.1350,-18.58469883,106.7151319,1103.596558
6.1400,-18.02116278,106.5994553,1102.653028
6.1450,-17.45293701,106.4950639,1101.712452
6.1500,-16.88124698,106.401354,1100.77511
6.1550,-16.30448787,106.3173824,1099.839747
6.1600,-15.72252227,106.2423235,1098.906762
6.1650,-15.13529314,106.1766139,1097.976463
6.1700,-14.54100288,106.1210096,1097.048525
6.1750,-13.93962474,106.0737999,1096.122562
6.1800,-13.33015191,106.0331493,1095.198134
6.1850,-12.71108724,105.9999294,1094.275924
6.1900,-12.08313631,105.9730428,1093.356148
6.1950,-11.44486735,105.951244,1092.438291
6.2000,-10.79673802,105.9353888,1091.522786
6.2050,-10.13761963,105.9239749,1090.609051
6.2100,-9.466218523,105.9162453,1089.697418
6.2150,-8.782636417,105.9121895,1088.787191
6.2200,-8.086041859,105.9115769,1087.879007
6.2250,-7.376839358,105.9145898,1086.972744
6.2300,-6.654724324,105.9195276,1086.067657
6.2350,-5.919726144,105.9260806,1085.164378
6.2400,-5.171685822,105.9350747,1084.263232
6.2450,-4.410127382,105.9445069,1083.363296
6.2500,-3.635934174,105.9537693,1082.465055
6.2550,-2.849517384,105.9608516,1081.567969
6.2600,-2.051124731,105.9633865,1080.671924
6.2650,-1.243015654,105.9609538,1079.777781
6.2700,-0.4252000762,105.9512644,1078.885694
6.2750,0.4003076758,105.9353654,1077.996884
6.2800,1.233263526,105.9109106,1077.110852
6.2850,2.071287273,105.8790489,1076.228294
6.2900,2.913630976,105.8375737,1075.349078
6.2950,3.761216816,105.7876474,1074.473396
6.3000,4.614032574,105.7309165,1073.602084
6.3050,5.472273129,105.6653061,1072.734053
6.3100,6.336766879,105.5911969,1071.869455
6.3150,7.205908089,105.5078131,1071.008501
6.3200,8.078625952,105.4146847,1070.151085
6.3250,8.953610172,105.3111968,1069.297584
6.3300,9.830031404,105.1973567,1068.448066
6.3350,10.7073782,105.0724694,1067.602774
6.3400,11.58420939,104.936253,1066.762115
6.3450,12.46096458,104.7884027,1065.925681
6.3500,13.3344815,104.6279563,1065.094485
6.3550,14.20474353,104.4547484,1064.268395
6.3600,15.07049784,104.268206,1063.447434
6.3650,15.93124962,104.0690525,1062.631923
6.3700,16.78573186,103.8563817,1061.82211
6.3750,17.63463714,103.6295715,1061.017779
6.3800,18.47844895,103.3897221,1060.218474
6.3850,19.31523006,103.1350759,1059.424788
6.3900,20.1473769,102.8672677,1058.635614
6.3950,20.97348208,102.5855506,1057.851581
6.4000,21.79604798,102.2913883,1057.072047
6.4050,22.61506113,101.9824252,1056.296087
6.4100,23.42996783,101.6600963,1055.524619
6.4150,24.24239273,101.3252283,1054.757111
6.4200,25.05168604,100.9790455,1053.993974
6.4250,25.85860214,100.621544,1053.235199
6.4300,26.6637829,100.2547008,1052.480691
6.4350,27.46682754,99.878864,1051.730538
6.4400,28.26930309,99.49548604,1050.984405
6.4450,29.06891519,99.1037868,1050.242644
6.4500,29.86749202,98.70558575,1049.505188
6.4550,30.66434042,98.30162461,1048.772464
6.4600,31.46044989,97.89267257,1048.043515
6.4650,32.25589986,97.47782587,1047.317648
6.4700,33.05012793,97.0577764,1046.595072
6.4750,33.84370194,96.63398382,1045.875639
6.4800,34.63668881,96.20740392,1045.159739
6.4850,35.42737753,95.77741929,1044.447164
6.4900,36.21616026,95.34527063,1043.737573
6.4950,37.00357469,94.91115222,1043.031015
6.5000,37.78802996,94.47462237,1042.327611
6.5050,38.56953444,94.03681484,1041.627635
6.5100,39.34734847,93.59837482,1040.931448
6.5150,40.12188894,93.15790716,1040.239403
6.5200,40.89207185,92.71619368,1039.551846
6.5250,41.65873363,92.27503107,1038.869587
6.5300,42.42273551,91.83499004,1038.192658
6.5350,43.1832649,91.39560915,1037.521195
6.5400,43.94152956,90.95628269,1036.854815
6.5450,44.69708225,90.51853783,1036.194363
6.5500,45.45113796,90.08341858,1035.539712
6.5550,46.20253258,89.65220392,1034.891977
6.5600,46.95112799,89.22562898,1034.251139
6.5650,47.69853502,88.8050054,1033.617121
6.5700,48.44495075,88.39044773,1032.989851
6.5750,49.19189187,87.98035844,1032.368381
6.5800,49.93967078,87.57615659,1031.752911
6.5850,50.68821916,87.17663405,1031.143753
6.5900,51.43860286,86.78406362,1030.540742
6.5950,52.19087247,86.39669515,1029.943333
6.6000,52.94311584,86.01292684,1029.351692
6.6050,53.69521743,85.63471621,1028.766418
6.6100,54.44745723,85.26203567,1028.187197
6.6150,55.19952882,84.89469096,1027.614192
6.6200,55.95328391,84.53297377,1027.047031
6.6250,56.70785478,84.17627116,1026.485614
6.6300,57.46377364,83.8250016,1025.929783
6.6350,58.22115989,83.47836312,1025.379304
6.6400,58.9804226,83.13716268,1024.834012
6.6450,59.74143181,82.8014723,1024.294235
6.6500,60.50623676,82.47109438,1023.759216
6.6550,61.27464308,82.14519106,1023.228998
6.6600,62.04660699,81.82564494,1022.703917
6.6650,62.82187079,81.51091044,1022.183984
6.6700,63.60122368,81.20118681,1021.668585
6.6750,64.3843205,80.89642059,1021.157963
6.6800,65.17097652,80.5959094,1020.652215
6.6850,65.96167591,80.30106968,1020.151256
6.6900,66.75465957,80.01022115,1019.655539
6.6950,67.55154105,79.72504108,1019.164672
6.7000,68.35170369,79.44282507,1018.678308
6.7050,69.15502728,79.1666744,1018.197042
6.7100,69.96248311,78.89531843,1017.720225
6.7150,70.77229435,78.6276231,1017.24817
6.7200,71.58643296,78.36511554,1016.780706
6.7250,72.40312445,78.10624275,1016.317551
6.7300,73.2233772,77.84979712,1015.858355
6.7350,74.04670428,77.59613224,1015.403079
6.7400,74.87274289,77.34467951,1014.952049
6.7450,75.70308285,77.09578344,1014.504568
6.7500,76.53626261,76.84926455,1014.061152
6.7550,77.37278376,76.60413007,1013.621173
6.7600,78.21255103,76.36080738,1013.185307
6.7650,79.05514583,76.11895291,1012.753519
6.7700,79.89856611,75.87831741,1012.326295
6.7750,80.7433145,75.63760381,1011.903297
6.7800,81.58855569,75.39622808,1011.484489
6.7850,82.43397257,75.15436275,1011.070114
6.7900,83.27935317,74.91036632,1010.659758
6.7950,84.12235041,74.66568445,1010.254397
6.8000,84.96480649,74.42049782,1009.85384
6.8050,85.80488811,74.17238059,1009.458033
6.8100,86.64313174,73.92215515,1009.066998
6.8150,87.47826276,73.66978636,1008.680796
6.8200,88.31081138,73.4145455,1008.299074
6.8250,89.14043818,73.15689437,1007.922073
6.8300,89.96586348,72.89610909,1007.549739
6.8350,90.78884316,72.63402159,1007.181988
6.8400,91.60774778,72.36980371,1006.818934
6.8450,92.42287933,72.10314236,1006.460451
6.8500,93.23431083,71.83471111,1006.106442
6.8550,94.04149892,71.56331383,1005.75687
6.8600,94.84557244,71.28930599,1005.411481
6.8650,95.64561891,71.0125059,1005.070242
6.8700,96.44016746,70.73208457,1004.733407
6.8750,97.22775858,70.44905831,1004.401202
6.8800,98.00911444,70.16312273,1004.073467
6.8850,98.78217859,69.87318393,1003.750193
6.8900,99.54734466,69.58053077,1003.431673
6.8950,100.3011707,69.28531311,1003.118462
6.9000,101.0458176,68.98727653,1002.809764
6.9050,101.7809302,68.68657776,1002.505612
6.9100,102.5056722,68.38288978,1002.206156
6.9150,103.2221695,68.07620376,1001.910475
6.9200,103.9288858,67.76695057,1001.619176
6.9250,104.626364,67.45639707,1001.331979
6.9300,105.3147072,67.14428006,1001.048876
6.9350,105.9931385,66.83131628,1000.769888
6.9400,106.6617047,66.5160941,1000.494943
6.9450,107.3196757,66.1991614,1000.224044
6.9500,107.9657213,65.88025784,999.9574575
6.9550,108.5990207,65.55950366,999.6949927
6.9600,109.2187482,65.23554892,999.4366825
6.9650,109.8251778,64.90852425,999.1824171
6.9700,110.4183201,64.57955126,998.9326711
6.9750,110.997884,64.24790828,998.6870358
6.9800,111.5609462,63.9130149,998.4459258
6.9850,112.1086196,63.57449299,998.2090382
6.9900,112.6412799,63.23425737,997.9766245
6.9950,113.1574967,62.8906699,997.7486079
7.0000,113.6555152,62.54514839,997.5256623
7.0050,114.1354262,62.19630919,997.3077352
7.0100,114.5966181,61.84593381,997.0951356
7.0150,115.0390656,61.49398268,996.8877922
7.0200,115.4608369,61.14068169,996.6860589
7.0250,115.8624076,60.78795781,996.4903637
7.0300,116.2431761,60.43711928,996.3009903
7.0350,116.6028418,60.08995241,996.1182983
7.0400,116.9412955,59.74674193,995.9423277
7.0450,117.2586255,59.40858087,995.7733377
7.0500,117.5553419,59.07685114,995.6115008
7.0550,117.8318476,58.75323564,995.4570306
7.0600,118.0865572,58.43908151,995.3102612
7.0650,118.3198805,58.13473015,995.1712195
7.0700,118.5342012,57.84144863,995.0397111
7.0750,118.7283313,57.56100847,994.9160793
7.0800,118.902461,57.29416183,994.8004816
7.0850,119.0583029,57.04179576,994.6926513
7.0900,119.1974996,56.80497348,994.5926902
7.0950,119.3221458,56.58365286,994.5000774
7.1000,119.4339083,56.37787086,994.4144849
7.1050,119.5342227,56.18924399,994.335914
7.1100,119.6250765,56.01744866,994.2640472
7.1150,119.7088986,55.86395731,994.198693
7.1200,119.7870215,55.72793844,994.1394207
7.1250,119.861924,55.60914598,994.0857928
7.1300,119.9349484,55.5075009,994.0375569
7.1350,120.0069648,55.42324555,993.9947462
7.1400,120.0803573,55.35641593,993.9569768
7.1450,120.1539819,55.30539373,993.9240251
7.1500,120.2289193,55.2703252,993.8957927
7.1550,120.3063607,55.25100977,993.8717659
7.1600,120.3842207,55.24799209,993.8524293
7.1650,120.4639053,55.25983618,993.8373099
7.1700,120.5461169,55.28674032,993.825984
7.1750,120.6303489,55.32779877,993.8184034
7.1800,120.7149031,55.38243352,993.8145482
7.1850,120.8007016,55.45086331,993.8140664
7.1900,120.8859127,55.53016373,993.8166211
7.1950,120.9706525,55.62074194,993.8220957
7.2000,121.0528414,55.72149099,993.8306076
7.2050,121.1293983,55.83167375,993.8423184
7.2100,121.2003272,55.94921712,993.8567356
7.2150,121.2628947,56.07402674,993.8743803
7.2200,121.3160859,56.20435196,993.8949522
7.2250,121.3562446,56.33877202,993.918828
7.2300,121.3838442,56.47572136,993.9456419
7.2350,121.3982853,56.61499136,993.9755205
7.2400,121.3978072,56.7544059,994.0082061
7.2450,121.383489,56.89443769,994.043803
7.2500,121.3532068,57.03365197,994.0823202
7.2550,121.3073168,57.1714463,994.1237197
7.2600,121.2464791,57.30864687,994.1680518
7.2650,121.1705663,57.44448448,994.2152912
7.2700,121.0782754,57.57721069,994.2652873
7.2750,120.9699178,57.70822981,994.3184305
7.2800,120.8460548,57.83777137,994.3747652
7.2850,120.704854,57.96575435,994.434865
7.2900,120.545324,58.0904573,994.4985198
7.2950,120.3675462,58.21247613,994.5660299
7.3000,120.1719972,58.33281899,994.6374521
7.3050,119.9573872,58.45131754,994.7129227
7.3100,119.723044,58.56715015,994.7925743
7.3150,119.4681164,58.68257128,994.8770949
7.3200,119.1931524,58.79523891,994.966201
7.3250,118.8977206,58.90534935,995.0598325
7.3300,118.5811825,59.01431895,995.1586405
7.3350,118.2438431,59.12096243,995.2623663
7.3400,117.8862948,59.22561589,995.3711126
7.3450,117.5080953,59.32951382,995.485288
7.3500,117.1108706,59.43097195,995.6042567
7.3550,116.6943209,59.53150779,995.7287623
7.3600,116.2592742,59.63063946,995.8588045
7.3650,115.8084248,59.72959527,995.9941929
7.3700,115.3413216,59.82785735,996.1351072
7.3750,114.8595539,59.92481517,996.281516
7.3800,114.3638411,60.02179585,996.4335594
7.3850,113.8541148,60.11869769,996.591494
7.3900,113.3310289,60.21667462,996.7553514
7.3950,112.79392,60.31567449,996.9256062
7.4000,112.2432348,60.4166915,997.1023824
7.4050,111.6802739,60.51829268,997.2854939
7.4100,111.1037367,60.6220995,997.475568
7.4150,110.5146933,60.72795515,997.6724416
7.4200,109.9135227,60.83612832,997.8765154
7.4250,109.2998632,60.94629912,998.087683
7.4300,108.6735059,61.05967489,998.3063415
7.4350,108.0334617,61.17506608,998.5325455
7.4400,107.380207,61.29289008,998.7662523
7.4450,106.7140493,61.41514081,999.0078774
7.4500,106.0334337,61.54182469,999.2578582
7.4550,105.3394238,61.67372282,999.5161831
7.4600,104.6320801,61.80984227,999.7829214
7.4650,103.9106013,61.95009564,1000.057976
7.4700,103.1748709,62.09654393,1000.342055
7.4750,102.4246372,62.24846818,1000.635159
7.4800,101.6594569,62.4063874,1000.937322
7.4850,100.8805516,62.56999142,1001.24866
7.4900,100.0870153,62.73997666,1001.569271
7.4950,99.27880176,62.91667423,1001.899584
7.5000,98.45593401,63.10102521,1002.239592
7.5050,97.62063451,63.2913369,1002.588573
7.5100,96.77208799,63.49009616,1002.947129
7.5150,95.91026775,63.69615526,1003.315052
7.5200,95.03405797,63.91155391,1003.692737
7.5250,94.14561623,64.13464123,1004.079387
7.5300,93.24331207,64.36659033,1004.475599
7.5350,92.32683156,64.60617562,1004.881191
7.5400,91.39685954,64.85432189,1005.296217
7.5450,90.45187857,65.10994865,1005.720706
7.5500,89.49341341,65.37392576,1006.154533
7.5550,88.52031815,65.64563139,1006.597735
7.5600,87.53231858,65.92443301,1007.050505
7.5650,86.52899668,66.21093947,1007.513047
7.5700,85.51072156,66.50591154,1007.985548
7.5750,84.47606375,66.80738473,1008.468211
7.5800,83.4266599,67.11575986,1008.960773
7.5850,82.36154992,67.43151159,1009.463768
7.5900,81.28146022,67.7552614,1009.977414
7.5950,80.18744411,68.08627784,1010.501632
7.6000,79.07872134,68.42262901,1011.036455
7.6050,77.95713818,68.76520188,1011.582017
7.6100,76.82409082,69.11348287,1012.138094
7.6150,75.6805623,69.46595344,1012.704475
7.6200,74.5274414,69.82360714,1013.281435
7.6250,73.3662218,70.18612071,1013.86915
7.6300,72.1979246,70.55164911,1014.467016
7.6350,71.02389149,70.919184,1015.075105
7.6400,69.84432187,71.28864304,1015.693541
7.6450,68.66066841,71.6583988,1016.321818
7.6500,67.47364596,72.02874963,1016.96036
7.6550,66.28338198,72.39857166,1017.609131
7.6600,65.0917718,72.76597604,1018.267299
7.6650,63.8984519,73.13121869,1018.935364
7.6700,62.70433004,73.4939062,1019.613436
7.6750,61.51023255,73.85376023,1020.301113
7.6800,60.31626123,74.20998782,1020.998668
7.6850,59.12398901,74.56337434,1021.705858
7.6900,57.93287615,74.91221648,1022.423024
7.6950,56.74376126,75.25694376,1023.149644
7.7000,55.55698735,75.59698066,1023.88599
7.7050,54.3722675,75.93427937,1024.632377
7.7100,53.19033932,76.26827262,1025.388272
7.7150,52.0101716,76.59918442,1026.154282
7.7200,50.83188791,76.92835487,1026.930345
7.7250,49.65546318,77.25623824,1027.71629
7.7300,48.48278167,77.58200969,1028.511563
7.7350,47.31404908,77.90713105,1029.316429
7.7400,46.14935983,78.23178476,1030.13086
7.7450,44.9894001,78.5561111,1030.954402
7.7500,43.83417833,78.87944456,1031.786681
7.7550,42.68380638,79.20060364,1032.62715
7.7600,41.53878522,79.52181671,1033.475961
7.7650,40.39891049,79.843049,1034.333429
7.7700,39.26419437,80.16364032,1035.199352
7.7750,38.13508708,80.48449602,1036.073351
7.7800,37.01062675,80.80611026,1036.955794
7.7850,35.89128368,81.12868553,1037.846093
7.7900,34.7773634,81.45290586,1038.744593
7.7950,33.66875162,81.77825473,1039.650887
7.8000,32.56589318,82.10635704,1040.565347
7.8050,31.46686742,82.4375648,1041.488479
7.8100,30.37206507,82.77139691,1042.419662
7.8150,29.28205426,83.10996353,1043.35914
7.8200,28.19768787,83.45131112,1044.306452
7.8250,27.11921667,83.79612605,1045.261771
7.8300,26.04571619,84.14484934,1046.225093
7.8350,24.97811646,84.49792548,1047.196136
7.8400,23.91686508,84.8556627,1048.174619
7.8450,22.86141026,85.21796084,1049.160657
7.8500,21.81310829,85.58501151,1050.153862
7.8550,20.772396,85.95732639,1051.154749
7.8600,19.73834246,86.33399733,1052.162824
7.8650,18.71324048,86.71496819,1053.177799
7.8700,17.69563697,87.09921365,1054.199749
7.8750,16.68682176,87.48655953,1055.228289
7.8800,15.68594539,87.87712437,1056.263486
7.8850,14.69415849,88.27016321,1057.304912
7.8900,13.71207823,88.66528363,1058.352126
7.8950,12.73956183,89.06285192,1059.405255
7.9000,11.77647357,89.46366841,1060.464745
7.9050,10.82238171,89.86570736,1061.530137
7.9100,9.8781471,90.26888626,1062.601663
7.9150,8.943567111,90.67441734,1063.679458
7.9200,8.018345449,91.07992892,1064.763386
7.9250,7.101617335,91.48484976,1065.853117
7.9300,6.194124182,91.89023943,1066.949489
7.9350,5.294890276,92.29493734,1068.052373
7.9400,4.403851009,92.6977996,1069.16159
7.9450,3.520841511,93.09965839,1070.27775
7.9500,2.643449691,93.498617,1071.400916
7.9550,1.772973959,93.89385252,1072.530748
7.9600,0.9073347117,94.28650461,1073.668581
7.9650,0.04676201768,94.67483113,1074.813775
7.9700,-0.8094085185,95.05923851,1075.966515
7.9750,-1.660898351,95.43909035,1077.127217
7.9800,-2.507339668,95.81353028,1078.295226
7.9850,-3.350859921,96.1824641,1079.471264
7.9900,-4.191022081,96.54579463,1080.654825
7.9950,-5.02833632,96.90447955,1081.847167
8.0000,-5.862761695,97.2590614,1083.047456
8.0050,-6.695237596,97.60899538,1084.256376
8.0100,-7.525416577,97.95365472,1085.473876
8.0150,-8.352895828,98.29367598,1086.699546
8.0200,-9.177337054,98.6302275,1087.933423
8.0250,-10.00091811,98.96173331,1089.176367
8.0300,-10.82353078,99.28921595,1090.428256
8.0350,-11.64559779,99.61272839,1091.68909
8.0400,-12.46795673,99.93137011,1092.958937
8.0450,-13.29036332,100.2454877,1094.238423
8.0500,-14.11286996,100.5553585,1095.52749
8.0550,-14.93561288,100.8625698,1096.826775
8.0600,-15.75909495,101.1656824,1098.135758
8.0650,-16.58397889,101.4657749,1099.454838
8.0700,-17.41028715,101.7620307,1100.783688
8.0750,-18.23760231,102.0555005,1102.122356
8.0800,-19.06553541,102.3450253,1103.470826
8.0850,-19.89521901,102.6313493,1104.82968
8.0900,-20.7261059,102.9149174,1106.199032
8.0950,-21.55828961,103.1961008,1107.57797
8.1000,-22.39321582,103.4731775,1108.966547
8.1050,-23.22843896,103.7479052,1110.364613
8.1100,-24.0645681,104.0203614,1111.772546
8.1150,-24.90196448,104.2898214,1113.190566
8.1200,-25.73930406,104.5579211,1114.618161
8.1250,-26.57748223,104.8257177,1116.055905
8.1300,-27.41566826,105.0928952,1117.503166
8.1350,-28.2544796,105.3592758,1118.960553
8.1400,-29.09349412,105.625659,1120.428387
8.1450,-29.93245231,105.8914148,1121.905808
8.1500,-30.7721723,106.1558208,1123.393577
8.1550,-31.61215913,106.4205018,1124.890892
8.1600,-32.45139925,106.6854314,1126.398048
8.1650,-33.29128456,106.9496642,1127.914442
8.1700,-34.13162534,107.2137687,1129.440714
8.1750,-34.9718523,107.4781852,1130.976494
8.1800,-35.81190128,107.740669,1132.522005
8.1850,-36.65132624,108.0020615,1134.077521
8.1900,-37.49077779,108.2613287,1135.643403
8.1950,-38.32885722,108.5183012,1137.21948
8.2000,-39.16484989,108.7730392,1138.805707
8.2050,-39.99866045,109.025848,1140.402503
8.2100,-40.83024872,109.2764943,1142.01022
8.2150,-41.65944707,109.5236434,1143.628949
8.2200,-42.48554555,109.7676551,1145.258571
8.2250,-43.30803781,110.0076152,1146.899921
8.2300,-44.12787641,110.2418209,1148.551966
8.2350,-44.9445842,110.4706046,1150.215483
8.2400,-45.75689,110.6952702,1151.89114
8.2450,-46.56563725,110.9131467,1153.578696
8.2500,-47.36783745,111.1256023,1155.277553
8.2550,-48.16470427,111.3319008,1156.988325
8.2600,-48.95414827,111.5313863,1158.709658
8.2650,-49.73660232,111.7240871,1160.44277
8.2700,-50.51259267,111.9090915,1162.187342
8.2750,-51.28164296,112.086372,1163.943203
8.2800,-52.0443307,112.2575197,1165.710758
8.2850,-52.79928126,112.4203357,1167.48891
8.2900,-53.54709134,112.576155,1169.278022
8.2950,-54.28794152,112.7235459,1171.077217
8.3000,-55.02166158,112.861378,1172.885941
8.3050,-55.74938923,112.9895675,1174.704388
8.3100,-56.46979713,113.1090772,1176.53156
8.3150,-57.18247438,113.221326,1178.368134
8.3200,-57.88928818,113.3256285,1180.214584
8.3250,-58.58707205,113.424606,1182.069338
8.3300,-59.27655271,113.5188264,1183.932386
8.3350,-59.95683621,113.6068093,1185.803036
8.3400,-60.62772678,113.6903208,1187.68112
8.3450,-61.28853907,113.7692651,1189.565431
8.3500,-61.93877921,113.8452539,1191.456342
8.3550,-62.57833863,113.9188396,1193.353479
8.3600,-63.20654301,113.9911832,1195.256954
8.3650,-63.82284998,114.0627118,1197.166001
8.3700,-64.42866113,114.134262,1199.080866
8.3750,-65.02328279,114.2055635,1201.001753
8.3800,-65.60717356,114.2774685,1202.927775
8.3850,-66.18068949,114.3511862,1204.860177
8.3900,-66.74303725,114.4265636,1206.797602
8.3950,-67.29340825,114.5057092,1208.740597
8.4000,-67.83050343,114.5902856,1210.688886
8.4050,-68.35553348,114.6794206,1212.642625
8.4100,-68.86841505,114.7735267,1214.602224
8.4150,-69.37010266,114.8725484,1216.566681
8.4200,-69.86138599,114.9764362,1218.535884
8.4250,-70.34277026,115.0844865,1220.509768
8.4300,-70.81504215,115.1963226,1222.488393
8.4350,-71.27775202,115.3127672,1224.471752
8.4400,-71.73280033,115.4326866,1226.459664
8.4450,-72.18028768,115.5549977,1228.452394
8.4500,-72.62092975,115.6798307,1230.449424
8.4550,-73.05542145,115.8037458,1232.450884
8.4600,-73.48419592,115.9279376,1234.45681
8.4650,-73.90754904,116.0527315,1236.467818
8.4700,-74.32465634,116.1768661,1238.483647
8.4750,-74.73526578,116.2994774,1240.504096
8.4800,-75.14003172,116.4212251,1242.528809
8.4850,-75.53945666,116.542498,1244.558601
8.4900,-75.93293927,116.6623308,1246.592893
8.4950,-76.32196268,116.7798097,1248.631903
8.5000,-76.70739273,116.8934923,1250.67507
8.5050,-77.08917724,117.0017461,1252.722199
8.5100,-77.46901603,117.1042377,1254.77304
8.5150,-77.84751911,117.198274,1256.826832
8.5200,-78.22558289,117.2839995,1258.883912
8.5250,-78.60436029,117.3603238,1260.944179
8.5300,-78.98240817,117.4255041,1263.006868
8.5350,-79.36077895,117.4796247,1265.071402
8.5400,-79.7405977,117.5213991,1267.136545
8.5450,-80.12074099,117.5517102,1269.202121
8.5500,-80.50363136,117.5698486,1271.267993
8.5550,-80.88860397,117.5755566,1273.333467
8.5600,-81.27537072,117.5696746,1275.39871
8.5650,-81.6652923,117.5524195,1277.46372
8.5700,-82.0573193,117.5256861,1279.527569
8.5750,-82.4513304,117.4892956,1281.589111
8.5800,-82.84695062,117.4428338,1283.647706
8.5850,-83.24280091,117.3885375,1285.703227
8.5900,-83.63948525,117.3262925,1287.754842
8.5950,-84.03597658,117.2569748,1289.801439
8.6000,-84.43283962,117.181424,1291.843558
8.6050,-84.82816899,117.1027835,1293.880663
8.6100,-85.22159845,117.0231945,1295.913638
8.6150,-85.61303079,116.9435486,1297.942111
8.6200,-86.00102039,116.8651093,1299.964105
8.6250,-86.38424941,116.7894387,1301.980164
8.6300,-86.76180773,116.7178209,1303.990005
8.6350,-87.13311111,116.6535168,1305.993164
8.6400,-87.49630018,116.5953261,1307.989192
8.6450,-87.85049991,116.5443285,1309.977788
8.6500,-88.19598854,116.4999625,1311.957333
8.6550,-88.53250194,116.4616788,1313.927353
8.6600,-88.86029738,116.4294039,1315.887969
8.6650,-89.17907052,116.4031419,1317.839069
8.6700,-89.48818223,116.3821545,1319.779713
8.6750,-89.7878844,116.3677232,1321.709603
8.6800,-90.07741874,116.3600425,1323.628833
8.6850,-90.35700861,116.3588038,1325.536032
8.6900,-90.62629669,116.3655976,1327.432385
8.6950,-90.88370183,116.3782178,1329.316096
8.7000,-91.12863228,116.3963154,1331.186872
8.7050,-91.36091718,116.4193314,1333.043106
8.7100,-91.5801497,116.4458153,1334.884529
8.7150,-91.78548357,116.4753441,1336.71122
8.7200,-91.97786013,116.5055233,1338.523277
8.7250,-92.15755644,116.5372174,1340.319912
8.7300,-92.32565943,116.5687514,1342.100288
8.7350,-92.48143648,116.598971,1343.864448
8.7400,-92.62413477,116.6280533,1345.612525
8.7450,-92.75338813,116.656341,1347.343713
8.7500,-92.87046303,116.6820229,1349.058067
8.7550,-92.97521133,116.7051542,1350.755774
8.7600,-93.06889741,116.7239966,1352.436083
8.7650,-93.15089263,116.7388674,1354.100078
8.7700,-93.22237781,116.7498166,1355.746745
8.7750,-93.28430846,116.756854,1357.375958
8.7800,-93.33700282,116.7577449,1358.987264
8.7850,-93.38046505,116.7507151,1360.579597
8.7900,-93.41670738,116.7346241,1362.154054
8.7950,-93.44644908,116.7106436,1363.710542
8.8000,-93.4699299,116.6794451,1365.250121
8.8050,-93.48876768,116.6409353,1366.772525
8.8100,-93.50205729,116.595866,1368.278893
8.8150,-93.50867117,116.5459715,1369.768349
8.8200,-93.51107031,116.4913119,1371.241171
8.8250,-93.50755635,116.4340006,1372.697559
8.8300,-93.49956527,116.374734,1374.138925
8.8350,-93.48611965,116.3136654,1375.564234
8.8400,-93.46778396,116.2522258,1376.974177
8.8450,-93.44474161,116.1902787,1378.369644
8.8500,-93.41684452,116.1291455,1379.751373
8.8550,-93.38328903,116.0703521,1381.119149
8.8600,-93.34617245,116.0129072,1382.473793
8.8650,-93.30427102,115.9588415,1383.814896
8.8700,-93.2588591,115.9073722,1385.143565
8.8750,-93.20928369,115.8588535,1386.460605
8.8800,-93.15598508,115.8133703,1387.766119
8.8850,-93.10157103,115.7701006,1389.060738
8.8900,-93.04336943,115.7301049,1390.345098
8.8950,-92.98231148,115.6940138,1391.620572
8.9000,-92.91671914,115.6646193,1392.887944
8.9050,-92.84668374,115.6413027,1394.146448
8.9100,-92.77244427,115.6233683,1395.396379
8.9150,-92.6941873,115.6114973,1396.63708
8.9200,-92.61017463,115.6055472,1397.869343
8.9250,-92.52100208,115.6043073,1399.092995
8.9300,-92.42603879,115.6071139,1400.307788
8.9350,-92.32576786,115.6123303,1401.51445
8.9400,-92.2219077,115.6204262,1402.712601
8.9450,-92.11622561,115.631667,1403.902978
8.9500,-92.00790539,115.6454515,1405.086512
8.9550,-91.89672817,115.6632765,1406.263562
8.9600,-91.78156421,115.6846458,1407.433321
8.9650,-91.66082052,115.7108997,1408.595605
8.9700,-91.53362337,115.7414734,1409.75035
8.9750,-91.39936395,115.7753245,1410.897811
8.9800,-91.25665764,115.8130462,1412.038347
8.9850,-91.10514231,115.85351,1413.170899
8.9900,-90.94614266,115.8941933,1414.295688
8.9950,-90.78051205,115.9354767,1415.413887
9.0000,-90.60796116,115.9770567,1416.526203
9.0050,-90.42806065,116.0183197,1417.633455
9.0100,-90.24190408,116.0578956,1418.734619
9.0150,-90.05152242,116.0925509,1419.829555
9.0200,-89.85657647,116.1214958,1420.918516
9.0250,-89.65729519,116.1435196,1422.002362
9.0300,-89.45255474,116.1577905,1423.080716
9.0350,-89.24452098,116.1646546,1424.153771
9.0400,-89.03365359,116.1635057,1425.221764
9.0450,-88.82049492,116.1535644,1426.284975
9.0500,-88.6040564,116.1340582,1427.343723
9.0550,-88.38508833,116.1065086,1428.398109
9.0600,-88.16317361,116.0702027,1429.448189
9.0650,-87.93886885,116.0262568,1430.493686
9.0700,-87.71310423,115.9728721,1431.535884
9.0750,-87.48563241,115.9101219,1432.574845
9.0800,-87.25679967,115.8395499,1433.611594
9.0850,-87.02678676,115.761884,1434.646528
9.0900,-86.79427644,115.6791538,1435.67924
9.0950,-86.55818008,115.5908775,1436.710676
9.1000,-86.31825683,115.4968964,1437.740422
9.1050,-86.07263542,115.3977014,1438.76964
9.1100,-85.82186207,115.2938728,1439.79818
9.1150,-85.56607819,115.184061,1440.827201
9.1200,-85.3030964,115.0687871,1441.857107
9.1250,-85.03402166,114.9480933,1442.888108
9.1300,-84.75800656,114.8235229,1443.920707
9.1350,-84.47479113,114.6946393,1444.956184
9.1400,-84.18338038,114.5615972,1445.994728
9.1450,-83.88506,114.423889,1447.035929
9.1500,-83.57827786,114.2822241,1448.079787
9.1550,-83.26534957,114.1357525,1449.127176
9.1600,-82.94504943,113.984474,1450.177167
9.1650,-82.61873021,113.8271793,1451.230754
9.1700,-82.28658536,113.6624656,1452.286688
9.1750,-81.95162818,113.492076,1453.346718
9.1800,-81.61313342,113.3161187,1454.411517
9.1850,-81.27061624,113.1373121,1455.480972
9.1900,-80.92547624,112.9569374,1456.555292
9.1950,-80.57718911,112.7747365,1457.634549
9.2000,-80.22613857,112.5909923,1458.718768
9.2050,-79.87258829,112.406199,1459.807928
9.2100,-79.51786194,112.2207988,1460.901238
9.2150,-79.16185528,112.03429,1461.998703
9.2200,-78.80538594,111.8465814,1463.099804
9.2250,-78.44932636,111.6591461,1464.204399
9.2300,-78.0947895,111.4709542,1465.312655
9.2350,-77.74102753,111.2837549,1466.424245
9.2400,-77.38822715,111.0984923,1467.539494
9.2450,-77.03500458,110.9151621,1468.657127
9.2500,-76.68038042,110.7335995,1469.775945
9.2550,-76.32446837,110.552211,1470.895638
9.2600,-75.96801427,110.3717452,1472.015839
9.2650,-75.61292145,110.1913059,1473.13659
9.2700,-75.259715,110.012285,1474.257351
9.2750,-74.90771184,109.8350674,1475.377662
9.2800,-74.55755707,109.6596505,1476.497065
9.2850,-74.2088245,109.4853344,1477.615203
9.2900,-73.86053703,109.3125129,1478.731631
9.2950,-73.51361112,109.1419828,1479.846443
9.3000,-73.16850018,108.971765,1480.958303
9.3050,-72.82755894,108.8024091,1482.066767
9.3100,-72.4891819,108.6337147,1483.172276
9.3150,-72.15268737,108.4688293,1484.274785
9.3200,-71.81736609,108.3088861,1485.372563
9.3250,-71.48324394,108.1521966,1486.464775
9.3300,-71.15031618,107.9990813,1487.551685
9.3350,-70.81812735,107.847952,1488.632226
9.3400,-70.48685781,107.6979755,1489.705305
9.3450,-70.15563964,107.5497594,1490.771313
9.3500,-69.8247334,107.4045254,1491.829265
9.3550,-69.49251382,107.2603389,1492.878751
9.3600,-69.15892033,107.1198441,1493.919547
9.3650,-68.8233663,106.9802997,1494.950737
9.3700,-68.48534829,106.8431319,1495.971594
9.3750,-68.14543333,106.7082554,1496.982788
9.3800,-67.80227179,106.5746614,1497.983167
9.3850,-67.45490218,106.4427119,1498.972433
9.3900,-67.10404182,106.3124141,1499.950091
9.3950,-66.74948178,106.1833611,1500.915719
9.4000,-66.39203591,106.0557454,1501.869574
9.4050,-66.03080939,105.9299072,1502.811389
9.4100,-65.66497134,105.8058393,1503.74106
9.4150,-65.29539962,105.6830741,1504.658677
9.4200,-64.92196215,105.5619025,1505.564372
9.4250,-64.54411094,105.4422106,1506.457815
9.4300,-64.16097004,105.3230124,1507.33882
9.4350,-63.77265407,105.2053923,1508.207441
9.4400,-63.3799715,105.0876856,1509.064238
9.4450,-62.98201517,104.9709095,1509.910271
9.4500,-62.58070859,104.8541374,1510.745608
9.4550,-62.17423257,104.7373327,1511.570115
9.4600,-61.7642548,104.6205325,1512.385427
9.4650,-61.35003217,104.5043594,1513.191036
9.4700,-60.93200723,104.3883545,1513.987778
9.4750,-60.51028249,104.2719039,1514.776016
9.4800,-60.085823,104.1555337,1515.556646
9.4850,-59.65981598,104.0374124,1516.330757
9.4900,-59.23293798,103.9167612,1517.099009
9.4950,-58.80535703,103.7944353,1517.860837
9.5000,-58.37733742,103.6697557,1518.616704
9.5050,-57.94899132,103.5424767,1519.366821
9.5100,-57.52022658,103.412043,1520.112387
9.5150,-57.09123934,103.2784634,1520.853482
9.5200,-56.66301236,103.1425872,1521.591182
9.5250,-56.2364019,103.0020697,1522.32548
9.5300,-55.81055156,102.8591173,1523.057284
9.5350,-55.38621044,102.7131587,1523.785888
9.5400,-54.96292191,102.5639541,1524.511372
9.5450,-54.54070627,102.4100095,1525.233951
9.5500,-54.12045605,102.2525997,1525.954732
9.5550,-53.70342417,102.0915075,1526.674009
9.5600,-53.28911952,101.9261592,1527.390825
9.5650,-52.87626802,101.7577133,1528.105783
9.5700,-52.46451839,101.585417,1528.818623
9.5750,-52.05340102,101.4102454,1529.529319
9.5800,-51.642427,101.2312939,1530.236799
9.5850,-51.23247622,101.0496969,1530.942196
9.5900,-50.82400143,100.8653192,1531.644796
9.5950,-50.41639844,100.6783091,1532.343998
9.6000,-50.01083331,100.4890401,1533.040433
9.6050,-49.6052767,100.2988384,1533.733819
9.6100,-49.20209227,100.1074393,1534.424633
9.6150,-48.79986908,99.91407386,1535.111808
9.6200,-48.40026007,99.71846146,1535.796562
9.6250,-48.00202037,99.52239847,1536.47875
9.6300,-47.60593774,99.32697828,1537.158243
9.6350,-47.2116525,99.13222966,1537.834237
9.6400,-46.81823291,98.93933294,1538.507247
9.6450,-46.42557783,98.74792958,1539.17637
9.6500,-46.03475305,98.55775051,1539.841803
9.6550,-45.6451556,98.36984329,1540.502892
9.6600,-45.2573031,98.18126628,1541.159143
9.6650,-44.87075324,97.99458966,1541.810593
9.6700,-44.48535412,97.80858241,1542.456918
9.6750,-44.10191277,97.62347482,1543.097659
9.6800,-43.720727,97.43873057,1543.732793
9.6850,-43.34174651,97.25492874,1544.362945
9.6900,-42.96398616,97.07145,1544.987902
9.6950,-42.58798131,96.8878674,1545.607536
9.7000,-42.21242634,96.70425202,1546.221097
9.7050,-41.83743564,96.52082475,1546.828265
9.7100,-41.46233576,96.33574845,1547.428459
9.7150,-41.08661142,96.15121252,1548.021867
9.7200,-40.71107879,95.96622403,1548.608726
9.7250,-40.33512664,95.78115456,1549.188835
9.7300,-39.96152467,95.59539071,1549.762812
9.7350,-39.59121776,95.40803938,1550.33142
9.7400,-39.22378206,95.21934051,1550.894224
9.7450,-38.85979749,95.02869259,1551.450978
9.7500,-38.49785949,94.83683989,1552.001631
9.7550,-38.1393156,94.64493316,1552.54735
9.7600,-37.78207003,94.45351221,1553.087245
9.7650,-37.42728461,94.26166082,1553.621891
9.7700,-37.074254,94.07192923,1554.153042
9.7750,-36.72321906,93.88388203,1554.680514
9.7800,-36.37437005,93.69838112,1555.204335
9.7850,-36.02631172,93.51562165,1555.724387
9.7900,-35.68017419,93.33673299,1556.241564
9.7950,-35.33640142,93.16165961,1556.757207
9.8000,-34.99610424,92.9907743,1557.271726
9.8050,-34.65940313,92.82539891,1557.786706
9.8100,-34.32725535,92.66626969,1558.302086
9.8150,-34.00043581,92.51324,1558.819067
9.8200,-33.67891313,92.36569019,1559.33711
9.8250,-33.36322841,92.22473636,1559.856552
9.8300,-33.05445382,92.08949384,1560.377998
9.8350,-32.75330829,91.96012662,1560.901914
9.8400,-32.46024631,91.83659559,1561.427667
9.8450,-32.17623285,91.71822864,1561.955668
9.8500,-31.90215823,91.60438686,1562.485177
9.8550,-31.63767182,91.49504732,1563.01626
9.8600,-31.38236676,91.39080598,1563.548732
9.8650,-31.13885443,91.29013617,1564.081948
9.8700,-30.90645672,91.19377788,1564.616259
9.8750,-30.6862376,91.10048129,1565.15081
9.8800,-30.47934837,91.00882314,1565.685482
9.8850,-30.28498594,90.91962984,1566.219591
9.8900,-30.1034423,90.83275933,1566.752905
9.8950,-29.93546556,90.74677101,1567.284559
9.9000,-29.7793854,90.66218067,1567.814031
9.9050,-29.63577508,90.57633783,1568.340612
9.9100,-29.50295605,90.48992528,1568.862346
9.9150,-29.3823867,90.40433544,1569.380029
9.9200,-29.27317267,90.31756352,1569.892375
9.9250,-29.1755953,90.2288828,1570.398357
9.9300,-29.08839423,90.13731588,1570.896725
9.9350,-29.01156454,90.04272988,1571.38775
9.9400,-28.94496496,89.94346987,1571.869546
9.9450,-28.88890162,89.84008387,1572.342406
9.9500,-28.84172081,89.73249357,1572.805086
9.9550,-28.80466481,89.61999145,1573.257744
9.9600,-28.77691962,89.50247739,1573.699449
9.9650,-28.75761534,89.37782284,1574.129515
9.9700,-28.74711286,89.24664474,1574.547418
9.9750,-28.74500965,89.10931361,1574.952702
9.9800,-28.74991525,88.96524158,1575.344664
9.9850,-28.76241546,88.81471568,1575.722449
9.9900,-28.78212354,88.65644088,1576.085659
9.9950,-28.80844782,88.49021276,1576.433606
10.0000,-28.84087895,88.31622967,1576.76605
10.0050,-28.87921757,88.13503004,1577.083056
10.0100,-28.92476298,87.94668444,1577.38442
10.0150,-28.97620914,87.75024744,1577.669793
10.0200,-29.03280117,87.54832122,1577.938775
10.0250,-29.09495172,87.3399882,1578.191741
10.0300,-29.16007389,87.12709113,1578.427963
10.0350,-29.22766311,86.90963069,1578.647104
10.0400,-29.29685493,86.68946841,1578.84938
10.0450,-29.36937508,86.46751343,1579.035666
10.0500,-29.44451266,86.24332515,1579.205704
10.0550,-29.52185136,86.01780423,1579.359828
10.0600,-29.6026765,85.79148306,1579.498731
10.0650,-29.68629398,85.56556847,1579.623167
10.0700,-29.77265282,85.34026729,1579.731857
10.0750,-29.86047146,85.11788412,1579.825456
10.0800,-29.95057832,84.89766473,1579.904808
10.0850,-30.04291373,84.68184461,1579.970048
10.0900,-30.13674509,84.47054763,1580.021894
10.0950,-30.23225558,84.26619436,1580.060488
10.1000,-30.33000239,84.0689294,1580.0866
10.1050,-30.42963429,83.87903062,1580.099777
10.1100,-30.53066021,83.69771975,1580.100911
10.1150,-30.63306451,83.52563925,1580.089548
10.1200,-30.73676433,83.36310885,1580.065852
10.1250,-30.84158426,83.21080499,1580.031178
10.1300,-30.94816063,83.06956691,1579.984378
10.1350,-31.05668841,82.93925221,1579.926238
10.1400,-31.16763359,82.81953945,1579.857364
10.1450,-31.28041696,82.71158797,1579.777998
10.1500,-31.39473864,82.61544841,1579.687619
10.1550,-31.51046355,82.53190631,1579.586116
10.1600,-31.62967131,82.46020796,1579.47486
10.1650,-31.75064526,82.40030367,1579.353251
10.1700,-31.87358822,82.35204562,1579.221658
10.1750,-31.99932433,82.31571873,1579.080579
10.1800,-32.12814871,82.29240668,1578.931193
10.1850,-32.25968761,82.28105825,1578.773688
10.1900,-32.39452042,82.28098249,1578.608344
10.1950,-32.53284397,82.29321039,1578.43624
10.2000,-32.67584373,82.31558121,1578.257214
10.2050,-32.823619,82.34999188,1578.072062
10.2100,-32.97682512,82.39490101,1577.881579
10.2150,-33.13567841,82.44831437,1577.686001
10.2200,-33.29977237,82.51170564,1577.485336
10.2250,-33.47036662,82.58376522,1577.280405
10.2300,-33.64849738,82.66392096,1577.072064
10.2350,-33.83453326,82.75185265,1576.860359
10.2400,-34.0284182,82.84827694,1576.646416
10.2450,-34.230914,82.95205133,1576.430218
10.2500,-34.44197463,83.06230206,1576.211826
10.2550,-34.66209025,83.17932001,1575.991584
10.2600,-34.89029381,83.30254065,1575.769375
10.2650,-35.12859762,83.43272689,1575.545267
10.2700,-35.37562412,83.56809247,1575.318614
10.2750,-35.6304457,83.70807864,1575.089183
10.2800,-35.89323536,83.85341286,1574.856988
10.2850,-36.16479785,84.00191091,1574.621569
10.2900,-36.44330366,84.15419704,1574.382564
10.2950,-36.72912641,84.31018563,1574.140379
10.3000,-37.02204901,84.46936384,1573.89468
10.3050,-37.32154951,84.63036927,1573.644983
10.3100,-37.62667157,84.79549626,1573.392686
10.3150,-37.93692759,84.9653861,1573.136852
10.3200,-38.25227594,85.13791659,1572.877892
10.3250,-38.57162241,85.31439519,1572.614942
10.3300,-38.8956079,85.49338362,1572.348944
10.3350,-39.22278421,85.67643446,1572.079241
10.3400,-39.55422331,85.86285449,1571.806418
10.3450,-39.88803024,86.05250157,1571.529322
10.3500,-40.22556154,86.24526213,1571.249112
10.3550,-40.56597434,86.44119914,1570.965738
10.3600,-40.9086662,86.64029016,1570.679359
10.3650,-41.2531937,86.8436566,1570.389427
10.3700,-41.59969495,87.05089904,1570.097153
10.3750,-41.94842246,87.26179773,1569.801788
10.3800,-42.29819966,87.47691442,1569.503312
10.3850,-42.65029122,87.69476751,1569.202369
10.3900,-43.00396089,87.91614494,1568.898222
10.3950,-43.35923428,88.13966186,1568.591417
10.4000,-43.71546571,88.36545783,1568.281805
10.4050,-44.07479079,88.59301854,1567.970019
10.4100,-44.43669213,88.82174747,1567.655662
10.4150,-44.80074173,89.05136187,1567.339183
10.4200,-45.16914452,89.28282876,1567.021827
10.4250,-45.54011687,89.51563759,1566.702096
10.4300,-45.91379235,89.7499107,1566.380353
10.4350,-46.29036669,89.98519246,1566.056991
10.4400,-46.66868462,90.22180164,1565.731906
10.4450,-47.04985875,90.46029796,1565.404336
10.4500,-47.43393637,90.70057504,1565.075497
10.4550,-47.82082447,90.94226891,1564.745013
10.4600,-48.21041065,91.1855333,1564.412512
10.4650,-48.60360051,91.43073704,1564.078999
10.4700,-49.00118945,91.67785263,1563.744261
10.4750,-49.40238353,91.9266803,1563.408622
10.4800,-49.80745994,92.17763725,1563.07134
10.4850,-50.21758976,92.43051428,1562.73287
10.4900,-50.63203207,92.68588523,1562.3927
10.4950,-51.04890356,92.94254078,1562.050205
10.5000,-51.46861157,93.20277902,1561.705709
10.5050,-51.89119932,93.46429761,1561.359407
10.5100,-52.31670488,93.72883854,1561.011112
10.5150,-52.74410884,93.99642041,1560.659932
10.5200,-53.17406568,94.26656633,1560.306165
10.5250,-53.60620693,94.53898194,1559.949415
10.5300,-54.03966506,94.81422203,1559.589463
10.5350,-54.47494921,95.09137209,1559.226078
10.5400,-54.91293914,95.36859373,1558.858481
10.5450,-55.35239569,95.64663504,1558.486884
10.5500,-55.7935585,95.9259718,1558.111155
10.5550,-56.23626056,96.20606512,1557.731031
10.5600,-56.68121359,96.48726835,1557.346805
10.5650,-57.12773344,96.77002074,1556.958028
10.5700,-57.57570925,97.05527048,1556.564937
10.5750,-58.02447237,97.34219049,1556.166875
10.5800,-58.47339184,97.63145286,1555.763357
10.5850,-58.92180963,97.92348559,1555.354157
10.5900,-59.37008529,98.2175903,1554.939273
10.5950,-59.81728653,98.51454155,1554.517993
10.6000,-60.26361787,98.8128841,1554.090559
10.6050,-60.70958868,99.11470017,1553.657068
10.6100,-61.15385845,99.4169562,1553.216189
10.6150,-61.59742006,99.72083322,1552.769259
10.6200,-62.03924147,100.0270615,1552.315634
10.6250,-62.4792484,100.3339666,1551.855828
10.6300,-62.91766464,100.6421823,1551.388374
10.6350,-63.3536969,100.950171,1550.913882
10.6400,-63.78632329,101.2584425,1550.431582
10.6450,-64.2153398,101.5677115,1549.942193
10.6500,-64.64032124,101.8773321,1549.445058
10.6550,-65.0624585,102.1861345,1548.940462
10.6600,-65.48196563,102.4940138,1548.427982
10.6650,-65.89972245,102.8005476,1547.90794
10.6700,-66.31499691,103.1039029,1547.379554
10.6750,-66.72936002,103.4035775,1546.843283
10.6800,-67.14250944,103.7007079,1546.299456
10.6850,-67.55431318,103.9954103,1545.748436
10.6900,-67.96542833,104.2861308,1545.189485
10.6950,-68.37558867,104.5740234,1544.623331
10.7000,-68.78539047,104.8598228,1544.050447
10.7050,-69.19356102,105.1435157,1543.47031
10.7100,-69.60048819,105.4241644,1542.882961
10.7150,-70.00815804,105.7025679,1542.28849
10.7200,-70.41366094,105.9773714,1541.68578
10.7250,-70.81935543,106.2478397,1541.075689
10.7300,-71.22495867,106.5139441,1540.457896
10.7350,-71.63050447,106.7753357,1539.831634
10.7400,-72.03652825,107.0314776,1539.196833
10.7450,-72.44345343,107.2822575,1538.554468
10.7500,-72.85001118,107.5273622,1537.903118
10.7550,-73.25727636,107.7674888,1537.243744
10.7600,-73.66449877,108.0018926,1536.575957
10.7650,-74.07057791,108.2328722,1535.899428
10.7700,-74.47595921,108.4589596,1535.213273
10.7750,-74.88043924,108.6798552,1534.517955
10.7800,-75.28349718,108.896521,1533.813278
10.7850,-75.68481693,109.1088052,1533.099108
10.7900,-76.08405918,109.3170506,1532.375178
10.7950,-76.48290378,109.521901,1531.642281
10.8000,-76.87960967,109.7235883,1530.900366
10.8050,-77.27367105,109.9228128,1530.148993
10.8100,-77.66486953,110.1190616,1529.388489
10.8150,-78.05388849,110.3130222,1528.619535
10.8200,-78.44093268,110.5046204,1527.842607
10.8250,-78.82511675,110.6952113,1527.05769
10.8300,-79.2070861,110.8837391,1526.265132
10.8350,-79.58793225,111.0718574,1525.465591
10.8400,-79.96581507,111.2610931,1524.659689
10.8450,-80.34096529,111.4496503,1523.84704
10.8500,-80.71439459,111.6380646,1523.028309
10.8550,-81.08444211,111.8270774,1522.203072
10.8600,-81.45156162,112.0162948,1521.371228
10.8650,-81.81624749,112.2036291,1520.533712
10.8700,-82.17755383,112.3900533,1519.690071
10.8750,-82.53606573,112.5758614,1518.840497
10.8800,-82.89269708,112.7608715,1517.986198
10.8850,-83.24738471,112.9449359,1517.128499
10.8900,-83.60077491,113.1290498,1516.266136
10.8950,-83.95370093,113.3115916,1515.400056
10.9000,-84.30520491,113.4948678,1514.530172
10.9050,-84.65482442,113.6761025,1513.65636
10.9100,-85.0035893,113.8573356,1512.778957
10.9150,-85.35086243,114.0373181,1511.897599
10.9200,-85.69668184,114.2154398,1511.012329
10.9250,-86.04162396,114.3918193,1510.123347
10.9300,-86.38436996,114.5668253,1509.231558
10.9350,-86.72698836,114.7412649,1508.337138
10.9400,-87.07002808,114.9133264,1507.440622
10.9450,-87.41350437,115.0825533,1506.54163
10.9500,-87.75664607,115.249996,1505.640493
10.9550,-88.0990538,115.4140618,1504.735819
10.9600,-88.44228122,115.5756175,1503.82906
10.9650,-88.78546135,115.7331129,1502.920006
10.9700,-89.13111479,115.888551,1502.009071
10.9750,-89.47749359,116.0406929,1501.096511
10.9800,-89.82523787,116.1894409,1500.181169
10.9850,-90.17462894,116.3346487,1499.263
10.9900,-90.52475323,116.4774184,1498.342358
10.9950,-90.87584318,116.6174972,1497.418572
11.0000,-91.22900333,116.7541235,1496.490988
11.0050,-91.5834207,116.887078,1495.559589
11.0100,-91.93976467,117.0174054,1494.62474
11.0150,-92.29616026,117.1456787,1493.685649
11.0200,-92.65404726,117.2723902,1492.742824
11.0250,-93.01221061,117.39879,1491.796077
11.0300,-93.3706363,117.523626,1490.845413
11.0350,-93.72993135,117.648126,1489.890264
11.0400,-94.08992112,117.7719425,1488.930751
11.0450,-94.44915067,117.8955674,1487.965675
11.0500,-94.80881206,118.0203088,1486.99548
11.0550,-95.16674591,118.1462962,1486.020032
11.0600,-95.52367903,118.2745407,1485.038777
11.0650,-95.87902355,118.4029397,1484.051321
11.0700,-96.23242391,118.533379,1483.058432
11.0750,-96.58431821,118.6671574,1482.05899
11.0800,-96.93409649,118.8036308,1481.054198
11.0850,-97.28075886,118.9443925,1480.042901
11.0900,-97.62433421,119.0892287,1479.025939
11.0950,-97.96328846,119.2389332,1478.002266
11.1000,-98.29990285,119.3927357,1476.972048
11.1050,-98.63281823,119.5509857,1475.934591
11.1100,-98.962643,119.7147081,1474.889978
11.1150,-99.28758963,119.8831897,1473.838002
11.1200,-99.60764893,120.0567729,1472.777816
11.1250,-99.92454579,120.2345163,1471.709653
11.1300,-100.2369439,120.4176145,1470.632525
11.1350,-100.5432355,120.6048157,1469.54667
11.1400,-100.8458073,120.7952885,1468.451895
11.1450,-101.1438403,120.9898676,1467.348083
11.1500,-101.4375916,121.1878519,1466.234763
11.1550,-101.7284385,121.3881542,1465.111767
11.1600,-102.0154229,121.5912167,1463.980189
11.1650,-102.2992308,121.7979289,1462.839665
11.1700,-102.5806881,122.0072421,1461.689999
11.1750,-102.8592287,122.2186452,1460.531469
11.1800,-103.1348912,122.4323133,1459.363781
11.1850,-103.4074983,122.6477763,1458.185737
11.1900,-103.6760913,122.8656411,1456.999185
11.1950,-103.9414165,123.0851371,1455.803249
11.2000,-104.2030836,123.3062562,1454.598337
11.2050,-104.4619674,123.5296681,1453.385025
11.2100,-104.7181838,123.7551082,1452.163804
11.2150,-104.9718686,123.980953,1450.934903
11.2200,-105.2239213,124.2067584,1449.69832
11.2250,-105.4737517,124.4334555,1448.453842
11.2300,-105.7234045,124.6595911,1447.201774
11.2350,-105.9703682,124.8853396,1445.941939
11.2400,-106.2151329,125.1109449,1444.674589
11.2450,-106.4573937,125.3365395,1443.400107
11.2500,-106.6981415,125.5608318,1442.117803
11.2550,-106.9370257,125.7846095,1440.82801
11.2600,-107.1730526,126.0062881,1439.53067
11.2650,-107.4080942,126.2258502,1438.226026
11.2700,-107.6397231,126.4433549,1436.91342
11.2750,-107.8692329,126.6577525,1435.59305
11.2800,-108.0971909,126.8684768,1434.265763
11.2850,-108.3228592,127.0757198,1432.931126
11.2900,-108.5478217,127.2789183,1431.589014
11.2950,-108.7725969,127.4768791,1430.239569
11.3000,-108.9952286,127.6699728,1428.882679
11.3050,-109.21596,127.8587883,1427.517977
11.3100,-109.4335257,128.0438648,1426.145468
11.3150,-109.6487402,128.2229574,1424.765979
11.3200,-109.8611476,128.3975204,1423.378815
11.3250,-110.0701446,128.5669429,1421.982795
11.3300,-110.2751243,128.7309259,1420.578044
11.3350,-110.4756112,128.8905045,1419.164524
11.3400,-110.6705777,129.0467998,1417.741988
11.3450,-110.8600513,129.1989025,1416.311272
11.3500,-111.0439974,129.346646,1414.872305
11.3550,-111.2218206,129.489044,1413.423801
11.3600,-111.3920029,129.626543,1411.965734
11.3650,-111.5545291,129.7595947,1410.498271
11.3700,-111.7096852,129.8883227,1409.020994
11.3750,-111.8565492,130.0118044,1407.533607
11.3800,-111.9955336,130.1307762,1406.035273
11.3850,-112.1268732,130.2440461,1404.526676
11.3900,-112.2505756,130.3525159,1403.007231
11.3950,-112.3679554,130.4559102,1401.476959
11.4000,-112.477582,130.5550861,1399.935788
11.4050,-112.5810122,130.6500507,1398.3842
11.4100,-112.6777013,130.7398465,1396.822411
11.4150,-112.7684794,130.8252862,1395.250179
11.4200,-112.853188,130.9066485,1393.668453
11.4250,-112.9316553,130.9841286,1392.076931
11.4300,-113.0049598,131.0577589,1390.476349
11.4350,-113.0728299,131.1283214,1388.866247
11.4400,-113.1336681,131.1967899,1387.246297
11.4450,-113.1887519,131.2627308,1385.616993
11.4500,-113.2364823,131.3258744,1383.978285
11.4550,-113.2771905,131.3881516,1382.331
11.4600,-113.3102339,131.4489728,1380.673705
11.4650,-113.3352416,131.5075159,1379.006046
11.4700,-113.351078,131.5659278,1377.32895
11.4750,-113.3589427,131.6232217,1375.642126
11.4800,-113.3584044,131.6785992,1373.945433
11.4850,-113.3486986,131.7324641,1372.239305
11.4900,-113.3307884,131.7845204,1370.524035
11.4950,-113.3037807,131.8350976,1368.799609
11.5000,-113.26825,131.8826453,1367.065729
11.5050,-113.223114,131.9279961,1365.322884
11.5100,-113.168774,131.9699476,1363.570142
11.5150,-113.1047907,132.0106147,1361.807831
11.5200,-113.0316539,132.0492495,1360.036015
11.5250,-112.9493495,132.0862167,1358.254649
11.5300,-112.8573144,132.1208965,1356.464618
11.5350,-112.7573611,132.1531694,1354.664895
11.5400,-112.6480135,132.1820179,1352.85508
11.5450,-112.5298814,132.2073513,1351.035228
11.5500,-112.4036955,132.2291629,1349.206558
11.5550,-112.2688671,132.2474433,1347.369057
11.5600,-112.1255669,132.2620999,1345.523102
11.5650,-111.9735327,132.2735205,1343.668842
11.5700,-111.813563,132.280033,1341.806061
11.5750,-111.6455674,132.2834366,1339.934818
11.5800,-111.4694311,132.2829774,1338.054924
11.5850,-111.2848495,132.2792185,1336.167375
11.5900,-111.092111,132.2722678,1334.272743
11.5950,-110.8899399,132.2629586,1332.371846
11.6000,-110.6788885,132.2514524,1330.464676
11.6050,-110.4595576,132.2384854,1328.551321
11.6100,-110.2321343,132.223437,1326.631073
11.6150,-109.9956625,132.2075751,1324.703646
11.6200,-109.7500125,132.1913668,1322.770085
11.6250,-109.4949303,132.1746906,1320.830648
11.6300,-109.2303973,132.1588644,1318.887077
11.6350,-108.9564423,132.1441094,1316.93992
11.6400,-108.6736127,132.1298936,1314.989389
11.6450,-108.381221,132.1171928,1313.035476
11.6500,-108.0792643,132.1046696,1311.077651
11.6550,-107.7702379,132.0929558,1309.116336
11.6600,-107.4560164,132.08156,1307.151643
11.6650,-107.138055,132.0703678,1305.182987
11.6700,-106.815841,132.061086,1303.211968
11.6750,-106.4909735,132.0532238,1301.238147
11.6800,-106.1634749,132.045733,1299.262272
11.6850,-105.8335765,132.040445,1297.283
11.6900,-105.5030055,132.0377929,1295.302519
11.6950,-105.1721242,132.0389236,1293.321317
11.7000,-104.8405078,132.0442081,1291.339663
11.7050,-104.5080509,132.0548281,1289.357973
11.7100,-104.1745593,132.0712807,1287.377102
11.7150,-103.8404377,132.0943908,1285.39728
11.7200,-103.5060246,132.1236232,1283.419573
11.7250,-103.1705343,132.1590236,1281.444655
11.7300,-102.834339,132.2003975,1279.473006
11.7350,-102.4970121,132.2499979,1277.505013
11.7400,-102.1597928,132.3070409,1275.541258
11.7450,-101.8216314,132.372218,1273.581
11.7500,-101.4825204,132.4452401,1271.625617
11.7550,-101.1421501,132.5236741,1269.675577
11.7600,-100.7996517,132.6084386,1267.731358
11.7650,-100.4537273,132.6994096,1265.794122
11.7700,-100.1047332,132.7938388,1263.862774
11.7750,-99.75127611,132.8917123,1261.938149
11.7800,-99.39312394,132.9923068,1260.020136
11.7850,-99.02942504,133.0935236,1258.108988
11.7900,-98.6606931,133.1950256,1256.20358
11.7950,-98.2869452,133.2957646,1254.305123
11.8000,-97.90741492,133.3959966,1252.413332
11.8050,-97.5222941,133.4945604,1250.5281
11.8100,-97.13089103,133.5899748,1248.649709
11.8150,-96.73379279,133.6793644,1246.778179
11.8200,-96.32937904,133.7645586,1244.913384
11.8250,-95.91863719,133.8427819,1243.055867
11.8300,-95.50083193,133.9149224,1241.204859
11.8350,-95.07596193,133.9786834,1239.361251
11.8400,-94.64461649,134.0359047,1237.525522
11.8450,-94.2071187,134.0850509,1235.697482
11.8500,-93.76270304,134.1261973,1233.876873
11.8550,-93.31227206,134.1590358,1232.064401
11.8600,-92.85550178,134.1841268,1230.258656
11.8650,-92.39160577,134.1991567,1228.459892
11.8700,-91.9212782,134.2063275,1226.669566
11.8750,-91.44397993,134.2030162,1224.88699
11.8800,-90.96004979,134.1894621,1223.111886
11.8850,-90.46948659,134.1650279,1221.343674
11.8900,-89.9713903,134.1295366,1219.5817
11.8950,-89.46645654,134.0823279,1217.825461
11.9000,-88.95556144,134.0221571,1216.075189
11.9050,-88.43810645,133.9490095,1214.331179
11.9100,-87.91454326,133.8646561,1212.594106
11.9150,-87.38513932,133.7695346,1210.863149
11.9200,-86.8492427,133.6651229,1209.137702
11.9250,-86.30734199,133.5513778,1207.417895
11.9300,-85.75960851,133.4286856,1205.701545
11.9350,-85.20567119,133.2976412,1203.989233
11.9400,-84.64589424,133.1579212,1202.279926
11.9450,-84.08193767,133.0105608,1200.573571
11.9500,-83.51205309,132.8582057,1198.870135
11.9550,-82.93490976,132.7011295,1197.170242
11.9600,-82.34966632,132.5403873,1195.474549
11.9650,-81.75612587,132.3770667,1193.782731
11.9700,-81.15357024,132.2113869,1192.09411
11.9750,-80.54218938,132.045249,1190.409469
11.9800,-79.92167867,131.8797151,1188.728998
11.9850,-79.29227626,131.7158574,1187.054332
11.9900,-78.65218481,131.5535457,1185.384087
11.9950,-78.00171081,131.3920382,1183.718661
12.0000,-77.34224112,131.2303089,1182.057952
12.0050,-76.67328134,131.0680888,1180.40226
12.0100,-75.99517284,130.9052755,1178.751015
12.0150,-75.30918021,130.7398458,1177.104209
12.0200,-74.61483279,130.5710961,1175.46177
12.0250,-73.91148326,130.3991626,1173.823143
12.0300,-73.1993633,130.2229103,1172.188194
12.0350,-72.479293,130.0403975,1170.557821
12.0400,-71.74930021,129.8523495,1168.93162
12.0450,-71.00966066,129.6574013,1167.310612
12.0500,-70.26004069,129.4569709,1165.694182
12.0550,-69.49995405,129.2512228,1164.082459
12.0600,-68.73056174,129.0374093,1162.474956
12.0650,-67.95162551,128.8156114,1160.871919
12.0700,-67.16347585,128.5861031,1159.2744
12.0750,-66.3662527,128.3473808,1157.682637
12.0800,-65.56086347,128.0986779,1156.096925
12.0850,-64.74779123,127.8409285,1154.517074
12.0900,-63.92723375,127.5724423,1152.943711
12.0950,-63.09904864,127.293748,1151.376182
12.1000,-62.26437607,127.0033679,1149.815477
12.1050,-61.42386556,126.7002439,1148.261473
12.1100,-60.57690202,126.3861498,1146.714197
12.1150,-59.72328929,126.0604033,1145.173655
12.1200,-58.86437049,125.7211574,1143.640185
12.1250,-57.99960838,125.3697884,1142.113924
12.1300,-57.1291447,125.0066317,1140.594872
12.1350,-56.25445836,124.6322855,1139.084162
12.1400,-55.37536176,124.2464075,1137.581811
12.1450,-54.4913005,123.8501124,1136.087144
12.1500,-53.6021628,123.443073,1134.600085
12.1550,-52.70887465,123.0267832,1133.120806
12.1600,-51.8103921,122.6007768,1131.648653
12.1650,-50.90698527,122.1675331,1130.183237
12.1700,-49.99898034,121.7272539,1128.724228
12.1750,-49.08620821,121.2813833,1127.271088
12.1800,-48.16741482,120.8317203,1125.823973
12.1850,-47.24305855,120.3792868,1124.382408
12.1900,-46.31428876,119.9245438,1122.947407
12.1950,-45.38026132,119.4693572,1121.51855
12.2000,-44.44058307,119.015194,1120.095848
12.2050,-43.4962577,118.5614826,1118.679196
12.2100,-42.54599666,118.108994,1117.268527
12.2150,-41.58975168,117.6588343,1115.865044
12.2200,-40.6282302,117.211838,1114.468989
12.2250,-39.66158114,116.7693224,1113.080881
12.2300,-38.68882705,116.3316986,1111.700789
12.2350,-37.71044809,115.8966682,1110.327692
12.2400,-36.72595967,115.4668738,1108.962651
12.2450,-35.73382145,115.0421064,1107.60553
12.2500,-34.73540122,114.6233041,1106.257359
12.2550,-33.73113798,114.2086949,1104.917469
12.2600,-32.71960406,113.7997034,1103.585695
12.2650,-31.70170173,113.3962459,1102.263508
12.2700,-30.67635394,112.9984389,1100.950433
12.2750,-29.64423197,112.6060923,1099.64728
12.2800,-28.60402091,112.2196818,1098.353731
12.2850,-27.55580104,111.8386661,1097.069586
12.2900,-26.50019479,111.4628335,1095.794538
12.2950,-25.43731826,111.0935604,1094.52907
12.3000,-24.36632366,110.7298955,1093.272951
12.3050,-23.28669658,110.3722464,1092.02565
12.3100,-22.19947478,110.0203262,1090.787713
12.3150,-21.10466975,109.6730844,1089.559065
12.3200,-20.00271547,109.3303219,1088.339088
12.3250,-18.89551117,108.9913622,1087.12801
12.3300,-17.78314117,108.6569675,1085.926987
12.3350,-16.66545396,108.3244252,1084.734616
12.3400,-15.544402,107.9940328,1083.551953
12.3450,-14.4214233,107.6645433,1082.379274
12.3500,-13.29686932,107.3364058,1081.21667
12.3550,-12.17105625,107.0085575,1080.064154
12.3600,-11.04424903,106.6816924,1078.922086
12.3650,-9.917179565,106.3544171,1077.790124
12.3700,-8.790656448,106.0265919,1076.668089
12.3750,-7.663988893,105.6990132,1075.555532
12.3800,-6.537628605,105.3716792,1074.452895
12.3850,-5.413195372,105.0433298,1073.360596
12.3900,-4.289830802,104.7143773,1072.278328
12.3950,-3.168507753,104.3847976,1071.206607
12.4000,-2.048702756,104.0538062,1070.144721
12.4050,-0.9317237624,103.7227168,1069.092932
12.4100,0.1818046381,103.3899242,1068.050749
12.4150,1.291787626,103.0573507,1067.018259
12.4200,2.397563697,102.7257942,1065.995735
12.4250,3.498679486,102.3949599,1064.982742
12.4300,4.594102603,102.0649308,1063.97935
12.4350,5.684954328,101.7354941,1062.984536
12.4400,6.770935002,101.4064795,1061.997496
12.4450,7.851361341,101.0776855,1061.019081
12.4500,8.926056986,100.7488666,1060.048524
12.4550,9.994929794,100.4185995,1059.085742
12.4600,11.05721236,100.0878303,1058.131131
12.4650,12.11257358,99.75514876,1057.184821
12.4700,13.16122867,99.42058638,1056.246528
12.4750,14.20411601,99.0866144,1055.316884
12.4800,15.24007319,98.75228642,1054.395661
12.4850,16.26998999,98.41686994,1053.483051
12.4900,17.29614891,98.08239575,1052.578263
12.4950,18.31871709,97.74751297,1051.681102
12.5000,19.33830599,97.41339648,1050.791614
12.5050,20.35728697,97.08128828,1049.909726
12.5100,21.37490174,96.75076896,1049.035509
12.5150,22.39195684,96.42206204,1048.168645
12.5200,23.40947805,96.09412013,1047.309146
12.5250,24.42781597,95.76663164,1046.456668
12.5300,25.44633552,95.43988535,1045.611691
12.5350,26.46620429,95.11558117,1044.774725
12.5400,27.48783266,94.79283519,1043.945659
12.5450,28.51207504,94.47156577,1043.124394
12.5500,29.53716466,94.14996741,1042.310684
12.5550,30.56566182,93.83046231,1041.504868
12.5600,31.59623269,93.51073875,1040.706762
12.5650,32.6302603,93.19081701,1039.916131
12.5700,33.66659641,92.87044044,1039.133316
12.5750,34.70595598,92.54819215,1038.357955
12.5800,35.74768704,92.2237615,1037.59
12.5850,36.79119731,91.8962697,1036.829806
12.5900,37.83654734,91.56435745,1036.077605
12.5950,38.88322376,91.22663221,1035.333364
12.6000,39.93138473,90.88347696,1034.597038
12.6050,40.97886708,90.53355005,1033.869422
12.6100,42.02631156,90.17645356,1033.150269
12.6150,43.07291673,89.8134264,1032.440133
12.6200,44.11805267,89.44428378,1031.739297
12.6250,45.1624809,89.06992902,1031.048059
12.6300,46.20609883,88.68773082,1030.365374
12.6350,47.24834311,88.29988157,1029.69194
12.6400,48.28935034,87.90610831,1029.02768
12.6450,49.32884628,87.5075886,1028.372409
12.6500,50.36554108,87.1021591,1027.726019
12.6550,51.40007296,86.69107404,1027.087916
12.6600,52.43031502,86.27499563,1026.458792
12.6650,53.45633858,85.8556002,1025.83827
12.6700,54.47692298,85.43360968,1025.226826
12.6750,55.49014256,85.00864907,1024.624499
12.6800,56.49661758,84.58123816,1024.030625
12.6850,57.49546396,84.15212118,1023.445131
12.6900,58.48520617,83.72173573,1022.868081
12.6950,59.46552487,83.29013246,1022.299259
12.7000,60.43438355,82.85916773,1021.739051
12.7050,61.39228525,82.42708107,1021.18679
12.7100,62.33752522,81.99547939,1020.642936
12.7150,63.26927456,81.56499313,1020.107383
12.7200,64.18667858,81.13475824,1019.580058
12.7250,65.08975771,80.70525679,1019.06063
12.7300,65.97769279,80.2769045,1018.549439
12.7350,66.85073149,79.8497334,1018.046031
12.7400,67.70745859,79.42379132,1017.55065
12.7450,68.54783179,78.99894958,1017.062839
12.7500,69.37257833,78.57669755,1016.582721
12.7550,70.18176882,78.15747332,1016.109979
12.7600,70.97518644,77.73979436,1015.644262
12.7650,71.7544318,77.32516784,1015.185247
12.7700,72.52009031,76.91297927,1014.732515
12.7750,73.27198844,76.50341911,1014.286094
12.7800,74.01097123,76.09695109,1013.845633
12.7850,74.73790472,75.69425081,1013.411094
12.7900,75.45296553,75.29505141,1012.982596
12.7950,76.15647939,74.8997163,1012.559898
12.8000,76.84977045,74.50842151,1012.143028
12.8050,77.53300667,74.12039171,1011.731628
12.8100,78.20820149,73.7353041,1011.325393
12.8150,78.87580246,73.35351678,1010.924252
12.8200,79.5360743,72.97503139,1010.528337
12.8250,80.1899077,72.6000695,1010.137525
12.8300,80.83904329,72.22729294,1009.751338
12.8350,81.48307263,71.85695713,1009.370098
12.8400,82.12265372,71.48878784,1008.993695
12.8450,82.75764936,71.12197583,1008.622079
12.8500,83.3897462,70.75615572,1008.255129
12.8550,84.01754654,70.39045318,1007.892947
12.8600,84.64288303,70.02718805,1007.535753
12.8650,85.26522762,69.6641346,1007.183206
12.8700,85.88520919,69.30092979,1006.835301
12.8750,86.50344131,68.93914145,1006.492111
12.8800,87.12029063,68.57754068,1006.153465
12.8850,87.73635632,68.21656618,1005.819256
12.8900,88.35261761,67.8572933,1005.489423
12.8950,88.96947911,67.49775042,1005.163608
12.9000,89.58655827,67.13915894,1004.842027
12.9050,90.20492899,66.78112548,1004.524185
12.9100,90.82393242,66.42452903,1004.2101
12.9150,91.4443687,66.0682087,1003.8993
12.9200,92.06637511,65.71257357,1003.59173
12.9250,92.6891993,65.35746109,1003.287353
12.9300,93.31242568,65.00468052,1002.986538
12.9350,93.93585914,64.65281038,1002.688846
12.9400,94.55805817,64.3013319,1002.3943
12.9450,95.18076038,63.95103534,1002.102476
12.9500,95.80199909,63.60205826,1001.813608
12.9550,96.42133549,63.25596279,1001.528171
12.9600,97.03882624,62.91181356,1001.245731
12.9650,97.65290996,62.56878129,1000.966484
12.9700,98.26359938,62.2271992,1000.69028
12.9750,98.87020991,61.88758554,1000.417208
12.9800,99.4706508,61.55126349,1000.148109
12.9850,100.0648434,61.21821446,999.8828253
12.9900,100.6524778,60.88860156,999.6213048
12.9950,101.2334384,60.56297156,999.3636213
13.0000,101.8057969,60.24133818,999.1103383
13.0050,102.3695148,59.92516343,998.861632
13.0100,102.9244224,59.61384909,998.6174396
13.0150,103.4696195,59.30739536,998.3778201
13.0200,104.0053348,59.00634499,998.142896
13.0250,104.5303857,58.71212268,997.9131461
13.0300,105.0454335,58.42254142,997.6879741
13.0350,105.5507035,58.14011738,997.4678152
13.0400,106.0455452,57.8644208,997.2529868
13.0450,106.5294111,57.59633499,997.0436994
13.0500,107.0016667,57.33661652,996.8403209
13.0550,107.4614215,57.0839702,996.6429247
13.0600,107.908359,56.84093237,996.4520112
13.0650,108.3415081,56.60699986,996.2677652
13.0700,108.7594758,56.38317009,996.090709
13.0750,109.161834,56.16942209,995.9209417
13.0800,109.5488295,55.96566954,995.7585313
13.0850,109.9193067,55.77334327,995.6037171
13.0900,110.273399,55.59294066,995.4565574
13.0950,110.6100837,55.42417133,995.3173097
13.1000,110.9294699,55.26810015,995.1858912
13.1050,111.2306784,55.12554902,995.0625868
13.1100,111.5127719,54.99683795,994.9476351
13.1150,111.775403,54.88193683,994.8408212
13.1200,112.0194066,54.78073304,994.7419738
13.1250,112.2465228,54.69489895,994.6510516
13.1300,112.4554636,54.62350104,994.5678879
13.1350,112.6485131,54.56716131,994.4921986
13.1400,112.8258836,54.52483138,994.4237351
13.1450,112.9893977,54.49752222,994.3621694
13.1500,113.1394597,54.48574759,994.307664
13.1550,113.2787846,54.48739781,994.2592317
13.1600,113.4074921,54.50101263,994.2166498
13.1650,113.52709,54.52753505,994.1799424
13.1700,113.6383103,54.56606274,994.1487655
13.1750,113.7422654,54.61517019,994.1227098
13.1800,113.8391351,54.67525929,994.1016345
13.1850,113.9305703,54.74513152,994.0851584
13.1900,114.0154939,54.82396568,994.0733164
13.1950,114.096114,54.91261201,994.065799
13.2000,114.1711554,55.00923499,994.0626536
13.2050,114.2419523,55.11496833,994.0636624
13.2100,114.3063952,55.22661932,994.0688212
13.2150,114.3648067,55.3451554,994.0782856
13.2200,114.4156223,55.46996493,994.092198
13.2250,114.4582897,55.59867816,994.1102024
13.2300,114.4921265,55.73246015,994.1325847
13.2350,114.51614,55.87129614,994.1595095
13.2400,114.5297133,56.01297931,994.1905996
13.2450,114.5312899,56.15762147,994.2261233
13.2500,114.5204766,56.30512101,994.2663518
13.2550,114.4952327,56.45253325,994.3109115
13.2600,114.453944,56.60131723,994.3603232
13.2650,114.3964527,56.75104678,994.4144542
13.2700,114.3218958,56.90126197,994.473484
13.2750,114.2298266,57.05165237,994.5373979
13.2800,114.1194178,57.20128003,994.6061858
13.2850,113.9908166,57.35030667,994.6798626
13.2900,113.8427038,57.49909127,994.7590241
13.2950,113.6741742,57.64747998,994.8438062
13.3000,113.4863976,57.79408752,994.9338349
13.3050,113.2798299,57.94063094,995.0294242
13.3100,113.0518064,58.08698829,995.1311025
13.3150,112.8031313,58.23267997,995.2389468
13.3200,112.5328361,58.37870807,995.3531047
13.3250,112.2414956,58.52429034,995.4736537
13.3300,111.9285809,58.67155383,995.6011342
13.3350,111.5923942,58.82023281,995.7359526
13.3400,111.2342393,58.97088007,995.877808
13.3450,110.8538057,59.12401723,996.0271226
13.3500,110.4499701,59.27833016,996.183876
13.3550,110.0233532,59.43554073,996.3482496
13.3600,109.5731458,59.59430363,996.5202236
13.3650,109.098508,59.75685128,996.7003708
13.3700,108.6011634,59.92214189,996.8881875
13.3750,108.0793755,60.09030317,997.0840162
13.3800,107.5329792,60.26163603,997.2879616
13.3850,106.9622838,60.43591326,997.500182
13.3900,106.3657251,60.61381336,997.720987
13.3950,105.7443212,60.79521937,997.950342
13.4000,105.0986544,60.97880255,998.1880159
13.4050,104.4288019,61.16535236,998.4343619
13.4100,103.7363736,61.35556901,998.6891769
13.4150,103.0217656,61.54910849,998.9527989
13.4200,102.285542,61.74639266,999.2251056
13.4250,101.5266997,61.94643298,999.5062831
13.4300,100.7476242,62.15091328,999.7967309
13.4350,99.94949004,62.35870508,1000.096025
13.4400,99.1328755,62.57129229,1000.404434
13.4450,98.29718882,62.78854935,1000.722536
13.4500,97.44452243,63.00951275,1001.049784
13.4550,96.57468393,63.23501286,1001.386471
13.4600,95.68927992,63.46665605,1001.732765
13.4650,94.78923204,63.70469735,1002.088502
13.4700,93.87599071,63.9487216,1002.453456
13.4750,92.95058877,64.19879367,1002.82756
13.4800,92.01366037,64.4555628,1003.211042
13.4850,91.06606058,64.71805466,1003.603615
13.4900,90.1089973,64.98601992,1004.004971
13.4950,89.14228465,65.25900047,1004.415431
13.5000,88.16679357,65.537547,1004.834664
13.5050,87.18160681,65.81971096,1005.262949
13.5100,86.1888242,66.10584972,1005.699991
13.5150,85.18779713,66.39587477,1006.145898
13.5200,84.18057705,66.68965664,1006.600354
13.5250,83.16805275,66.98684381,1007.063185
13.5300,82.15154507,67.28674509,1007.534348
13.5350,81.13110717,67.58745929,1008.013458
13.5400,80.10803033,67.8906479,1008.50076
13.5450,79.08319063,68.1941565,1008.995892
13.5500,78.05793011,68.49905253,1009.498579
13.5550,77.03224703,68.80583579,1010.009213
13.5600,76.00864476,69.11382784,1010.527176
13.5650,74.98699246,69.42189948,1011.052554
13.5700,73.96838003,69.73064066,1011.585097
13.5750,72.95278413,70.04006829,1012.124882
13.5800,71.94094287,70.34901321,1012.671671
13.5850,70.93314062,70.65792025,1013.225267
13.5900,69.92906383,70.96614572,1013.78563
13.5950,68.92933142,71.2729126,1014.352291
13.6000,67.93310113,71.57993216,1014.925653
13.6050,66.93943799,71.8844187,1015.505428
13.6100,65.95091705,72.18759151,1016.091403
13.6150,64.96576167,72.48987487,1016.683692
13.6200,63.98431119,72.791328,1017.282371
13.6250,63.00474128,73.09096881,1017.887451
13.6300,62.02742447,73.38920961,1018.498817
13.6350,61.0527656,73.68511852,1019.116296
13.6400,60.07921624,73.97925235,1019.74073
13.6450,59.10697616,74.27164425,1020.372131
13.6500,58.13581812,74.56366537,1021.010692
13.6550,57.16558949,74.8544385,1021.656505
13.6600,56.19636586,75.14601787,1022.310072
13.6650,55.22881311,75.43589952,1022.970679
13.6700,54.26137898,75.72538051,1023.639458
13.6750,53.29575702,76.01521495,1024.316091
13.6800,52.3305161,76.30569147,1025.001225
13.6850,51.36570204,76.59599434,1025.694535
13.6900,50.40173578,76.88607054,1026.396465
13.6950,49.4381434,77.17576356,1027.106713
13.7000,48.47394706,77.46601487,1027.826104
13.7050,47.50841206,77.75635633,1028.55479
13.7100,46.541038,78.04764242,1029.293156
13.7150,45.57156794,78.33942686,1030.041109
13.7200,44.59917455,78.63071823,1030.799312
13.7250,43.62403039,78.92135665,1031.567636
13.7300,42.64410174,79.21132512,1032.346296
13.7350,41.6586135,79.50043213,1033.135878
13.7400,40.66831444,79.78939235,1033.93633
