type,name,time_units,begin_time,frequency,count,units
signal_3d,"Noraxon MyoMotion-Trajectories-Elbow RT","s",0.0000,200,5068,"mm"

time,x,y,z
0.0000,177.6876899,-8.402787062,1239.060059
0.0050,177.6956482,-8.414906575,1239.057104
0.0100,177.7036071,-8.4270258,1239.054149
0.0150,177.7115667,-8.439144737,1239.051195
0.0200,177.7201801,-8.453217722,1239.047847
0.0250,177.7293855,-8.469334563,1239.0441
0.0300,177.7391127,-8.487542253,1239.039955
0.0350,177.749286,-8.507841817,1239.035425
0.0400,177.7598213,-8.530199577,1239.030525
0.0450,177.7706246,-8.554561795,1239.025278
0.0500,177.7815981,-8.580860293,1239.019709
0.0550,177.7926484,-8.609010265,1239.013843
0.0600,177.8036912,-8.638907314,1239.007709
0.0650,177.8146523,-8.670423786,1239.001337
0.0700,177.8254684,-8.703402947,1238.994758
0.0750,177.8360857,-8.737655418,1238.98801
0.0800,177.8464567,-8.772962728,1238.981133
0.0850,177.8565359,-8.809088307,1238.97417
0.0900,177.8662778,-8.845791379,1238.967162
0.0950,177.8756414,-8.882836948,1238.960153
0.1000,177.8845964,-8.919998379,1238.953181
0.1050,177.8931215,-8.957053776,1238.946284
0.1100,177.9011969,-8.993778907,1238.939498
0.1150,177.9087974,-9.029941652,1238.932864
0.1200,177.9158884,-9.065302434,1238.926423
0.1250,177.9224208,-9.09962024,1238.920222
0.1300,177.9283237,-9.132662109,1238.914306
0.1350,177.9335016,-9.164212191,1238.908723
0.1400,177.9378356,-9.194076072,1238.903522
0.1450,177.9411864,-9.222081288,1238.898749
0.1500,177.9434023,-9.248077672,1238.894452
0.1550,177.9535557,-9.294181136,1238.885928
0.1600,177.9639127,-9.338567937,1238.877624
0.1650,177.9731821,-9.381112207,1238.869744
0.1700,177.9815323,-9.420848617,1238.862426
0.1750,177.9882282,-9.458725079,1238.855633
0.1800,177.9939316,-9.493815786,1238.849416
0.1850,177.9991562,-9.52565185,1238.843771
0.1900,178.0034874,-9.553767479,1238.838831
0.1950,178.0065047,-9.579258941,1238.834491
0.2000,178.0084747,-9.602687712,1238.830615
0.2050,178.0091565,-9.622659222,1238.827458
0.2100,178.0092805,-9.640320723,1238.824729
0.2150,178.0084892,-9.656283775,1238.822382
0.2200,178.0082795,-9.669806488,1238.820316
0.2250,178.0092257,-9.681561106,1238.818335
0.2300,178.0107497,-9.691233194,1238.816576
0.2350,178.0135748,-9.69803803,1238.815058
0.2400,178.0175068,-9.703658638,1238.813539
0.2450,178.0223378,-9.708228004,1238.812032
0.2500,178.0294711,-9.711968571,1238.810299
0.2550,178.0390716,-9.715411526,1238.808228
0.2600,178.0521343,-9.719195727,1238.805576
0.2650,178.0676279,-9.721770759,1238.802741
0.2700,178.0862708,-9.724219988,1238.799441
0.2750,178.1080124,-9.725485575,1238.79585
0.2800,178.1328638,-9.725599288,1238.791969
0.2850,178.1600649,-9.724393532,1238.787935
0.2900,178.1896422,-9.723287318,1238.78352
0.2950,178.2214567,-9.721299152,1238.778906
0.3000,178.2546525,-9.718226927,1238.774242
0.3050,178.2888669,-9.714484691,1238.769538
0.3100,178.3248544,-9.71009295,1238.764665
0.3150,178.3621677,-9.704957622,1238.759717
0.3200,178.4004728,-9.698606745,1238.754838
0.3250,178.4385518,-9.691637993,1238.750102
0.3300,178.4774487,-9.684625586,1238.745258
0.3350,178.5160573,-9.67813311,1238.740402
0.3400,178.5545578,-9.67132606,1238.735638
0.3450,178.5933498,-9.664892644,1238.730786
0.3500,178.6320271,-9.658049657,1238.726044
0.3550,178.6713422,-9.651519863,1238.721184
0.3600,178.7107984,-9.645441168,1238.716268
0.3650,178.7503061,-9.64001902,1238.711267
0.3700,178.7899475,-9.635409611,1238.706155
0.3750,178.8296528,-9.631788162,1238.70091
0.3800,178.8693929,-9.629308002,1238.695516
0.3850,178.9092576,-9.628560042,1238.689866
0.3900,178.9482921,-9.629620564,1238.684092
0.3950,178.9881688,-9.631615042,1238.678084
0.4000,179.0288594,-9.635945994,1238.671611
0.4050,179.069713,-9.642150869,1238.664839
0.4100,179.1102982,-9.64967636,1238.657921
0.4150,179.1507743,-9.658961192,1238.650754
0.4200,179.1912097,-9.66997373,1238.643334
0.4250,179.230883,-9.682635065,1238.635777
0.4300,179.2709131,-9.696906643,1238.627928
0.4350,179.311399,-9.71321373,1238.619703
0.4400,179.3521328,-9.730995243,1238.611211
0.4450,179.393459,-9.749581533,1238.60252
0.4500,179.4346867,-9.769837239,1238.593579
0.4550,179.4764219,-9.791146034,1238.584408
0.4600,179.5184169,-9.813272141,1238.575082
0.4650,179.5619226,-9.835568857,1238.565527
0.4700,179.6062255,-9.858757466,1238.55572
0.4750,179.6513628,-9.882592142,1238.545704
0.4800,179.697592,-9.907320479,1238.535396
0.4850,179.7434452,-9.931767603,1238.525196
0.4900,179.7901682,-9.957296265,1238.514713
0.4950,179.836592,-9.982245302,1238.50438
0.5000,179.8825412,-10.00711899,1238.49414
0.5050,179.9286856,-10.03291303,1238.483748
0.5100,179.9743406,-10.05818444,1238.473528
0.5150,180.0196957,-10.08351093,1238.463358
0.5200,180.0636075,-10.1095887,1238.453295
0.5250,180.1058949,-10.13556473,1238.443502
0.5300,180.1469553,-10.16169793,1238.433878
0.5350,180.1862961,-10.18872601,1238.424375
0.5400,180.2247912,-10.21634911,1238.414907
0.5450,180.2615364,-10.2453291,1238.405495
0.5500,180.2965051,-10.27483605,1238.396265
0.5550,180.3308898,-10.30465245,1238.387089
0.5600,180.3636313,-10.33582976,1238.377941
0.5650,180.3955434,-10.36802961,1238.36876
0.5700,180.426243,-10.40177563,1238.359525
0.5750,180.4566166,-10.43673217,1238.350166
0.5800,180.4867513,-10.47325255,1238.340613
0.5850,180.5164865,-10.5118998,1238.330798
0.5900,180.5464319,-10.55068443,1238.320943
0.5950,180.5767039,-10.59100968,1238.31082
0.6000,180.6073368,-10.63330198,1238.300358
0.6050,180.6374473,-10.67600371,1238.289915
0.6100,180.6680822,-10.71853609,1238.279453
0.6150,180.6985421,-10.76173533,1238.268921
0.6200,180.7295407,-10.80604436,1238.258142
0.6250,180.7603274,-10.85024369,1238.247424
0.6300,180.7905121,-10.89417533,1238.236857
0.6350,180.820361,-10.93717847,1238.22648
0.6400,180.8511014,-10.97913461,1238.216142
0.6450,180.8810734,-11.02078208,1238.205975
0.6500,180.9115906,-11.06244788,1238.195732
0.6550,180.9409017,-11.10244911,1238.185916
0.6600,180.969408,-11.14167401,1238.176335
0.6650,180.9970174,-11.18049733,1238.16694
0.6700,181.0236888,-11.21834611,1238.157827
0.6750,181.0499375,-11.25568534,1238.148847
0.6800,181.0756701,-11.2919307,1238.140115
0.6850,181.1013476,-11.32616241,1238.131684
0.6900,181.127432,-11.35989077,1238.123271
0.6950,181.1518261,-11.39304258,1238.115188
0.7000,181.1755299,-11.42480201,1238.107401
0.7050,181.1990035,-11.45521143,1238.099849
0.7100,181.2216102,-11.48528552,1238.092467
0.7150,181.2444328,-11.5137402,1238.085298
0.7200,181.2673597,-11.54156946,1238.078206
0.7250,181.2900231,-11.56839412,1238.071296
0.7300,181.3124219,-11.59382841,1238.064626
0.7350,181.3346588,-11.61795456,1238.058167
0.7400,181.3560921,-11.64180019,1238.051852
0.7450,181.3766084,-11.66501817,1238.045756
0.7500,181.3964747,-11.68761012,1238.039834
0.7550,181.4147636,-11.70961415,1238.034215
0.7600,181.4321771,-11.73014901,1238.028928
0.7650,181.4490825,-11.74973589,1238.023842
0.7700,181.4659706,-11.76942526,1238.018748
0.7750,181.4818907,-11.78777744,1238.013974
0.7800,181.4967597,-11.80531884,1238.009468
0.7850,181.5115021,-11.82211308,1238.005084
0.7900,181.5259771,-11.83820057,1238.000838
0.7950,181.5401295,-11.8540826,1237.996665
0.8000,181.5544166,-11.8693329,1237.992565
0.8050,181.5676972,-11.88387167,1237.988705
0.8100,181.5804632,-11.89773869,1237.98501
0.8150,181.593204,-11.91047917,1237.981489
0.8200,181.6048136,-11.92246478,1237.978236
0.8250,181.6163553,-11.93424252,1237.975019
0.8300,181.6267129,-11.94570543,1237.972007
0.8350,181.6364295,-11.95735862,1237.969051
0.8400,181.6445757,-11.96769044,1237.966506
0.8450,181.6531386,-11.97768211,1237.963939
0.8500,181.661191,-11.98726434,1237.961495
0.8550,181.6677322,-11.9963765,1237.959315
0.8600,181.6734034,-12.00444335,1237.957412
0.8650,181.6781869,-12.012471,1237.955629
0.8700,181.6827129,-12.01892202,1237.954113
0.8750,181.6864844,-12.02467884,1237.952798
0.8800,181.6907108,-12.02930398,1237.951585
0.8850,181.6950007,-12.03271215,1237.95054
0.8900,181.6995683,-12.03583092,1237.949495
0.8950,181.7040342,-12.0376253,1237.948653
0.9000,181.709227,-12.03811484,1237.947908
0.9050,181.715758,-12.03882063,1237.946944
0.9100,181.7227543,-12.03919316,1237.94595
0.9150,181.7305052,-12.03883293,1237.944965
0.9200,181.7389269,-12.03674964,1237.944153
0.9250,181.7486378,-12.03446932,1237.943189
0.9300,181.7596052,-12.0310543,1237.942222
0.9350,181.7719072,-12.02699243,1237.941175
0.9400,181.7843494,-12.02228231,1237.940211
0.9450,181.7978925,-12.01645785,1237.939263
0.9500,181.8105087,-12.00946454,1237.938617
0.9550,181.8239831,-12.00233128,1237.937879
0.9600,181.8381923,-11.99506657,1237.937057
0.9650,181.8525873,-11.98616052,1237.936464
0.9700,181.8675161,-11.9766269,1237.935899
0.9750,181.8818063,-11.96692092,1237.935444
0.9800,181.8953153,-11.95654318,1237.935196
0.9850,181.9089161,-11.94646922,1237.934894
0.9900,181.9209505,-11.93565736,1237.934913
0.9950,181.9324645,-11.92418587,1237.93509
1.0000,181.9431837,-11.91297711,1237.935334
1.0050,181.9535475,-11.90161441,1237.935649
1.0100,181.9631072,-11.88965462,1237.936156
1.0150,181.9716869,-11.87755604,1237.936817
1.0200,181.978751,-11.86442074,1237.93783
1.0250,181.9847042,-11.85131777,1237.938988
1.0300,181.9893384,-11.83823446,1237.940314
1.0350,181.9931021,-11.82476807,1237.94181
1.0400,181.9960172,-11.81092661,1237.943476
1.0450,181.9983942,-11.79766904,1237.945114
1.0500,182.0003581,-11.78406256,1237.946853
1.0550,182.0023844,-11.77005532,1237.948632
1.0600,182.0029152,-11.75659781,1237.950533
1.0650,182.0014669,-11.74363107,1237.952636
1.0700,181.9984918,-11.73018572,1237.955006
1.0750,181.9938952,-11.71630969,1237.957657
1.0800,181.9871832,-11.70305774,1237.960489
1.0850,181.979321,-11.69004617,1237.96345
1.0900,181.9684636,-11.67729955,1237.966772
1.0950,181.9565701,-11.66446742,1237.97025
1.1000,181.9436397,-11.6525953,1237.973718
1.1050,181.929786,-11.64075886,1237.97731
1.1100,181.9144717,-11.62992165,1237.980958
1.1150,181.896938,-11.62061796,1237.984674
1.1200,181.8787936,-11.61185684,1237.988395
1.1250,181.858474,-11.60403163,1237.992268
1.1300,181.837662,-11.59665766,1237.996137
1.1350,181.8165234,-11.58867651,1238.000149
1.1400,181.7951337,-11.58144532,1238.004081
1.1450,181.7725949,-11.57385598,1238.008234
1.1500,181.7499905,-11.56677982,1238.012318
1.1550,181.7274722,-11.56057401,1238.016247
1.1600,181.7049677,-11.55418004,1238.0202
1.1650,181.6836437,-11.54799831,1238.023961
1.1700,181.6624595,-11.54242703,1238.027602
1.1750,181.6413926,-11.53740801,1238.03114
1.1800,181.6198798,-11.5329192,1238.034666
1.1850,181.5986973,-11.52888493,1238.038085
1.1900,181.5787963,-11.52439236,1238.041403
1.1950,181.5584591,-11.52128988,1238.044575
1.2000,181.5385929,-11.51813077,1238.047696
1.2050,181.5187411,-11.51395401,1238.050984
1.2100,181.4983223,-11.50920838,1238.054451
1.2150,181.4777191,-11.50341392,1238.058118
1.2200,181.4570187,-11.49811593,1238.061741
1.2250,181.4366639,-11.49284741,1238.065321
1.2300,181.4163197,-11.48813477,1238.068824
1.2350,181.3974468,-11.48352374,1238.07211
1.2400,181.3797384,-11.47952306,1238.075152
1.2450,181.3638188,-11.47659382,1238.077784
1.2500,181.3507648,-11.47428533,1238.079927
1.2550,181.3393229,-11.47259545,1238.08175
1.2600,181.3300926,-11.47151054,1238.083172
1.2650,181.3233459,-11.47255296,1238.083926
1.2700,181.3196963,-11.47475844,1238.084065
1.2750,181.318816,-11.47763116,1238.083721
1.2800,181.3212835,-11.48322876,1238.082496
1.2850,181.3258538,-11.49009184,1238.080785
1.2900,181.3348717,-11.4979034,1238.078316
1.2950,181.3474029,-11.5071182,1238.075155
1.3000,181.363311,-11.51777276,1238.071307
1.3050,181.3823122,-11.52933645,1238.066895
1.3100,181.4055597,-11.54230064,1238.061689
1.3150,181.4313364,-11.55608615,1238.056013
1.3200,181.4598444,-11.57168219,1238.049683
1.3250,181.4909603,-11.588432,1238.042826
1.3300,181.5250122,-11.6064093,1238.035375
1.3350,181.5621342,-11.62597258,1238.027261
1.3400,181.6013811,-11.64659274,1238.01868
1.3450,181.6431452,-11.66874574,1238.009512
1.3500,181.6875524,-11.69252757,1237.999734
1.3550,181.7348703,-11.71899613,1237.989132
1.3600,181.7864209,-11.74780356,1237.977575
1.3650,181.8415528,-11.77968677,1237.965042
1.3700,181.899426,-11.81469092,1237.951648
1.3750,181.9609938,-11.85406377,1237.937071
1.3800,182.0268535,-11.89594843,1237.92152
1.3850,182.0958579,-11.94139764,1237.90497
1.3900,182.1681462,-11.98953291,1237.887565
1.3950,182.2420232,-12.04231337,1237.869212
1.4000,182.316899,-12.09721996,1237.85039
1.4050,182.3921904,-12.15619413,1237.830873
1.4100,182.4668697,-12.21865601,1237.810885
1.4150,182.5406151,-12.2848654,1237.79044
1.4200,182.6118038,-12.35470471,1237.769756
1.4250,182.6805959,-12.42753199,1237.748918
1.4300,182.7463026,-12.50410628,1237.727899
1.4350,182.8080063,-12.58481034,1237.706759
1.4400,182.8658912,-12.66906507,1237.685566
1.4450,182.9198144,-12.75740064,1237.664251
1.4500,182.9690774,-12.84934224,1237.642975
1.4550,183.0146671,-12.9455085,1237.621532
1.4600,183.0563474,-13.04601762,1237.599911
1.4650,183.0936903,-13.15060749,1237.578217
1.4700,183.1286589,-13.25952231,1237.556147
1.4750,183.1610222,-13.37296881,1237.53371
1.4800,183.1920576,-13.49068087,1237.510757
1.4850,183.2216368,-13.61292174,1237.487276
1.4900,183.2504288,-13.73933686,1237.463239
1.4950,183.2806741,-13.86966162,1237.438385
1.5000,183.3119262,-14.00446817,1237.412694
1.5050,183.3451777,-14.14427625,1237.38595
1.5100,183.3801475,-14.29010819,1237.358052
1.5150,183.4161642,-14.44143294,1237.329165
1.5200,183.4543081,-14.59871196,1237.299074
1.5250,183.4940398,-14.76040412,1237.26809
1.5300,183.5351512,-14.92743344,1237.236117
1.5350,183.5758704,-15.10121958,1237.203192
1.5400,183.6163977,-15.28022871,1237.169522
1.5450,183.656206,-15.46491511,1237.135114
1.5500,183.6943966,-15.65571057,1237.100033
1.5550,183.7315378,-15.85253151,1237.064236
1.5600,183.7672427,-16.05427938,1237.027926
1.5650,183.8025016,-16.26078801,1236.991003
1.5700,183.8350061,-16.47179371,1236.953815
1.5750,183.8670579,-16.68663542,1236.91616
1.5800,183.8980213,-16.90505212,1236.87816
1.5850,183.9290713,-17.12724377,1236.839645
1.5900,183.9595375,-17.35283641,1236.800763
1.5950,183.9904407,-17.58207032,1236.761334
1.6000,184.0211858,-17.81409436,1236.721563
1.6050,184.0522752,-18.04963502,1236.681289
1.6100,184.0831449,-18.28843419,1236.64062
1.6150,184.1148076,-18.53134202,1236.599307
1.6200,184.1474414,-18.77731547,1236.557479
1.6250,184.1807243,-19.02694839,1236.515088
1.6300,184.2143692,-19.27940455,1236.472298
1.6350,184.2483796,-19.53602909,1236.42891
1.6400,184.2829907,-19.79726113,1236.384861
1.6450,184.3191916,-20.06171124,1236.340195
1.6500,184.3573654,-20.32990158,1236.294788
1.6550,184.3971727,-20.60247837,1236.248609
1.6600,184.4387984,-20.87954719,1236.201622
1.6650,184.4829084,-21.16069682,1236.153789
1.6700,184.5308914,-21.4466,1236.104853
1.6750,184.5828865,-21.73672266,1236.054871
1.6800,184.6386741,-22.0330043,1236.003627
1.6850,184.6982061,-22.33488597,1235.951218
1.6900,184.7624658,-22.64366448,1235.89735
1.6950,184.8332345,-22.9576199,1235.842026
1.7000,184.9089902,-23.27886123,1235.785194
1.7050,184.9911526,-23.60601646,1235.726856
1.7100,185.0804264,-23.93911363,1235.666932
1.7150,185.1764947,-24.27668813,1235.605643
1.7200,185.2798523,-24.61911438,1235.5429
1.7250,185.3891945,-24.96575282,1235.478973
1.7300,185.5037123,-25.31641179,1235.413989
1.7350,185.6228431,-25.6712388,1235.348027
1.7400,185.7450406,-26.0289174,1235.281432
1.7450,185.8704106,-26.38893995,1235.21427
1.7500,185.9978283,-26.75026132,1235.146806
1.7550,186.1249897,-27.11122053,1235.0795
1.7600,186.2521351,-27.47259198,1235.012261
1.7650,186.3784114,-27.83302453,1234.945326
1.7700,186.5021264,-28.19117675,1234.879067
1.7750,186.6239517,-28.54618368,1234.81346
1.7800,186.7423925,-28.89769317,1234.748736
1.7850,186.8579945,-29.24437664,1234.684939
1.7900,186.9696902,-29.58742039,1234.622068
1.7950,187.0765359,-29.92465346,1234.56045
1.8000,187.1783246,-30.25601568,1234.5001
1.8050,187.2740479,-30.58055699,1234.44122
1.8100,187.3643472,-30.8979503,1234.383737
1.8150,187.4494,-31.20850945,1234.327593
1.8200,187.5272145,-31.51014216,1234.273223
1.8250,187.5976946,-31.80492086,1234.220421
1.8300,187.6608985,-32.09145713,1234.169281
1.8350,187.7166937,-32.36899567,1234.119881
1.8400,187.7646855,-32.638783,1234.072116
1.8450,187.8047718,-32.90020616,1234.026052
1.8500,187.8363031,-33.15314998,1233.981766
1.8550,187.8595435,-33.3970641,1233.939238
1.8600,187.8730274,-33.6334704,1233.898509
1.8650,187.8767536,-33.86143933,1233.859639
1.8700,187.8712957,-34.0825064,1233.822424
1.8750,187.855264,-34.29677417,1233.787001
1.8800,187.8295168,-34.5043373,1233.753246
1.8850,187.793389,-34.70530567,1233.721218
1.8900,187.7466943,-34.90171288,1233.690764
1.8950,187.6897301,-35.09312652,1233.661892
1.9000,187.6228791,-35.27957649,1233.634549
1.9050,187.5469871,-35.46155725,1233.608581
1.9100,187.4620381,-35.63953413,1233.583952
1.9150,187.3687432,-35.8128983,1233.560635
1.9200,187.2688164,-35.98244235,1233.538347
1.9250,187.1625879,-36.14799372,1233.517067
1.9300,187.0516175,-36.31072575,1233.496496
1.9350,186.9365652,-36.46883143,1233.476707
1.9400,186.8179502,-36.62187577,1233.457662
1.9450,186.6954023,-36.76989237,1233.439395
1.9500,186.5689477,-36.91282266,1233.421905
1.9550,186.4400727,-37.04947987,1233.405107
1.9600,186.3084407,-37.18068043,1233.388949
1.9650,186.1748035,-37.30614719,1233.373386
1.9700,186.0387912,-37.42607613,1233.358421
1.9750,185.9001137,-37.54062727,1233.34409
1.9800,185.7600933,-37.64794646,1233.330352
1.9850,185.618977,-37.74911165,1233.317096
1.9900,185.4766251,-37.84329217,1233.304399
1.9950,185.3324309,-37.93116425,1233.292278
2.0000,185.1876695,-38.01139228,1233.28067
2.0050,185.0417901,-38.08471903,1233.269588
2.0100,184.8966573,-38.1503636,1233.258832
2.0150,184.7527635,-38.20857882,1233.248322
2.0200,184.6104691,-38.25916825,1233.238013
2.0250,184.4712482,-38.30235571,1233.22768
2.0300,184.3365814,-38.33685004,1233.217225
2.0350,184.2064654,-38.3619314,1233.206675
2.0400,184.0822813,-38.37720953,1233.195889
2.0450,183.9637226,-38.38237596,1233.184916
2.0500,183.8520439,-38.3774839,1233.173563
2.0550,183.7493655,-38.36204429,1233.161588
2.0600,183.6549231,-38.33516387,1233.149146
2.0650,183.5684335,-38.29643912,1233.136305
2.0700,183.4902338,-38.24648422,1233.122965
2.0750,183.4214532,-38.18444516,1233.109056
2.0800,183.3613051,-38.11011362,1233.094688
2.0850,183.3094846,-38.02343209,1233.07992
2.0900,183.2647344,-37.92356313,1233.065002
2.0950,183.2269709,-37.81120262,1233.049905
2.1000,183.1965264,-37.68667919,1233.03456
2.1050,183.1717636,-37.55051378,1233.019189
2.1100,183.152444,-37.4027379,1233.003843
2.1150,183.1367385,-37.24444651,1232.988689
2.1200,183.1255093,-37.07565377,1232.973633
2.1250,183.1178942,-36.89683806,1232.958771
2.1300,183.1135179,-36.70902206,1232.944083
2.1350,183.112227,-36.51253331,1232.929571
2.1400,183.1128633,-36.30723184,1232.915441
2.1450,183.1141458,-36.09385627,1232.901823
2.1500,183.1165339,-35.87299508,1232.888625
2.1550,183.1201044,-35.64515769,1232.875835
2.1600,183.1259421,-35.41073571,1232.863283
2.1650,183.1327889,-35.1697759,1232.851186
2.1700,183.1411062,-34.92115623,1232.839567
2.1750,183.152135,-34.66574,1232.828201
2.1800,183.164836,-34.40303179,1232.81733
2.1850,183.1803847,-34.13393959,1232.806712
2.1900,183.1982086,-33.85799602,1232.796485
2.1950,183.2183212,-33.57520416,1232.786673
2.2000,183.2403412,-33.28611624,1232.777316
2.2050,183.263579,-32.99073716,1232.76853
2.2100,183.2890475,-32.68903457,1232.760202
2.2150,183.3147147,-32.3811698,1232.752624
2.2200,183.3404304,-32.0661672,1232.745931
2.2250,183.3655417,-31.745092,1232.74013
2.2300,183.3894246,-31.41750191,1232.735366
2.2350,183.4106276,-31.08509862,1232.731713
2.2400,183.4306559,-30.74784927,1232.728988
2.2450,183.4473974,-30.40651447,1232.72744
2.2500,183.4609231,-30.06220861,1232.726976
2.2550,183.470283,-29.71516813,1232.72771
2.2600,183.4751112,-29.3651327,1232.729772
2.2650,183.4764265,-29.01320579,1232.732889
2.2700,183.4736246,-28.65815976,1232.737306
2.2750,183.4671718,-28.30021057,1232.74293
2.2800,183.4570583,-27.93961307,1232.749778
2.2850,183.4431354,-27.57710795,1232.757765
2.2900,183.4258111,-27.21236516,1232.766881
2.2950,183.4049656,-26.84560756,1232.77714
2.3000,183.381236,-26.47843141,1232.788283
2.3050,183.3538864,-26.11005009,1232.800498
2.3100,183.3219672,-25.74115521,1232.813895
2.3150,183.285716,-25.37136822,1232.82845
2.3200,183.2448437,-25.00073885,1232.844232
2.3250,183.1991061,-24.62889659,1232.861294
2.3300,183.1465295,-24.25651508,1232.87985
2.3350,183.088143,-23.88291468,1232.899849
2.3400,183.0236989,-23.50852522,1232.921257
2.3450,182.9536563,-23.13209112,1232.944171
2.3500,182.8780076,-22.75387529,1232.968608
2.3550,182.79539,-22.37317252,1232.99483
2.3600,182.7052798,-21.98970977,1233.022973
2.3650,182.6077391,-21.60359533,1233.05305
2.3700,182.5037523,-21.21438413,1233.084967
2.3750,182.3910864,-20.82287957,1233.118988
2.3800,182.2696427,-20.42871429,1233.155208
2.3850,182.1400901,-20.03141787,1233.193604
2.3900,182.0023339,-19.631608,1233.234147
2.3950,181.8574138,-19.22741463,1233.276952
2.4000,181.7047304,-18.81955039,1233.322064
2.4050,181.5462827,-18.40703623,1233.369329
2.4100,181.3819632,-17.9891159,1233.4189
2.4150,181.213901,-17.56631728,1233.470444
2.4200,181.0411194,-17.1385224,1233.524138
2.4250,180.8632193,-16.70562579,1233.580097
2.4300,180.6818827,-16.26721112,1233.638161
2.4350,180.4957861,-15.82426042,1233.698453
2.4400,180.3064674,-15.37538558,1233.76093
2.4450,180.1149011,-14.92123247,1233.825412
2.4500,179.9223185,-14.46092653,1233.891856
2.4550,179.7274871,-13.99527745,1233.960355
2.4600,179.5300345,-13.52307262,1234.031174
2.4650,179.3307434,-13.04561779,1234.10403
2.4700,179.1286662,-12.56244785,1234.179189
2.4750,178.9229901,-12.07471992,1234.256661
2.4800,178.7126033,-11.58321582,1234.336508
2.4850,178.4977907,-11.08770653,1234.418792
2.4900,178.2787476,-10.58814877,1234.503542
2.4950,178.0545687,-10.08521769,1234.590815
2.5000,177.8243975,-9.579090047,1234.680743
2.5050,177.5881886,-9.069937569,1234.773367
2.5100,177.3446335,-8.55807556,1234.868847
2.5150,177.0947345,-8.044532438,1234.966896
2.5200,176.8374761,-7.530931133,1235.067438
2.5250,176.57395,-7.01572108,1235.170569
2.5300,176.3033319,-6.500999139,1235.276114
2.5350,176.0271966,-5.985960759,1235.383983
2.5400,175.7444215,-5.47172126,1235.494178
2.5450,175.4557433,-4.95956415,1235.60637
2.5500,175.1601809,-4.448969861,1235.72079
2.5550,174.8578961,-3.940844725,1235.837242
2.5600,174.5490878,-3.435954699,1235.955555
2.5650,174.23282,-2.934669338,1236.075813
2.5700,173.9101196,-2.439635406,1236.197382
2.5750,173.5794623,-1.951233115,1236.32045
2.5800,173.240551,-1.470510891,1236.444872
2.5850,172.8938176,-0.9959896066,1236.570861
2.5900,172.5381862,-0.5277381289,1236.698614
2.5950,172.1729995,-0.06560928613,1236.828259
2.6000,171.7984581,0.3915761753,1236.960029
2.6050,171.4155031,0.8433993194,1237.093706
2.6100,171.0255305,1.291383007,1237.229276
2.6150,170.6276011,1.736962052,1237.367202
2.6200,170.2238298,2.179895307,1237.507066
2.6250,169.8153977,2.62049324,1237.648758
2.6300,169.4020868,3.058914729,1237.792363
2.6350,168.9851558,3.495401486,1237.937688
2.6400,168.56504,3.929636025,1238.084608
2.6450,168.1414156,4.361997203,1238.233228
2.6500,167.7152578,4.792967642,1238.383461
2.6550,167.2872986,5.222310474,1238.535099
2.6600,166.8593933,5.649844204,1238.687734
2.6650,166.4329274,6.075169631,1238.841015
2.6700,166.0076846,6.497603833,1238.994828
2.6750,165.583661,6.917425834,1239.149204
2.6800,165.1611649,7.33477771,1239.304116
2.6850,164.740465,7.748347127,1239.459204
2.6900,164.3227544,8.160159085,1239.614584
2.6950,163.9083283,8.569321381,1239.769966
2.7000,163.4979947,8.976013307,1239.925181
2.7050,163.0921378,9.379520476,1240.079979
2.7100,162.6913964,9.779156219,1240.234102
2.7150,162.2947903,10.17457802,1240.387634
2.7200,161.9012564,10.56472423,1240.540578
2.7250,161.5104618,10.9505109,1240.693151
2.7300,161.1201268,11.33171072,1240.845779
2.7350,160.7322091,11.71059889,1240.998464
2.7400,160.3463888,12.08583958,1241.151013
2.7450,159.9633305,12.45887628,1241.303564
2.7500,159.5823713,12.82877889,1241.456036
2.7550,159.2037314,13.19736345,1241.608755
2.7600,158.8278748,13.56403755,1241.761473
2.7650,158.4558925,13.92876046,1241.913922
2.7700,158.0875962,14.29025046,1242.065809
2.7750,157.7225329,14.64975929,1242.217481
2.7800,157.3613793,15.00664636,1242.368619
2.7850,157.0024329,15.36050028,1242.519472
2.7900,156.6445941,15.71120658,1242.670238
2.7950,156.2884247,16.05892117,1242.820814
2.8000,155.9336717,16.4033484,1242.971221
2.8050,155.5790609,16.74403634,1243.1216
2.8100,155.2251791,17.08159584,1243.271976
2.8150,154.8714013,17.41642417,1243.422573
2.8200,154.51756,17.74862632,1243.573449
2.8250,154.1627328,18.07725369,1243.72458
2.8300,153.8069959,18.40494943,1243.876561
2.8350,153.4485405,18.73063271,1244.029545
2.8400,153.0873278,19.05485767,1244.183698
2.8450,152.7240373,19.37958233,1244.339346
2.8500,152.3591364,19.70461743,1244.496343
2.8550,151.9925502,20.03162977,1244.655142
2.8600,151.6244248,20.36084713,1244.81575
2.8650,151.2551879,20.69338969,1244.978352
2.8700,150.8835765,21.03020995,1245.143483
2.8750,150.5113203,21.37101267,1245.310665
2.8800,150.1374078,21.71415892,1245.479744
2.8850,149.7618717,22.05868501,1245.650525
2.8900,149.3854597,22.4039154,1245.822638
2.8950,149.0083678,22.75056231,1245.99623
2.9000,148.6302312,23.09820608,1246.171235
2.9050,148.2513031,23.44740297,1246.347737
2.9100,147.8703406,23.79625196,1246.525605
2.9150,147.4879455,24.14349682,1246.704363
2.9200,147.103855,24.49135655,1246.884656
2.9250,146.7178372,24.83897645,1247.066326
2.9300,146.3315962,25.18695261,1247.24913
2.9350,145.9429609,25.53336537,1247.433147
2.9400,145.5514877,25.88053503,1247.6191
2.9450,145.1577346,26.22742531,1247.806582
2.9500,144.7619237,26.57454815,1247.995651
2.9550,144.3647329,26.92144056,1248.186042
2.9600,143.9670263,27.26775953,1248.377404
2.9650,143.5666653,27.6141228,1248.57043
2.9700,143.1642775,27.96078763,1248.765055
2.9750,142.7614891,28.30706472,1248.960655
2.9800,142.3583787,28.65256105,1249.157063
2.9850,141.9556344,28.99832103,1249.354378
2.9900,141.5523456,29.34393046,1249.552768
2.9950,141.1489316,29.68749375,1249.751635
3.0000,140.7435584,30.02960255,1249.951673
3.0050,140.3357118,30.36857037,1250.152554
3.0100,139.9243785,30.70589498,1250.354954
3.0150,139.5088068,31.04212141,1250.559244
3.0200,139.0894864,31.37608954,1250.76497
3.0250,138.6667451,31.70773964,1250.972043
3.0300,138.240131,32.03801236,1251.180816
3.0350,137.8099849,32.36638408,1251.391107
3.0400,137.3770438,32.69309172,1251.602788
3.0450,136.9423916,33.01925635,1251.815825
3.0500,136.5069126,33.34557821,1252.030156
3.0550,136.0714609,33.67127065,1252.245319
3.0600,135.6364326,33.99573566,1252.461003
3.0650,135.1999257,34.31879741,1252.677752
3.0700,134.7628693,34.64048788,1252.895321
3.0750,134.3237628,34.95937537,1253.113748
3.0800,133.8822285,35.27704204,1253.333631
3.0850,133.4383403,35.59194318,1253.554519
3.0900,132.9927523,35.90383269,1253.776155
3.0950,132.5435184,36.21318567,1253.999283
3.1000,132.0913036,36.5194029,1254.223514
3.1050,131.634805,36.82146445,1254.448988
3.1100,131.1734336,37.11857391,1254.675686
3.1150,130.7069889,37.4111491,1254.903817
3.1200,130.2364993,37.70105614,1255.133659
3.1250,129.7606322,37.98894402,1255.365873
3.1300,129.2800484,38.27466203,1255.600264
3.1350,128.7944364,38.56030087,1255.837578
3.1400,128.3043012,38.8465807,1256.077915
3.1450,127.809037,39.13321136,1256.321426
3.1500,127.3084547,39.42039916,1256.568272
3.1550,126.8018419,39.7072921,1256.818468
3.1600,126.2907453,39.99522442,1257.071923
3.1650,125.7738721,40.28395179,1257.329004
3.1700,125.2524044,40.5735638,1257.589365
3.1750,124.7282798,40.86379497,1257.852281
3.1800,124.2031599,41.15775356,1258.118138
3.1850,123.6790529,41.45547728,1258.386199
3.1900,123.1571607,41.756096,1258.655813
3.1950,122.6394578,42.05806753,1258.925762
3.2000,122.1260488,42.36079549,1259.19586
3.2050,121.6174746,42.66401649,1259.465792
3.2100,121.1138894,42.96785579,1259.735511
3.2150,120.616077,43.27073184,1260.004232
3.2200,120.1222231,43.57076287,1260.271944
3.2250,119.6317839,43.86785722,1260.538763
3.2300,119.145778,44.16140904,1260.804073
3.2350,118.664432,44.45202072,1261.067955
3.2400,118.1882807,44.73708306,1261.32936
3.2450,117.7164131,45.01728661,1261.588798
3.2500,117.2483577,45.29144779,1261.846047
3.2550,116.7834531,45.56011603,1262.101488
3.2600,116.3201464,45.82472912,1262.35618
3.2650,115.8605855,46.08579366,1262.609499
3.2700,115.4044592,46.34310031,1262.861455
3.2750,114.949989,46.59819395,1263.113207
3.2800,114.4981496,46.85210716,1263.364745
3.2850,114.0474204,47.10484354,1263.616651
3.2900,113.5980881,47.35694344,1263.86902
3.2950,113.1489637,47.61010809,1264.122845
3.3000,112.7002886,47.86491395,1264.378243
3.3050,112.2525376,48.12286703,1264.635519
3.3100,111.8070962,48.38329817,1264.893899
3.3150,111.3648103,48.64672726,1265.153262
3.3200,110.9277468,48.91396825,1265.41308
3.3250,110.4968099,49.18515033,1265.673066
3.3300,110.0732339,49.45933246,1265.932415
3.3350,109.6567004,49.73658783,1266.191227
3.3400,109.2455437,50.01565249,1266.449665
3.3450,108.837909,50.29553499,1266.708152
3.3500,108.4327835,50.57578004,1266.966936
3.3550,108.029288,50.85726368,1267.226662
3.3600,107.6278898,51.14025878,1267.487254
3.3650,107.2275152,51.42538939,1267.74931
3.3700,106.8274998,51.71367855,1268.013508
3.3750,106.4288148,52.00486194,1268.279355
3.3800,106.030707,52.29875032,1268.547072
3.3850,105.6320866,52.59625471,1268.817405
3.3900,105.2324119,52.89671393,1269.090347
3.3950,104.8313573,53.19951697,1269.365838
3.4000,104.4266954,53.50459036,1269.644785
3.4050,104.0184067,53.81263577,1269.927464
3.4100,103.6058733,54.12386348,1270.214189
3.4150,103.188752,54.4387985,1270.505348
3.4200,102.7641135,54.75501802,1270.801304
3.4250,102.333754,55.0738262,1271.101811
3.4300,101.8965487,55.39430224,1271.407002
3.4350,101.4531167,55.71561112,1271.716351
3.4400,101.0032427,56.03686842,1272.02966
3.4450,100.5474062,56.35696617,1272.346289
3.4500,100.0864918,56.6760229,1272.665932
3.4550,99.62156351,56.99309409,1272.98778
3.4600,99.15202121,57.30687889,1273.311615
3.4650,98.67931875,57.61640502,1273.63644
3.4700,98.2032827,57.92043976,1273.961855
3.4750,97.72313292,58.21897655,1274.288195
3.4800,97.2395132,58.50949791,1274.614241
3.4850,96.75112127,58.79134105,1274.940335
3.4900,96.25799593,59.06401832,1275.266255
3.4950,95.75914712,59.32799505,1275.592656
3.5000,95.25636109,59.58336638,1275.918755
3.5050,94.74871688,59.82909095,1276.244546
3.5100,94.23741219,60.06466722,1276.569326
3.5150,93.72270042,60.29058888,1276.893173
3.5200,93.20409582,60.50658771,1277.216187
3.5250,92.68227156,60.71231676,1277.537928
3.5300,92.15535019,60.9076561,1277.859218
3.5350,91.62580279,61.09347962,1278.179287
3.5400,91.09297872,61.27033342,1278.498639
3.5450,90.55785823,61.43762067,1278.816621
3.5500,90.02030064,61.59649927,1279.13374
3.5550,89.48131796,61.74695347,1279.449527
3.5600,88.9417185,61.8898406,1279.763951
3.5650,88.4014141,62.02505013,1280.077032
3.5700,87.86131982,62.15488598,1280.389211
3.5750,87.32249076,62.27944486,1280.700032
3.5800,86.78593561,62.39888633,1281.009055
3.5850,86.25259655,62.51402538,1281.316125
3.5900,85.72368063,62.62461241,1281.620503
3.5950,85.19960584,62.73109895,1281.922127
3.6000,84.68280964,62.83389132,1282.219956
3.6050,84.17309454,62.93292562,1282.514027
3.6100,83.67023749,63.02907572,1282.804782
3.6150,83.17577734,63.12331281,1283.09181
3.6200,82.68958387,63.2169387,1283.375658
3.6250,82.2119022,63.30941654,1283.655928
3.6300,81.74288262,63.40171663,1283.932937
3.6350,81.28231624,63.49408135,1284.206871
3.6400,80.83168089,63.58856898,1284.477752
3.6450,80.39175664,63.685391,1284.745229
3.6500,79.96246467,63.78576572,1285.009793
3.6550,79.54414822,63.8887727,1285.270828
3.6600,79.13521307,63.99512402,1285.529377
3.6650,78.73660914,64.10396659,1285.784598
3.6700,78.34838934,64.21529661,1286.036339
3.6750,77.96959244,64.33049428,1286.285671
3.6800,77.60008761,64.44800153,1286.531962
3.6850,77.24045056,64.56891609,1286.775333
3.6900,76.88928228,64.69297195,1287.016378
3.6950,76.54676155,64.8212011,1287.255366
3.7000,76.21311836,64.95337193,1287.492033
3.7050,75.88794022,65.08934415,1287.726478
3.7100,75.57059308,65.22998347,1287.959405
3.7150,75.26010187,65.37454147,1288.190982
3.7200,74.95681648,65.52492061,1288.421776
3.7250,74.66008329,65.67928517,1288.651327
3.7300,74.36984579,65.83818387,1288.879882
3.7350,74.08619326,66.00114706,1289.107179
3.7400,73.80857218,66.16860741,1289.333678
3.7450,73.53659493,66.34084593,1289.559705
3.7500,73.2705423,66.51707034,1289.784734
3.7550,73.00923165,66.69629278,1290.008984
3.7600,72.75215476,66.87858473,1290.232789
3.7650,72.49887062,67.06237081,1290.455668
3.7700,72.24987392,67.24824407,1290.677622
3.7750,72.00355724,67.43519988,1290.899084
3.7800,71.75862079,67.62237442,1291.120363
3.7850,71.51634633,67.80865373,1291.340279
3.7900,71.27489235,67.99441987,1291.559953
3.7950,71.03480145,68.17870082,1291.77864
3.8000,70.79563118,68.36080877,1291.996263
3.8050,70.55785541,68.54015587,1292.212303
3.8100,70.32011832,68.71476395,1292.426588
3.8150,70.08226945,68.88412501,1292.638982
3.8200,69.8460515,69.04818306,1292.848451
3.8250,69.60942947,69.20653421,1293.055957
3.8300,69.37336735,69.35834376,1293.260581
3.8350,69.13598298,69.50251028,1293.462849
3.8400,68.89806452,69.63890755,1293.662224
3.8450,68.658729,69.76806358,1293.859432
3.8500,68.41821809,69.88847158,1294.053623
3.8550,68.17635702,70.00133514,1294.245416
3.8600,67.93332886,70.10505014,1294.433935
3.8650,67.68863913,70.19972148,1294.619481
3.8700,67.44214113,70.28440981,1294.80173
3.8750,67.19482238,70.36040181,1294.980635
3.8800,66.94580023,70.42643916,1295.156143
3.8850,66.69566786,70.48296552,1295.328148
3.8900,66.44444131,70.53076504,1295.49699
3.8950,66.19304061,70.56981281,1295.662099
3.9000,65.93985168,70.60004182,1295.824399
3.9050,65.68628718,70.62275707,1295.98367
3.9100,65.43204734,70.63662562,1296.139494
3.9150,65.1769056,70.64217047,1296.292206
3.9200,64.92039177,70.63920507,1296.442003
3.9250,64.66323552,70.62902326,1296.58904
3.9300,64.40642969,70.61167083,1296.73275
3.9350,64.15092457,70.58790898,1296.872909
3.9400,63.89785645,70.55781654,1297.008907
3.9450,63.64656878,70.52250462,1297.141605
3.9500,63.39909956,70.48189544,1297.269768
3.9550,63.15494055,70.43705121,1297.394195
3.9600,62.91585556,70.38802637,1297.513881
3.9650,62.68125201,70.33618184,1297.629764
3.9700,62.45195222,70.28115658,1297.741202
3.9750,62.22886527,70.22274486,1297.847553
3.9800,62.01177661,70.16261141,1297.949695
3.9850,61.80076487,70.09974343,1298.047116
3.9900,61.5965732,70.03539668,1298.139894
3.9950,61.39912648,69.96884711,1298.227768
4.0000,61.20865592,69.90155155,1298.311226
4.0050,61.02657604,69.83454799,1298.389869
4.0100,60.85257629,69.76797051,1298.463948
4.0150,60.68688509,69.70133839,1298.533068
4.0200,60.53051482,69.63551251,1298.597011
4.0250,60.38283223,69.57100933,1298.656364
4.0300,60.24358916,69.5074878,1298.711122
4.0350,60.1125771,69.44663097,1298.762171
4.0400,59.99006162,69.38730949,1298.808805
4.0450,59.87624351,69.32891506,1298.850622
4.0500,59.77055848,69.27188777,1298.888188
4.0550,59.67364917,69.21737391,1298.921578
4.0600,59.58463425,69.16389616,1298.950647
4.0650,59.50369104,69.11251023,1298.975776
4.0700,59.43018325,69.06249307,1298.997022
4.0750,59.36390468,69.01342294,1299.014302
4.0800,59.30537414,68.96632246,1299.027775
4.0850,59.25320189,68.92109447,1299.038192
4.0900,59.20859145,68.87684436,1299.044429
4.0950,59.17146746,68.8339957,1299.046735
4.1000,59.14074515,68.79173092,1299.045384
4.1050,59.11710856,68.74982608,1299.039863
4.1100,59.09974016,68.70898155,1299.031028
4.1150,59.08773706,68.66870923,1299.019155
4.1200,59.07994926,68.62752804,1299.004287
4.1250,59.07821417,68.58512351,1298.985136
4.1300,59.08165046,68.54180061,1298.962349
4.1350,59.09082267,68.49652684,1298.935106
4.1400,59.10551687,68.44968186,1298.903727
4.1450,59.12634705,68.40059454,1298.867514
4.1500,59.15430476,68.34993304,1298.826175
4.1550,59.18969367,68.2964006,1298.778941
4.1600,59.23285673,68.24052296,1298.725871
4.1650,59.2848441,68.18312347,1298.666681
4.1700,59.34498982,68.12359967,1298.601537
4.1750,59.41423329,68.06045373,1298.529197
4.1800,59.49344433,67.99596537,1298.450185
4.1850,59.58323705,67.92914918,1298.363675
4.1900,59.68399947,67.8588496,1298.268913
4.1950,59.79485356,67.78525347,1298.166588
4.2000,59.91688609,67.70828756,1298.055948
4.2050,60.05040933,67.62760704,1297.936693
4.2100,60.19546394,67.54363091,1297.809003
4.2150,60.35365982,67.45578188,1297.671682
4.2200,60.52537749,67.36477976,1297.524851
4.2250,60.70988065,67.2688917,1297.368228
4.2300,60.90755847,67.1687199,1297.201861
4.2350,61.11834562,67.06386386,1297.025685
4.2400,61.34154438,66.95396796,1296.839972
4.2450,61.5776544,66.83793613,1296.643972
4.2500,61.82623437,66.71639596,1296.438321
4.2550,62.08714732,66.58830625,1296.222675
4.2600,62.35882699,66.45408809,1295.9982
4.2650,62.64286274,66.31363998,1295.763964
4.2700,62.9381646,66.16662881,1295.520526
4.2750,63.244644,66.01436929,1295.268572
4.2800,63.56258751,65.85645677,1295.007838
4.2850,63.89168035,65.69410118,1294.73909
4.2900,64.23146188,65.52741051,1294.462761
4.2950,64.58226142,65.35719748,1294.179067
4.3000,64.94382909,65.18277305,1293.88792
4.3050,65.31437321,65.00494214,1293.590803
4.3100,65.69344761,64.82247983,1293.287481
4.3150,66.08115371,64.63754337,1292.978876
4.3200,66.47530033,64.44807064,1292.665431
4.3250,66.8760678,64.25558749,1292.34778
4.3300,67.28159069,64.06000661,1292.026987
4.3350,67.69202312,63.86099193,1291.702829
4.3400,68.10521496,63.65952661,1291.377015
4.3450,68.52063606,63.45629929,1291.05015
4.3500,68.93869603,63.2516933,1290.722196
4.3550,69.35900525,63.04589392,1290.393494
4.3600,69.78069455,62.83838467,1290.064339
4.3650,70.20224112,62.62899465,1289.735529
4.3700,70.62304534,62.419165,1289.407989
4.3750,71.0432031,62.20836188,1289.08145
4.3800,71.46137492,61.99658287,1288.756613
4.3850,71.87744008,61.7840326,1288.433676
4.3900,72.28961807,61.57154506,1288.113948
4.3950,72.6969329,61.35862582,1287.797733
4.4000,73.0980915,61.14618872,1287.486108
4.4050,73.4919825,60.93349031,1287.179321
4.4100,73.87921513,60.72191109,1286.877524
4.4150,74.25865677,60.51184357,1286.581485
4.4200,74.63065285,60.30375817,1286.291172
4.4250,74.99449988,60.09767123,1286.006949
4.4300,75.34899625,59.89291763,1285.729113
4.4350,75.6936209,59.69053511,1285.458313
4.4400,76.02749548,59.48957264,1285.194575
4.4450,76.3505508,59.28950054,1284.937639
4.4500,76.66140398,59.09061413,1284.688329
4.4550,76.95934595,58.89132961,1284.446327
4.4600,77.24460205,58.69279381,1284.211891
4.4650,77.51686442,58.4932182,1283.984416
4.4700,77.77740767,58.29313761,1283.763408
4.4750,78.02697146,58.09353821,1283.54887
4.4800,78.26524229,57.89280096,1283.340284
4.4850,78.49211247,57.69109433,1283.137756
4.4900,78.70913652,57.48871299,1282.940577
4.4950,78.91855204,57.2861264,1282.747764
4.5000,79.12122621,57.08338694,1282.558881
4.5050,79.31772841,56.88042674,1282.373588
4.5100,79.50969361,56.67745094,1282.191127
4.5150,79.69653752,56.47439703,1282.01175
4.5200,79.87899609,56.27008532,1281.834619
4.5250,80.05715382,56.06587661,1281.660205
4.5300,80.23273805,55.86151925,1281.48751
4.5350,80.40466114,55.65714677,1281.317096
4.5400,80.57504176,55.45274963,1281.147903
4.5450,80.74460217,55.24847816,1280.979619
4.5500,80.91265877,55.04405597,1280.812417
4.5550,81.08131993,54.84023438,1280.645538
4.5600,81.25116997,54.63736875,1280.478835
4.5650,81.42234032,54.43446071,1280.311828
4.5700,81.5949529,54.23256561,1280.144891
4.5750,81.76906252,54.03003831,1279.977369
4.5800,81.94482163,53.82696651,1279.809209
4.5850,82.12170591,53.62201071,1279.64019
4.5900,82.30034557,53.41537802,1279.470036
4.5950,82.48036388,53.20651057,1279.298743
4.6000,82.66152961,52.99607073,1279.126676
4.6050,82.84508156,52.78197054,1278.952455
4.6100,83.03115279,52.56568327,1278.77655
4.6150,83.22072414,52.34687847,1278.598396
4.6200,83.41396995,52.12571636,1278.417977
4.6250,83.61101579,51.90214983,1278.235223
4.6300,83.8139122,51.67714287,1278.049542
4.6350,84.02156247,51.45070635,1277.861534
4.6400,84.23509638,51.22222479,1277.670419
4.6450,84.45535823,50.99242467,1277.476114
4.6500,84.68008715,50.76070698,1277.279506
4.6550,84.90944111,50.52696607,1277.080491
4.6600,85.14278084,50.29153074,1276.879499
4.6650,85.38170059,50.05562226,1276.676192
4.6700,85.62501301,49.81772444,1276.470603
4.6750,85.87235518,49.57774091,1276.262884
4.6800,86.12362635,49.33535985,1276.053002
4.6850,86.37801804,49.09103203,1275.84148
4.6900,86.63623502,48.84428941,1275.627868
4.6950,86.89706893,48.59474199,1275.412623
4.7000,87.16109435,48.34216353,1275.195406
4.7050,87.42747057,48.08775883,1274.977065
4.7100,87.6959431,47.83128843,1274.757672
4.7150,87.96749575,47.57287415,1274.536826
4.7200,88.24171339,47.31299291,1274.314918
4.7250,88.51752842,47.05166542,1274.092431
4.7300,88.79604435,46.78850756,1273.868769
4.7350,89.07714948,46.52388725,1273.644118
4.7400,89.36158538,46.25740891,1273.417999
4.7450,89.64834414,45.98818427,1273.190635
4.7500,89.93796755,45.71612336,1272.961685
4.7550,90.22907026,45.44187668,1272.732052
4.7600,90.52194989,45.16375151,1272.501012
4.7650,90.81627703,44.88276847,1272.269108
4.7700,91.11131572,44.59818,1272.036416
4.7750,91.40740959,44.31079347,1271.803071
4.7800,91.7058405,44.0208456,1271.568581
4.7850,92.00691235,43.72941585,1271.333195
4.7900,92.31101101,43.43628423,1271.09672
4.7950,92.61723779,43.14121232,1270.859465
4.8000,92.92647725,42.8444218,1270.621156
4.8050,93.2378649,42.54561048,1270.382108
4.8100,93.55062161,42.24521589,1270.142824
4.8150,93.86553777,41.94405947,1269.903228
4.8200,94.18211771,41.64232115,1269.663609
4.8250,94.50231931,41.34071461,1269.423333
4.8300,94.82514376,41.03991651,1269.183084
4.8350,95.15253521,40.74024439,1268.9421
4.8400,95.48350841,40.44269375,1268.70117
4.8450,95.81842504,40.14785425,1268.460344
4.8500,96.15762099,39.85439106,1268.219061
4.8550,96.50027506,39.56304214,1267.977938
4.8600,96.84698816,39.27292843,1267.73644
4.8650,97.1971012,38.98556118,1267.495371
4.8700,97.55021936,38.70036571,1267.254698
4.8750,97.90628685,38.41791873,1267.014625
4.8800,98.26591919,38.13897371,1266.775121
4.8850,98.62946927,37.86306594,1266.535882
4.8900,98.99646212,37.59008299,1266.297085
4.8950,99.36687484,37.31957461,1266.058567
4.9000,99.74101257,37.05123971,1265.820144
4.9050,100.1172271,36.78493526,1265.582466
4.9100,100.4962569,36.52105786,1265.345372
4.9150,100.8759557,36.2585434,1265.109424
4.9200,101.257114,35.99791614,1264.874469
4.9250,101.6389355,35.73932538,1264.640884
4.9300,102.0211615,35.48165479,1264.408435
4.9350,102.4037079,35.22453751,1264.177008
4.9400,102.7870376,34.96909079,1263.946758
4.9450,103.1694404,34.71435952,1263.718093
4.9500,103.5522537,34.46054944,1263.490512
4.9550,103.9339704,34.20654581,1263.264291
4.9600,104.3155528,33.9526143,1263.039117
4.9650,104.6956373,33.6981353,1262.815378
4.9700,105.0748921,33.44236211,1262.592551
4.9750,105.4530725,33.18576389,1262.370884
4.9800,105.8299514,32.9279405,1262.150331
4.9850,106.20517,32.66844334,1261.930867
4.9900,106.5784251,32.40767107,1261.712728
4.9950,106.9507379,32.1446203,1261.495201
5.0000,107.3219176,31.88012016,1261.278593
5.0050,107.6921527,31.6134959,1261.062628
5.0100,108.0610279,31.34415796,1260.847297
5.0150,108.4280749,31.07181074,1260.632684
5.0200,108.7932458,30.79683497,1260.418901
5.0250,109.1569679,30.51942885,1260.205837
5.0300,109.5195436,30.2393619,1259.993273
5.0350,109.880718,29.95643588,1259.781295
5.0400,110.2394555,29.67079108,1259.570342
5.0450,110.5962749,29.38382875,1259.36058
5.0500,110.9511776,29.09539565,1259.152007
5.0550,111.3053623,28.80601637,1258.944308
5.0600,111.6591307,28.51719051,1258.737828
5.0650,112.0146687,28.22904811,1258.531794
5.0700,112.3723751,27.94254048,1258.326342
5.0750,112.7325935,27.65718929,1258.121219
5.0800,113.0951295,27.37351941,1257.916642
5.0850,113.4607602,27.09175465,1257.712384
5.0900,113.8302647,26.81166384,1257.508077
5.0950,114.203691,26.53363703,1257.303839
5.1000,114.5806711,26.25702711,1257.099605
5.1050,114.962167,25.98139481,1256.894921
5.1100,115.3485479,25.70677381,1256.689685
5.1150,115.7393351,25.43194114,1256.483749
5.1200,116.1352194,25.15733934,1256.276998
5.1250,116.5353132,24.8821751,1256.069551
5.1300,116.9394865,24.60602031,1255.861366
5.1350,117.3472223,24.3292265,1255.652762
5.1400,117.7585111,24.05107072,1255.443521
5.1450,118.1743799,23.77228613,1255.233503
5.1500,118.594844,23.49412927,1255.023053
5.1550,119.0196475,23.21626154,1254.812164
5.1600,119.4476052,22.93937464,1254.601438
5.1650,119.8786284,22.66155158,1254.390407
5.1700,120.3125362,22.38276896,1254.17914
5.1750,120.7498726,22.10216184,1253.967249
5.1800,121.1895379,21.81861855,1253.754835
5.1850,121.6319307,21.53261691,1253.541885
5.1900,122.0752045,21.24301584,1253.328765
5.1950,122.5190073,20.94921598,1253.115465
5.2000,122.9619665,20.65114995,1252.902425
5.2050,123.4056015,20.35021474,1252.689485
5.2100,123.8482917,20.04572659,1252.477033
5.2150,124.2915875,19.73708768,1252.264399
5.2200,124.7350171,19.42416623,1252.051731
5.2250,125.1783191,19.10632565,1251.838972
5.2300,125.6210629,18.78319873,1251.626166
5.2350,126.0621157,18.45489417,1251.413773
5.2400,126.5010434,18.12006226,1251.201587
5.2450,126.9382003,17.77876721,1250.989533
5.2500,127.3718936,17.43040064,1250.778007
5.2550,127.8021777,17.07525422,1250.567059
5.2600,128.2289364,16.71340279,1250.356753
5.2650,128.6510782,16.34308151,1250.146996
5.2700,129.0671533,15.96389835,1249.938158
5.2750,129.4770265,15.57677247,1249.730448
5.2800,129.8806129,15.18037418,1249.523592
5.2850,130.2779696,14.77548988,1249.317812
5.2900,130.6700231,14.36092685,1249.112486
5.2950,131.055206,13.93756082,1248.908343
5.3000,131.4340792,13.50466288,1248.705061
5.3050,131.8073736,13.06268103,1248.502554
5.3100,132.1746084,12.61226343,1248.301179
5.3150,132.5367587,12.15485252,1248.10098
5.3200,132.8939052,11.69140605,1247.902208
5.3250,133.2468909,11.22334479,1247.704946
5.3300,133.5956911,10.75338621,1247.509862
5.3350,133.9412538,10.28268743,1247.316891
5.3400,134.2846992,9.813632471,1247.126228
5.3450,134.6271476,9.347645342,1246.937846
5.3500,134.9691808,8.886938547,1246.752021
5.3550,135.31333,8.43409429,1246.568539
5.3600,135.6592616,7.99040572,1246.387753
5.3650,136.0072866,7.557555378,1246.20986
5.3700,136.3585655,7.138183821,1246.035021
5.3750,136.7125847,6.732996836,1245.863472
5.3800,137.0707751,6.34296216,1245.694946
5.3850,137.4335113,5.968322849,1245.529344
5.3900,137.7998818,5.610522122,1245.367179
5.3950,138.1706702,5.268584394,1245.207973
5.4000,138.5454189,4.942791874,1245.051884
5.4050,138.9225371,4.633096906,1244.899305
5.4100,139.3031595,4.338913865,1244.74974
5.4150,139.6853879,4.059162831,1244.603467
5.4200,140.0693163,3.792817229,1244.46022
5.4250,140.454255,3.539752442,1244.320124
5.4300,140.8385699,3.298625536,1244.183351
5.4350,141.2218772,3.066758383,1244.049423
5.4400,141.6035989,2.843998331,1243.918459
5.4450,141.9823954,2.628509338,1243.790446
5.4500,142.3580028,2.419354583,1243.665261
5.4550,142.7301195,2.215364755,1243.542745
5.4600,143.1003674,2.014842072,1243.422103
5.4650,143.4675878,1.818185435,1243.303711
5.4700,143.8335825,1.625221541,1243.187046
5.4750,144.1964377,1.435754966,1243.072558
5.4800,144.5575566,1.24913836,1242.959728
5.4850,144.9152759,1.064822973,1242.848883
5.4900,145.2712533,0.8831804411,1242.739622
5.4950,145.6257593,0.7035153925,1242.63173
5.5000,145.979066,0.5251961355,1242.525003
5.5050,146.3315214,0.3477127323,1242.419249
5.5100,146.6833353,0.1694901751,1242.314119
5.5150,147.0339603,-0.009605994472,1242.209695
5.5200,147.3839725,-0.1900203018,1242.10572
5.5250,147.7334086,-0.3731399796,1242.001911
5.5300,148.0826525,-0.5591592568,1241.898129
5.5350,148.4306683,-0.749445638,1241.794352
5.5400,148.7772932,-0.943700856,1241.690698
5.5450,149.1208479,-1.143169737,1241.587322
5.5500,149.4620139,-1.348646068,1241.483942
5.5550,149.7995423,-1.560660952,1241.380805
5.5600,150.1337019,-1.778978959,1241.277849
5.5650,150.4632983,-2.003466713,1241.175413
5.5700,150.7892822,-2.2332167,1241.073438
5.5750,151.1110046,-2.469898742,1240.971792
5.5800,151.427984,-2.711677753,1240.870941
5.5850,151.7399363,-2.958672471,1240.77091
5.5900,152.0464822,-3.20935021,1240.672085
5.5950,152.3492621,-3.463485073,1240.574098
5.6000,152.6491392,-3.720418041,1240.476837
5.6050,152.9455223,-3.978611157,1240.380695
5.6100,153.2393137,-4.237813623,1240.285471
5.6150,153.5302642,-4.49788707,1240.191263
5.6200,153.8188349,-4.7585352,1240.097999
5.6250,154.104143,-5.019201522,1240.005973
5.6300,154.3870913,-5.279374426,1239.915046
5.6350,154.6670762,-5.538061753,1239.82551
5.6400,154.9445074,-5.794658489,1239.737362
5.6450,155.2177423,-6.048467664,1239.65107
5.6500,155.4866577,-6.299682935,1239.566655
5.6550,155.7501116,-6.548017065,1239.484416
5.6600,156.0090171,-6.793636632,1239.40405
5.6650,156.2635045,-7.035628817,1239.325703
5.6700,156.5140729,-7.274264552,1239.249181
5.6750,156.7604651,-7.509336162,1239.174578
5.6800,157.0021375,-7.739821466,1239.102172
5.6850,157.2384271,-7.965168604,1239.032155
5.6900,157.4687461,-8.185504326,1238.9646
5.6950,157.6927863,-8.399489682,1238.899783
5.7000,157.9103708,-8.608174755,1238.837546
5.7050,158.1220935,-8.810801332,1238.777839
5.7100,158.3259086,-9.008813656,1238.720869
5.7150,158.5225309,-9.20087224,1238.666674
5.7200,158.7118793,-9.388277911,1238.615052
5.7250,158.8949371,-9.571717793,1238.56568
5.7300,159.0721916,-9.751528765,1238.51838
5.7350,159.2432548,-9.927496595,1238.473268
5.7400,159.4078519,-10.09999093,1238.430355
5.7450,159.5664661,-10.26915089,1238.389498
5.7500,159.718245,-10.43528448,1238.350809
5.7550,159.8643878,-10.59829101,1238.314068
5.7600,160.0035011,-10.75699873,1238.279752
5.7650,160.1369886,-10.91126005,1238.247564
5.7700,160.2656676,-11.06195387,1238.217192
5.7750,160.3900243,-11.20847786,1238.188586
5.7800,160.5093738,-11.35085495,1238.16188
5.7850,160.6255656,-11.4882775,1238.136791
5.7900,160.7391971,-11.62201037,1238.112983
5.7950,160.8505731,-11.75135657,1238.090469
5.8000,160.9615173,-11.87642013,1238.068828
5.8050,161.071668,-11.99797836,1238.048011
5.8100,161.1827243,-12.11516632,1238.027785
5.8150,161.2948956,-12.22726652,1238.008244
5.8200,161.4083546,-12.33460914,1237.989272
5.8250,161.5234871,-12.43651034,1237.970905
5.8300,161.6386046,-12.53418875,1237.953314
5.8350,161.7553419,-12.62599767,1237.93642
5.8400,161.8734252,-12.71309976,1237.920092
5.8450,161.9947077,-12.79586448,1237.903883
5.8500,162.1187957,-12.87509311,1237.887758
5.8550,162.2465009,-12.95099641,1237.871484
5.8600,162.3766972,-13.02442274,1237.855205
5.8650,162.5107333,-13.09594388,1237.83852
5.8700,162.6482637,-13.16624211,1237.821405
5.8750,162.7899292,-13.23444096,1237.803846
5.8800,162.9360981,-13.30067465,1237.785724
5.8850,163.086994,-13.36594547,1237.766847
5.8900,163.2430468,-13.43076548,1237.747051
5.8950,163.4033008,-13.49486313,1237.726567
5.9000,163.5672347,-13.55879308,1237.705441
5.9050,163.7354254,-13.62219323,1237.6836
5.9100,163.9071751,-13.68530637,1237.661164
5.9150,164.0828591,-13.74894117,1237.637883
5.9200,164.2625148,-13.81288172,1237.613783
5.9250,164.4463067,-13.87898505,1237.588558
5.9300,164.6333361,-13.94720382,1237.562363
5.9350,164.8242349,-14.01834987,1237.534982
5.9400,165.0178781,-14.09295838,1237.50654
5.9450,165.2161706,-14.17058201,1237.476751
5.9500,165.4187862,-14.25213062,1237.445529
5.9550,165.6262228,-14.3364075,1237.412967
5.9600,165.8370726,-14.42277992,1237.379477
5.9650,166.0506033,-14.51272949,1237.344976
5.9700,166.2650891,-14.60520222,1237.309985
5.9750,166.4804319,-14.70101976,1237.274391
5.9800,166.6947973,-14.80061446,1237.238485
5.9850,166.9085408,-14.90475726,1237.202113
5.9900,167.1192597,-15.01443111,1237.165591
5.9950,167.3257856,-15.13104753,1237.128926
6.0000,167.5268352,-15.25396413,1237.092451
6.0050,167.7206421,-15.38398412,1237.056386
6.0100,167.9058574,-15.51994715,1237.021132
6.0150,168.0819616,-15.66242004,1236.986717
6.0200,168.2466793,-15.81062166,1236.953665
6.0250,168.3999572,-15.96450325,1236.921992
6.0300,168.5411384,-16.12392325,1236.891821
6.0350,168.6692397,-16.28774853,1236.863505
6.0400,168.7839747,-16.45569422,1236.837116
6.0450,168.8831115,-16.62706588,1236.813174
6.0500,168.9677658,-16.80069856,1236.791631
6.0550,169.0375189,-16.97605117,1236.772609
6.0600,169.0928538,-17.15376681,1236.755928
6.0650,169.1328805,-17.3326347,1236.741939
6.0700,169.1569426,-17.51179192,1236.730862
6.0750,169.1651838,-17.69072121,1236.72275
6.0800,169.1596583,-17.8675805,1236.717476
6.0850,169.1411039,-18.04224267,1236.71492
6.0900,169.1099254,-18.21264378,1236.715282
6.0950,169.0679501,-18.37712275,1236.718462
6.1000,169.0155685,-18.53522056,1236.724455
6.1050,168.9536402,-18.68469398,1236.733383
6.1100,168.8829286,-18.82526903,1236.745146
6.1150,168.8051344,-18.95579469,1236.759583
6.1200,168.7213965,-19.07573337,1236.776586
6.1250,168.6322607,-19.1847192,1236.796093
6.1300,168.5395072,-19.2814032,1236.817951
6.1350,168.4449088,-19.36742367,1236.841603
6.1400,168.3480523,-19.44165487,1236.867298
6.1450,168.2495038,-19.50450164,1236.894875
6.1500,168.1488828,-19.55542695,1236.924482
6.1550,168.047398,-19.59481422,1236.955859
6.1600,167.9453537,-19.6238088,1236.988773
6.1650,167.8433503,-19.64146382,1237.023247
6.1700,167.7427539,-19.64746625,1237.059066
6.1750,167.6436839,-19.6430891,1237.096049
6.1800,167.5474915,-19.62955117,1237.133781
6.1850,167.4563054,-19.60614752,1237.171939
6.1900,167.3700261,-19.57337207,1237.210473
6.1950,167.2905924,-19.53160257,1237.248974
6.2000,167.217441,-19.48044348,1237.287592
6.2050,167.1519056,-19.42082976,1237.325954
6.2100,167.0958358,-19.35364409,1237.363568
6.2150,167.0492188,-19.27779292,1237.400605
6.2200,167.0131639,-19.19425733,1237.436696
6.2250,166.9877811,-19.10186125,1237.471998
6.2300,166.9727439,-19.00248577,1237.506327
6.2350,166.9687481,-18.89640118,1237.539509
6.2400,166.9757179,-18.78347872,1237.57156
6.2450,166.9936234,-18.6655543,1237.602258
6.2500,167.0213813,-18.54407515,1237.631599
6.2550,167.0582248,-18.42097233,1237.659478
6.2600,167.1043781,-18.29816979,1237.685592
6.2650,167.1583917,-18.17576184,1237.710203
6.2700,167.2206605,-18.05620611,1237.732892
6.2750,167.2895275,-17.93914566,1237.754009
6.2800,167.365163,-17.82608007,1237.773326
6.2850,167.4451033,-17.71622597,1237.791407
6.2900,167.5296696,-17.61050617,1237.808084
6.2950,167.619397,-17.50871457,1237.823273
6.3000,167.7143915,-17.41016445,1237.837029
6.3050,167.8149467,-17.31565187,1237.849215
6.3100,167.9215327,-17.22577152,1237.859639
6.3150,168.0325731,-17.14138607,1237.868465
6.3200,168.1473907,-17.06217153,1237.875874
6.3250,168.2646199,-16.98927487,1237.881942
6.3300,168.3832926,-16.92284252,1237.886825
6.3350,168.5034042,-16.86345007,1237.890437
6.3400,168.6235932,-16.81172891,1237.892939
6.3450,168.7442486,-16.76769089,1237.894266
6.3500,168.863172,-16.73221712,1237.894688
6.3550,168.9799134,-16.7059818,1237.894184
6.3600,169.0937657,-16.68881531,1237.892912
6.3650,169.2040943,-16.68057563,1237.890993
6.3700,169.3100679,-16.68205185,1237.888456
6.3750,169.4128688,-16.69342272,1237.885058
6.3800,169.5116354,-16.71446491,1237.880977
6.3850,169.605845,-16.74623743,1237.876153
6.3900,169.6966839,-16.78708282,1237.870605
6.3950,169.7830836,-16.83835112,1237.864315
6.4000,169.8675244,-16.89801089,1237.857117
6.4050,169.9503899,-16.96687742,1237.848853
6.4100,170.0320141,-17.04377135,1237.839601
6.4150,170.1127783,-17.12879837,1237.829267
6.4200,170.1928985,-17.22008667,1237.818072
6.4250,170.2733724,-17.31772057,1237.805818
6.4300,170.3545344,-17.41976067,1237.792733
6.4350,170.4363941,-17.52544586,1237.778923
6.4400,170.5195085,-17.63413259,1237.764378
6.4450,170.60282,-17.74537117,1237.749358
6.4500,170.6870593,-17.85877422,1237.733767
6.4550,170.7715737,-17.97410915,1237.717761
6.4600,170.8562209,-18.090205,1237.701557
6.4650,170.9399516,-18.20814275,1237.685202
6.4700,171.0221395,-18.32738784,1237.668881
6.4750,171.1025428,-18.44694508,1237.65279
6.4800,171.1813043,-18.56638478,1237.636954
6.4850,171.2559622,-18.68628372,1237.621749
6.4900,171.3257016,-18.80582581,1237.607429
6.4950,171.3906761,-18.92546483,1237.593898
6.5000,171.4493495,-19.0453229,1237.581417
6.5050,171.5013823,-19.16491449,1237.570104
6.5100,171.5461017,-19.28382411,1237.560133
6.5150,171.5846016,-19.40400203,1237.551043
6.5200,171.6156906,-19.52493456,1237.543113
6.5250,171.6405254,-19.64615076,1237.53618
6.5300,171.6601823,-19.76714659,1237.530123
6.5350,171.6738777,-19.88852647,1237.524998
6.5400,171.6832868,-20.01021197,1237.520542
6.5450,171.6886163,-20.1314045,1237.5168
6.5500,171.6915472,-20.25057024,1237.513692
6.5550,171.6913631,-20.36787249,1237.511296
6.5600,171.6878793,-20.48247648,1237.509753
6.5650,171.6821358,-20.59391248,1237.508931
6.5700,171.6746382,-20.70177606,1237.508798
6.5750,171.6664036,-20.8070965,1237.50905
6.5800,171.6570722,-20.90947299,1237.509796
6.5850,171.6479922,-21.00987301,1237.510668
6.5900,171.6389767,-21.10682244,1237.511876
6.5950,171.6301958,-21.20123986,1237.513294
6.6000,171.6205381,-21.29410021,1237.514988
6.6050,171.6095548,-21.38478345,1237.517096
6.6100,171.5976895,-21.47262088,1237.519636
6.6150,171.5849535,-21.55796009,1237.522555
6.6200,171.5725971,-21.64099993,1237.52561
6.6250,171.5606012,-21.72119554,1237.528886
6.6300,171.5490375,-21.79839661,1237.532385
6.6350,171.5381606,-21.87307107,1237.536009
6.6400,171.52824,-21.94415498,1237.539843
6.6450,171.519435,-22.01220047,1237.543779
6.6500,171.5135819,-22.07669169,1237.547572
6.6550,171.5112141,-22.13818214,1237.551063
6.6600,171.511663,-22.19578044,1237.554463
6.6650,171.5153154,-22.25095724,1237.557521
6.6700,171.522309,-22.30284416,1237.560335
6.6750,171.5331119,-22.35138874,1237.562818
6.6800,171.5477938,-22.39758993,1237.564829
6.6850,171.5666209,-22.43989881,1237.566514
6.6900,171.5887418,-22.48029207,1237.567769
6.6950,171.6149186,-22.51711922,1237.568669
6.7000,171.6451568,-22.55225203,1237.568994
6.7050,171.678903,-22.58372844,1237.56906
6.7100,171.716591,-22.61241714,1237.568696
6.7150,171.7578621,-22.63878418,1237.567915
6.7200,171.8036281,-22.6622859,1237.566616
6.7250,171.8520012,-22.6834845,1237.565075
6.7300,171.9041857,-22.7033958,1237.562958
6.7350,171.9592435,-22.72163874,1237.560479
6.7400,172.0181375,-22.73879292,1237.557398
6.7450,172.0814325,-22.75403933,1237.553734
6.7500,172.1488529,-22.76758865,1237.549508
6.7550,172.2203819,-22.77963845,1237.544717
6.7600,172.2976235,-22.79042477,1237.53904
6.7650,172.380209,-22.80020308,1237.532515
6.7700,172.4670312,-22.80926333,1237.525298
6.7750,172.5591914,-22.81830913,1237.517122
6.7800,172.6555108,-22.82802431,1237.508116
6.7850,172.7560993,-22.83865137,1237.498221
6.7900,172.8612933,-22.85080848,1237.487328
6.7950,172.9699055,-22.86377585,1237.475713
6.8000,173.0834625,-22.87815714,1237.46304
6.8050,173.2011379,-22.89564716,1237.449253
6.8100,173.3240557,-22.91536148,1237.434277
6.8150,173.4503636,-22.93754166,1237.418397
6.8200,173.5809402,-22.96235076,1237.401455
6.8250,173.7148273,-22.9904393,1237.383522
6.8300,173.8519036,-23.02143559,1237.36468
6.8350,173.9929639,-23.05440575,1237.344905
6.8400,174.1368367,-23.08994765,1237.324326
6.8450,174.2838151,-23.12850002,1237.30285
6.8500,174.4331769,-23.16962143,1237.280652
6.8550,174.5851544,-23.21428681,1237.25758
6.8600,174.7403709,-23.26233585,1237.233562
6.8650,174.8977885,-23.31371899,1237.208784
6.8700,175.0561079,-23.36977076,1237.183298
6.8750,175.2136946,-23.42942773,1237.157497
6.8800,175.3716823,-23.49294586,1237.131173
6.8850,175.5274402,-23.56126376,1237.10464
6.8900,175.6820107,-23.63369512,1237.077802
6.8950,175.8321117,-23.71025322,1237.051171
6.9000,175.9784333,-23.79079303,1237.024667
6.9050,176.1205444,-23.87527464,1236.998353
6.9100,176.2581736,-23.96413079,1236.97222
6.9150,176.3919473,-24.05632298,1236.94631
6.9200,176.5210454,-24.15235958,1236.920677
6.9250,176.6443901,-24.25085158,1236.895656
6.9300,176.7630874,-24.35182426,1236.871071
6.9350,176.875823,-24.45439252,1236.84723
6.9400,176.9830353,-24.56023705,1236.823862
6.9450,177.0835403,-24.66860765,1236.801236
6.9500,177.1760869,-24.78021619,1236.779453
6.9550,177.2588928,-24.89438706,1236.758871
6.9600,177.331963,-25.01237686,1236.73934
6.9650,177.3954549,-25.1339577,1236.72086
6.9700,177.4495858,-25.25936755,1236.703348
6.9750,177.4932398,-25.38847649,1236.687007
6.9800,177.5245962,-25.52159941,1236.672079
6.9850,177.5446468,-25.65895427,1236.658392
6.9900,177.5534697,-25.79930278,1236.646067
6.9950,177.5509707,-25.94335791,1236.635051
7.0000,177.5355731,-26.09075802,1236.625613
7.0050,177.5085353,-26.24292544,1236.617405
7.0100,177.4696252,-26.39823436,1236.610651
7.0150,177.4192106,-26.55647875,1236.605325
7.0200,177.3565848,-26.717276,1236.601585
7.0250,177.2833363,-26.87963731,1236.599287
7.0300,177.1995594,-27.04247107,1236.598539
7.0350,177.1052378,-27.20466785,1236.59946
7.0400,177.000842,-27.36598071,1236.60201
7.0450,176.8866002,-27.52617357,1236.606174
7.0500,176.7633452,-27.6844737,1236.611909
7.0550,176.6321364,-27.83969378,1236.619174
7.0600,176.4911585,-27.99071693,1236.628376
7.0650,176.3417325,-28.13740913,1236.639331
7.0700,176.1856406,-28.27919921,1236.65182
7.0750,176.0212997,-28.41469667,1236.666239
7.0800,175.850102,-28.54350203,1236.682407
7.0850,175.6733556,-28.66481755,1236.700211
7.0900,175.4927676,-28.77884435,1236.719343
7.0950,175.3098239,-28.88535257,1236.739602
7.1000,175.1267432,-28.98415329,1236.760656
7.1050,174.9453478,-29.0741066,1236.78232
7.1100,174.7669944,-29.15609115,1236.804271
7.1150,174.5947225,-29.2289784,1236.826121
7.1200,174.4300655,-29.29327749,1236.847561
7.1250,174.2753879,-29.34946419,1236.868144
7.1300,174.1327227,-29.397598,1236.887516
7.1350,174.0030103,-29.43826714,1236.905436
7.1400,173.8887247,-29.47164714,1236.921465
7.1450,173.7889712,-29.49850873,1236.935664
7.1500,173.7052272,-29.5190621,1236.947753
7.1550,173.6383284,-29.5325864,1236.95767
7.1600,173.5867385,-29.5389463,1236.965662
7.1650,173.5512619,-29.53939008,1236.971467
7.1700,173.5314241,-29.53279108,1236.975285
7.1750,173.527002,-29.51987595,1236.977079
7.1800,173.5353607,-29.5005203,1236.977303
7.1850,173.5561072,-29.47393987,1236.976115
7.1900,173.5863759,-29.44185185,1236.973836
7.1950,173.6256417,-29.40345351,1236.970644
7.2000,173.6714082,-29.35946562,1236.966884
7.2050,173.7206098,-29.309555,1236.963112
7.2100,173.7719196,-29.25488431,1236.959447
7.2150,173.8235864,-29.19566978,1236.956151
7.2200,173.8736078,-29.13267719,1236.953487
7.2250,173.9199039,-29.06666554,1236.951724
7.2300,173.9614786,-28.99894005,1236.950896
7.2350,173.9978459,-28.92987018,1236.951039
7.2400,174.0276177,-28.86022825,1236.952316
7.2450,174.0522196,-28.79036639,1236.954444
7.2500,174.0708033,-28.72065953,1236.957532
7.2550,174.0839986,-28.65192542,1236.961388
7.2600,174.0934136,-28.58341021,1236.965822
7.2650,174.0990698,-28.5159156,1236.970748
7.2700,174.1004956,-28.45020821,1236.976168
7.2750,174.0986553,-28.38587841,1236.981953
7.2800,174.0942227,-28.32304013,1236.987975
7.2850,174.0854489,-28.26278421,1236.994385
7.2900,174.0729637,-28.20557887,1237.001046
7.2950,174.0560789,-28.15189009,1237.008002
7.3000,174.0356685,-28.10064619,1237.015224
7.3050,174.0099973,-28.05177755,1237.023002
7.3100,173.9789321,-28.00623655,1237.031253
7.3150,173.9413874,-27.96295741,1237.040248
7.3200,173.8973173,-27.92437057,1237.049739
7.3250,173.8465104,-27.88948334,1237.059877
7.3300,173.7881278,-27.85831863,1237.07078
7.3350,173.7228546,-27.83139912,1237.082291
7.3400,173.6508919,-27.80890868,1237.094355
7.3450,173.5726527,-27.78999462,1237.106991
7.3500,173.4897034,-27.77531276,1237.119889
7.3550,173.4018298,-27.76515103,1237.133029
7.3600,173.310699,-27.76017287,1237.146065
7.3650,173.218369,-27.7595242,1237.158741
7.3700,173.1250391,-27.76382888,1237.170955
7.3750,173.0336318,-27.77407671,1237.182108
7.3800,172.9438761,-27.78936031,1237.192333
7.3850,172.8565535,-27.81012549,1237.201441
7.3900,172.7727223,-27.83481066,1237.209423
7.3950,172.6920993,-27.86431495,1237.216212
7.4000,172.6151956,-27.89755796,1237.221834
7.4050,172.5425053,-27.93638508,1237.226006
7.4100,172.4739295,-27.97925805,1237.2289
7.4150,172.4100075,-28.0261059,1237.230432
7.4200,172.3509488,-28.07780044,1237.23046
7.4250,172.2972413,-28.13332883,1237.229022
7.4300,172.2477491,-28.19213868,1237.226355
7.4350,172.201946,-28.25469115,1237.222508
7.4400,172.1591835,-28.32038094,1237.217655
7.4450,172.119825,-28.3876082,1237.211892
7.4500,172.08282,-28.45620321,1237.205414
7.4550,172.0485134,-28.52536977,1237.198242
7.4600,172.0163432,-28.59634028,1237.190337
7.4650,171.9856466,-28.66774577,1237.181973
7.4700,171.9563104,-28.7386316,1237.173247
7.4750,171.9270973,-28.80957525,1237.164309
7.4800,171.8978047,-28.87902507,1237.155365
7.4850,171.8695565,-28.9478981,1237.146112
7.4900,171.840868,-29.01471372,1237.136963
7.4950,171.8115542,-29.07988533,1237.127891
7.5000,171.7809057,-29.14187366,1237.119182
7.5050,171.7501961,-29.20157228,1237.11054
7.5100,171.7177989,-29.25708881,1237.102417
7.5150,171.6831784,-29.30890462,1237.094868
7.5200,171.644733,-29.35473931,1237.088396
7.5250,171.6029382,-29.39567812,1237.082824
7.5300,171.5566857,-29.43049136,1237.078461
7.5350,171.5048762,-29.45993413,1237.075431
7.5400,171.4472313,-29.48342659,1237.073842
7.5450,171.38175,-29.50146159,1237.073997
7.5500,171.3089652,-29.51349261,1237.075863
7.5550,171.2273536,-29.51964447,1237.079704
7.5600,171.1362939,-29.52101098,1237.085517
7.5650,171.034763,-29.51720624,1237.093526
7.5700,170.9227863,-29.50785449,1237.103772
7.5750,170.799417,-29.49467511,1237.116261
7.5800,170.6655241,-29.47729164,1237.130898
7.5850,170.5213345,-29.45508551,1237.147718
7.5900,170.3666938,-29.42843313,1237.166714
7.5950,170.2032865,-29.39774929,1237.187571
7.6000,170.0305934,-29.36457253,1237.210242
7.6050,169.8506586,-29.32853758,1237.23441
7.6100,169.6643098,-29.29027737,1237.259878
7.6150,169.4735109,-29.25048015,1237.286241
7.6200,169.2795235,-29.20840814,1237.313349
7.6250,169.0839495,-29.16515448,1237.340794
7.6300,168.8875604,-29.12152465,1237.36837
7.6350,168.6924604,-29.07863374,1237.395574
7.6400,168.4987247,-29.03661432,1237.422371
7.6450,168.3082801,-28.99596393,1237.448369
7.6500,168.1220115,-28.95720294,1237.473331
7.6550,167.9405027,-28.9208132,1237.497093
7.6600,167.7652006,-28.88763455,1237.51931
7.6650,167.5956248,-28.85809427,1237.539999
7.6700,167.4338719,-28.83195096,1237.558782
7.6750,167.2793022,-28.80947483,1237.575737
7.6800,167.1329398,-28.79116122,1237.59061
7.6850,166.9959738,-28.77589755,1237.603288
7.6900,166.8676475,-28.76606009,1237.613638
7.6950,166.7484227,-28.75991735,1237.621761
7.7000,166.6391356,-28.7580938,1237.627413
7.7050,166.538911,-28.75876944,1237.630931
7.7100,166.4474292,-28.7620133,1237.63237
7.7150,166.3638176,-28.76794231,1237.631863
7.7200,166.2878003,-28.77462943,1237.629657
7.7250,166.2187894,-28.78108327,1237.625969
7.7300,166.1577031,-28.78822398,1237.620526
7.7350,166.1047784,-28.7945298,1237.613428
7.7400,166.0599269,-28.7994841,1237.604747
7.7450,166.0222857,-28.80314847,1237.594637
7.7500,165.9913236,-28.80561142,1237.583197
7.7550,165.9658632,-28.80798178,1237.570542
7.7600,165.946942,-28.80734058,1237.556771
7.7650,165.9334727,-28.80493789,1237.541941
7.7700,165.9253632,-28.800951,1237.526055
7.7750,165.9223593,-28.794065,1237.509311
7.7800,165.9233,-28.78408518,1237.491944
7.7850,165.9278387,-28.77027407,1237.474117
7.7900,165.9359654,-28.75285051,1237.455795
7.7950,165.9477336,-28.73115776,1237.43705
7.8000,165.9632358,-28.70443315,1237.417934
7.8050,165.9802787,-28.67268435,1237.39886
7.8100,165.9987934,-28.63565581,1237.379892
7.8150,166.0186734,-28.59215741,1237.361164
7.8200,166.0406938,-28.5438737,1237.342367
7.8250,166.065335,-28.49008509,1237.323487
7.8300,166.0912373,-28.43026137,1237.304847
7.8350,166.1191255,-28.36377934,1237.286382
7.8400,166.1487532,-28.29056911,1237.26815
7.8450,166.1801953,-28.21001012,1237.250227
7.8500,166.2139423,-28.1225197,1237.232477
7.8550,166.2510507,-28.02789867,1237.214723
7.8600,166.290183,-27.92630893,1237.197233
7.8650,166.3339946,-27.81761167,1237.179525
7.8700,166.3811282,-27.70246464,1237.161814
7.8750,166.4326831,-27.58095328,1237.143897
7.8800,166.4880758,-27.45238663,1237.125977
7.8850,166.5478568,-27.31790829,1237.107842
7.8900,166.6127488,-27.17721133,1237.089412
7.8950,166.6829399,-27.02960232,1237.070735
7.9000,166.7582744,-26.87486948,1237.051869
7.9050,166.8388208,-26.71374478,1237.032756
7.9100,166.9254644,-26.54692513,1237.013152
7.9150,167.0175061,-26.37368428,1236.993278
7.9200,167.115589,-26.19521346,1236.972907
7.9250,167.2182668,-26.01197398,1236.952277
7.9300,167.326886,-25.82354114,1236.931172
7.9350,167.4399047,-25.63135333,1236.909731
7.9400,167.5577347,-25.43571087,1236.88786
7.9450,167.679781,-25.23704834,1236.865602
7.9500,167.8043334,-25.03590647,1236.843235
7.9550,167.932254,-24.83353639,1236.820457
7.9600,168.0622948,-24.62891554,1236.797609
7.9650,168.1947094,-24.42290753,1236.77456
7.9700,168.3282373,-24.21579997,1236.751516
7.9750,168.4636216,-24.00828575,1236.728246
7.9800,168.601046,-23.80052204,1236.704712
7.9850,168.7381615,-23.59329182,1236.681246
7.9900,168.8755991,-23.38562527,1236.657859
7.9950,169.0132519,-23.17743989,1236.634543
8.0000,169.1500184,-22.96828309,1236.61158
8.0050,169.2859511,-22.75798551,1236.588966
8.0100,169.4212733,-22.54727457,1236.566568
8.0150,169.5562911,-22.33486303,1236.5445
8.0200,169.690598,-22.12044644,1236.522883
8.0250,169.8226982,-21.90536365,1236.501812
8.0300,169.9525216,-21.68834669,1236.48147
8.0350,170.0791505,-21.46976954,1236.461974
8.0400,170.2019419,-21.25009054,1236.443379
8.0450,170.321451,-21.0291741,1236.425591
8.0500,170.4371091,-20.80716101,1236.408687
8.0550,170.5486356,-20.5830499,1236.392839
8.0600,170.6551341,-20.35807958,1236.378066
8.0650,170.7561715,-20.13082595,1236.364633
8.0700,170.851539,-19.90188182,1236.352509
8.0750,170.9414823,-19.67025957,1236.341782
8.0800,171.0259091,-19.43790881,1236.332197
8.0850,171.1039504,-19.20383983,1236.324034
8.0900,171.1759761,-18.96785702,1236.317245
8.0950,171.2409034,-18.72976429,1236.312077
8.1000,171.2974012,-18.49094861,1236.308584
8.1050,171.3478209,-18.24971917,1236.306578
8.1100,171.3914322,-18.00633001,1236.306151
8.1150,171.4283373,-17.76086089,1236.307282
8.1200,171.4593425,-17.51175799,1236.310054
8.1250,171.4834618,-17.25825429,1236.314741
8.1300,171.5008959,-17.00100715,1236.321224
8.1350,171.5116753,-16.73954648,1236.329581
8.1400,171.5159578,-16.4736279,1236.339818
8.1450,171.5136287,-16.2035082,1236.351947
8.1500,171.5044339,-15.92955154,1236.365976
8.1550,171.4880519,-15.65031489,1236.382174
8.1600,171.4655098,-15.36612602,1236.40032
8.1650,171.4353138,-15.07719516,1236.420691
8.1700,171.3975645,-14.78355076,1236.443268
8.1750,171.3524835,-14.4848535,1236.468092
8.1800,171.3007911,-14.18257426,1236.494844
8.1850,171.2426604,-13.87637623,1236.52355
8.1900,171.1779966,-13.56648683,1236.554228
8.1950,171.1075702,-13.25403197,1236.586577
8.2000,171.0320758,-12.93881144,1236.620503
8.2050,170.9512776,-12.621215,1236.655985
8.2100,170.8654132,-12.30120825,1236.692984
8.2150,170.7745501,-11.98029685,1236.731265
8.2200,170.6789662,-11.658568,1236.770768
8.2250,170.5794784,-11.33697692,1236.811192
8.2300,170.4749652,-11.01641706,1236.852633
8.2350,170.3663937,-10.69601416,1236.895037
8.2400,170.2543997,-10.37584132,1236.938264
8.2450,170.1386566,-10.05724153,1236.982169
8.2500,170.0214118,-9.739621634,1237.02642
8.2550,169.9016755,-9.423315317,1237.071138
8.2600,169.780467,-9.109924045,1237.115866
8.2650,169.6578667,-8.798934671,1237.160652
8.2700,169.5331613,-8.491009385,1237.205514
8.2750,169.4066475,-8.186073865,1237.250405
8.2800,169.2773526,-7.882946336,1237.295699
8.2850,169.1466404,-7.583126428,1237.340903
8.2900,169.0135112,-7.285743682,1237.386363
8.2950,168.8776715,-6.991700823,1237.43203
8.3000,168.7392072,-6.701769381,1237.477775
8.3050,168.5972852,-6.415174659,1237.523922
8.3100,168.4525625,-6.131427663,1237.570447
8.3150,168.3055962,-5.848858569,1237.617533
8.3200,168.1550207,-5.567006203,1237.665533
8.3250,168.0031537,-5.283869246,1237.714379
8.3300,167.8491845,-4.998681079,1237.764372
8.3350,167.6943025,-4.711980132,1237.815226
8.3400,167.5383326,-4.422313736,1237.867246
8.3450,167.3816556,-4.129696195,1237.92038
8.3500,167.2246958,-3.832564326,1237.974812
8.3550,167.0677212,-3.529657202,1238.030707
8.3600,166.9113243,-3.219834939,1238.088166
8.3650,166.7557958,-2.90271203,1238.14721
8.3700,166.5996135,-2.577480161,1238.208277
8.3750,166.4433365,-2.244681997,1238.271171
8.3800,166.2867139,-1.902549883,1238.336314
8.3850,166.1293331,-1.550188205,1238.403957
8.3900,165.9719421,-1.187346527,1238.474047
8.3950,165.8151144,-0.8123851936,1238.546789
8.4000,165.659776,-0.4242019265,1238.622231
8.4050,165.5049815,-0.02305458306,1238.700561
8.4100,165.3505041,0.3908676863,1238.781814
8.4150,165.1949664,0.8169746879,1238.866222
8.4200,165.0375093,1.255174047,1238.953987
8.4250,164.8773571,1.70420765,1239.045098
8.4300,164.7137519,2.163758247,1239.139722
8.4350,164.5467819,2.633932968,1239.237905
8.4400,164.3745344,3.113614029,1239.339889
8.4450,164.1966791,3.601156439,1239.445487
8.4500,164.0122977,4.09633001,1239.554904
8.4550,163.8211084,4.596443368,1239.667759
8.4600,163.6223465,5.102000733,1239.784363
8.4650,163.4153337,5.612524751,1239.904778
8.4700,163.2012192,6.127471114,1240.02871
8.4750,162.9802051,6.645928987,1240.155965
8.4800,162.7513085,7.167920529,1240.286768
8.4850,162.5139845,7.693820085,1240.421318
8.4900,162.2682692,8.221518455,1240.559176
8.4950,162.0130031,8.750845142,1240.700588
8.5000,161.7471535,9.280048522,1240.845409
8.5050,161.4706245,9.807244327,1240.993272
8.5100,161.1817408,10.33214187,1241.144485
8.5150,160.8800208,10.85230383,1241.298654
8.5200,160.5644608,11.36771736,1241.455975
8.5250,160.2339149,11.87733859,1241.616468
8.5300,159.8899858,12.37975003,1241.779521
8.5350,159.5312636,12.87408366,1241.945268
8.5400,159.1573098,13.36020905,1242.113854
8.5450,158.7687391,13.83776129,1242.285088
8.5500,158.3632497,14.30604349,1242.459364
8.5550,157.9419067,14.7654131,1242.636588
8.5600,157.5049788,15.21649083,1242.816908
8.5650,157.0514056,15.65985601,1243.000775
8.5700,156.5821464,16.09665815,1243.188316
8.5750,156.0976152,16.52673435,1243.379495
8.5800,155.5983632,16.94962914,1243.574144
8.5850,155.0858485,17.36733346,1243.772462
8.5900,154.5595505,17.77931265,1243.974474
8.5950,154.0209878,18.18677768,1244.180179
8.6000,153.469722,18.59062617,1244.389913
8.6050,152.9074141,18.99278689,1244.603776
8.6100,152.3348986,19.39627962,1244.822357
8.6150,151.7522262,19.80132052,1245.045723
8.6200,151.1613759,20.20910623,1245.273733
8.6250,150.5637382,20.62125025,1245.506438
8.6300,149.9604147,21.03893756,1245.743866
8.6350,149.3522874,21.46512324,1245.986561
8.6400,148.7414017,21.89878491,1246.233766
8.6450,148.1287276,22.3405514,1246.485436
8.6500,147.5144066,22.78945577,1246.741327
8.6550,146.899243,23.24544435,1247.001274
8.6600,146.2831864,23.70848307,1247.265278
8.6650,145.6664645,24.17784082,1247.533119
8.6700,145.0503297,24.6532032,1247.804453
8.6750,144.4347833,25.13542717,1248.07953
8.6800,143.8206093,25.62438113,1248.358116
8.6850,143.2083919,26.12005532,1248.640112
8.6900,142.5981735,26.62334513,1248.925747
8.6950,141.9919032,27.13171471,1249.213851
8.7000,141.3903829,27.64464733,1249.504086
8.7050,140.7937647,28.15991398,1249.795799
8.7100,140.2029482,28.67668283,1250.088529
8.7150,139.6185882,29.19384323,1250.381748
8.7200,139.039883,29.70904439,1250.675036
8.7250,138.4664455,30.22153197,1250.968233
8.7300,137.8978963,30.73005336,1251.261098
8.7350,137.3348484,31.23307134,1251.552969
8.7400,136.7781611,31.73071104,1251.843578
8.7450,136.2283191,32.22243515,1252.132553
8.7500,135.6842374,32.70645587,1252.419645
8.7550,135.1459722,33.18239046,1252.704614
8.7600,134.6130476,33.6492673,1252.987257
8.7650,134.0856279,34.10693246,1253.267385
8.7700,133.5634711,34.55586588,1253.545164
8.7750,133.0454661,34.99488832,1253.820496
8.7800,132.5317691,35.42241669,1254.092818
8.7850,132.0229627,35.83696389,1254.361469
8.7900,131.517151,36.23793748,1254.626784
8.7950,131.013595,36.62547708,1254.888924
8.8000,130.5123794,37.0012358,1255.148331
8.8050,130.0126606,37.36569774,1255.405374
8.8100,129.515123,37.71986252,1255.660082
8.8150,129.021046,38.06441891,1255.912186
8.8200,128.5285588,38.39971557,1256.162389
8.8250,128.0397032,38.72827626,1256.410788
8.8300,127.5529159,39.05089413,1256.658064
8.8350,127.0700618,39.36846819,1256.903893
8.8400,126.5899926,39.68083496,1257.148518
8.8450,126.1130361,39.98950093,1257.392285
8.8500,125.6391797,40.2954577,1257.635468
8.8550,125.1694748,40.5999288,1257.878094
8.8600,124.7023615,40.90317722,1258.120764
8.8650,124.2388277,41.20572297,1258.363256
8.8700,123.7777269,41.5077362,1258.605979
8.8750,123.3195498,41.80984724,1258.848957
8.8800,122.8644029,42.11290579,1259.092441
8.8850,122.4096863,42.41578926,1259.336942
8.8900,121.958168,42.72071067,1259.582265
8.8950,121.508687,43.02852259,1259.829053
8.9000,121.0627982,43.34192852,1260.07768
8.9050,120.6211323,43.66093324,1260.327953
8.9100,120.1831892,43.98452733,1260.579693
8.9150,119.7496272,44.3138836,1260.833083
8.9200,119.321542,44.64884688,1261.087674
8.9250,118.8984134,44.98807879,1261.343233
8.9300,118.4809721,45.33108494,1261.599346
8.9350,118.0685464,45.67687497,1261.855917
8.9400,117.6596141,46.02479092,1262.113261
8.9450,117.2524266,46.37501331,1262.372038
8.9500,116.8475621,46.72791678,1262.632164
8.9550,116.444958,47.08419257,1262.893865
8.9600,116.0457148,47.44277514,1263.156387
8.9650,115.6511989,47.80424642,1263.419427
8.9700,115.2622076,48.16821916,1263.682562
8.9750,114.8788853,48.53358419,1263.945303
8.9800,114.5024943,48.90132362,1264.207522
8.9850,114.1334016,49.26955035,1264.468394
8.9900,113.770226,49.63625288,1264.727705
8.9950,113.4118981,50.00222313,1264.986081
9.0000,113.057997,50.36672007,1265.243376
9.0050,112.7084154,50.72950028,1265.499487
9.0100,112.362362,51.08853512,1265.753997
9.0150,112.0179987,51.44121604,1266.006664
9.0200,111.6749635,51.78615233,1266.257049
9.0250,111.3328339,52.12324484,1266.505251
9.0300,110.9922571,52.45115425,1266.750477
9.0350,110.6511778,52.76953432,1266.993346
9.0400,110.309165,53.07813726,1267.233939
9.0450,109.9656356,53.37662684,1267.472311
9.0500,109.6213274,53.66505496,1267.708146
9.0550,109.2756786,53.94433968,1267.942005
9.0600,108.9287158,54.21365766,1268.173521
9.0650,108.5801366,54.47345241,1268.402979
9.0700,108.2283786,54.72266012,1268.630593
9.0750,107.8740456,54.96231848,1268.856502
9.0800,107.5160733,55.19303835,1269.081294
9.0850,107.1545173,55.4161893,1269.30545
9.0900,106.7906557,55.63304475,1269.528876
9.0950,106.4253369,55.84464474,1269.75167
9.1000,106.0586418,56.05019753,1269.973498
9.1050,105.6914796,56.2506284,1270.194319
9.1100,105.3236199,56.44647378,1270.414432
9.1150,104.9547413,56.63821733,1270.634186
9.1200,104.5863303,56.82660237,1270.853226
9.1250,104.2173835,57.01167232,1271.071978
9.1300,103.8484465,57.19486699,1271.290761
9.1350,103.4789225,57.37629328,1271.509853
9.1400,103.1096236,57.55667395,1271.729196
9.1450,102.7397419,57.7355534,1271.94899
9.1500,102.370193,57.91306997,1272.168888
9.1550,101.9987852,58.0890793,1272.389792
9.1600,101.6266577,58.26302488,1272.611002
9.1650,101.252201,58.43455808,1272.833099
9.1700,100.8757649,58.60234454,1273.055475
9.1750,100.4944851,58.7683333,1273.280129
9.1800,100.1083856,58.93279677,1273.507143
9.1850,99.71885201,59.09913486,1273.737281
9.1900,99.32474796,59.26805362,1273.971331
9.1950,98.92659331,59.43999937,1274.209278
9.2000,98.52395494,59.61506481,1274.451324
9.2050,98.11665141,59.79357535,1274.697709
9.2100,97.70448804,59.97611158,1274.948803
9.2150,97.28713093,60.16177536,1275.204411
9.2200,96.86407271,60.34995243,1275.46455
9.2250,96.43499216,60.54172179,1275.729814
9.2300,95.99908827,60.73680605,1276.00051
9.2350,95.5567123,60.93531128,1276.276503
9.2400,95.10807881,61.13884407,1276.558385
9.2450,94.65475914,61.34678635,1276.845251
9.2500,94.19811954,61.55868376,1277.136352
9.2550,93.73774084,61.77265459,1277.431179
9.2600,93.27316047,61.98845996,1277.729893
9.2650,92.80315577,62.20582226,1278.032991
9.2700,92.32771726,62.4251173,1278.340658
9.2750,91.84772668,62.64653429,1278.652626
9.2800,91.36284239,62.86949638,1278.968832
9.2850,90.87356018,63.09349201,1279.288892
9.2900,90.38101062,63.31880408,1279.612464
9.2950,89.8844753,63.54547911,1279.93995
9.3000,89.38431737,63.77185879,1280.270543
9.3050,88.87950856,63.99817611,1280.604885
9.3100,88.37116725,64.22523529,1280.942758
9.3150,87.86014325,64.45486686,1281.284514
9.3200,87.34859291,64.68803449,1281.629535
9.3250,86.83674187,64.92309847,1281.977047
9.3300,86.32457795,65.16034859,1282.327201
9.3350,85.81305937,65.39865329,1282.679087
9.3400,85.30259186,65.6368792,1283.03201
9.3450,84.79352019,65.875332,1283.385918
9.3500,84.28654981,66.11438462,1283.740613
9.3550,83.78270668,66.35274613,1284.094985
9.3600,83.28261033,66.59191594,1284.449347
9.3650,82.78710005,66.83030381,1284.802587
9.3700,82.29683242,67.06789562,1285.154276
9.3750,81.81093598,67.30450682,1285.504751
9.3800,81.33111104,67.53947698,1285.852875
9.3850,80.85785045,67.77220817,1286.198074
9.3900,80.39096739,68.00213571,1286.54018
9.3950,79.9308061,68.22878818,1286.878747
9.4000,79.47685019,68.4524598,1287.2141
9.4050,79.02995377,68.67338579,1287.545838
9.4100,78.59065219,68.89138837,1287.873549
9.4150,78.1583033,69.10602776,1288.197343
9.4200,77.73293915,69.31742532,1288.517194
9.4250,77.31500293,69.5251448,1288.83263
9.4300,76.90504652,69.72865507,1289.143058
9.4350,76.50286287,69.92804714,1289.448544
9.4400,76.10755386,70.12276779,1289.749282
9.4450,75.71885926,70.31337399,1290.045587
9.4500,75.33569566,70.49957198,1290.337869
9.4550,74.95882556,70.68066244,1290.625343
9.4600,74.58616788,70.85705244,1290.909267
9.4650,74.21890764,71.02950703,1291.189315
9.4700,73.85631373,71.19827831,1291.465967
9.4750,73.49800633,71.3631584,1291.739295
9.4800,73.14306854,71.52484822,1292.010128
9.4850,72.78932496,71.68174081,1292.278885
9.4900,72.43600222,71.8339247,1292.54601
9.4950,72.08347277,71.98149251,1292.811332
9.5000,71.73129349,72.1243205,1293.075066
9.5050,71.37888762,72.26173102,1293.337187
9.5100,71.0253293,72.39373608,1293.598206
9.5150,70.67066714,72.52069752,1293.858275
9.5200,70.31358087,72.64307466,1294.118332
9.5250,69.95341032,72.75974083,1294.378271
9.5300,69.5901139,72.87199227,1294.638662
9.5350,69.22355679,72.97883243,1294.899163
9.5400,68.85358635,73.07962214,1295.159564
9.5450,68.47992588,73.17387103,1295.419805
9.5500,68.10164211,73.26277007,1295.680997
9.5550,67.71795369,73.34638858,1295.943651
9.5600,67.32981102,73.42433926,1296.207033
9.5650,66.93751687,73.49739164,1296.471308
9.5700,66.54153411,73.56544978,1296.73619
9.5750,66.14260679,73.62961256,1297.001785
9.5800,65.74163942,73.68892884,1297.267194
9.5850,65.33752784,73.74436588,1297.533487
9.5900,64.9308129,73.79604141,1297.800419
9.5950,64.52242281,73.84416974,1298.067535
9.6000,64.11179152,73.88971218,1298.335669
9.6050,63.7001066,73.93300228,1298.604245
9.6100,63.28605551,73.97416111,1298.874165
9.6150,62.87147768,74.01336119,1299.144429
9.6200,62.45462127,74.0505914,1299.416135
9.6250,62.03685275,74.08746435,1299.689216
9.6300,61.61862135,74.12541096,1299.964074
9.6350,61.20071741,74.16417306,1300.240099
9.6400,60.7835687,74.20485568,1300.517551
9.6450,60.36834313,74.24776188,1300.795884
9.6500,59.95394167,74.2919285,1301.075301
9.6550,59.54172388,74.33830982,1301.355439
9.6600,59.13101675,74.38456885,1301.635592
9.6650,58.72242713,74.43208399,1301.915978
9.6700,58.31629893,74.48044693,1302.1962
9.6750,57.9124998,74.52914333,1302.47609
9.6800,57.51079622,74.5778205,1302.755584
9.6850,57.11116266,74.62748535,1303.035178
9.6900,56.71431822,74.67812225,1303.314417
9.6950,56.3200682,74.72932321,1303.593238
9.7000,55.92969901,74.78111774,1303.870822
9.7050,55.54351071,74.83352352,1304.146973
9.7100,55.16226156,74.88600852,1304.420942
9.7150,54.7862984,74.93960285,1304.692932
9.7200,54.41499382,74.99385568,1304.963127
9.7250,54.04887013,75.04898447,1305.231256
9.7300,53.68604797,75.10441937,1305.49822
9.7350,53.32536027,75.15971696,1305.764578
9.7400,52.9672152,75.21457472,1306.029878
9.7450,52.61135221,75.26826811,1306.293933
9.7500,52.25878329,75.32160795,1306.556472
9.7550,51.9081534,75.37522957,1306.818666
9.7600,51.56176086,75.43029694,1307.079583
9.7650,51.21830367,75.48602183,1307.339675
9.7700,50.87757063,75.54498646,1307.600332
9.7750,50.53949274,75.60672122,1307.861378
9.7800,50.20423089,75.67178587,1308.122953
9.7850,49.87287275,75.74091741,1308.384724
9.7900,49.54443216,75.81469852,1308.647633
9.7950,49.21796447,75.89395404,1308.912743
9.8000,48.89268064,75.97871302,1309.180571
9.8050,48.567907,76.07073466,1309.452464
9.8100,48.24329395,76.16995061,1309.728597
9.8150,47.91737803,76.27619822,1310.009902
9.8200,47.590997,76.38972133,1310.295991
9.8250,47.26339622,76.51022331,1310.587205
9.8300,46.93334694,76.6368923,1310.884035
9.8350,46.60017333,76.76974212,1311.186949
9.8400,46.26420723,76.90837291,1311.495544
9.8450,45.92430993,77.05178148,1311.810137
9.8500,45.57995418,77.19808158,1312.13013
9.8550,45.23105607,77.34691661,1312.455425
9.8600,44.87779102,77.49801839,1312.785776
9.8650,44.5192698,77.64964023,1313.120986
9.8700,44.1546952,77.80067787,1313.461022
9.8750,43.78408298,77.94992206,1313.805285
9.8800,43.40621925,78.09542137,1314.15361
9.8850,43.02201902,78.23711173,1314.505332
9.8900,42.63156964,78.3746727,1314.860264
9.8950,42.23466453,78.50624288,1315.217628
9.9000,41.83227142,78.63175058,1315.576677
9.9050,41.42465503,78.75011845,1315.936748
9.9100,41.01399192,78.86098259,1316.29603
9.9150,40.59922008,78.96465471,1316.655424
9.9200,40.18143966,79.06000323,1317.013561
9.9250,39.76147956,79.14652488,1317.369607
9.9300,39.34052728,79.22327299,1317.722195
9.9350,38.91868543,79.29077307,1318.071517
9.9400,38.4973183,79.34774875,1318.415896
9.9450,38.07592223,79.39401019,1318.755538
9.9500,37.65647387,79.43004924,1319.089194
9.9550,37.2381403,79.45506836,1319.417041
9.9600,36.82239517,79.46958117,1319.738215
9.9650,36.40953311,79.47219595,1320.051744
9.9700,36.0000317,79.46299106,1320.357271
9.9750,35.59433876,79.44185905,1320.654314
9.9800,35.19383521,79.40919904,1320.942033
9.9850,34.79915693,79.36489066,1321.219826
9.9900,34.41005248,79.30758711,1321.487072
9.9950,34.02749913,79.23748695,1321.74309
10.0000,33.65173258,79.15435769,1321.987521
10.0050,33.2828597,79.05840757,1322.220356
10.0100,32.9207582,78.94953275,1322.441612
10.0150,32.56621714,78.82778866,1322.650699
10.0200,32.22030363,78.69430251,1322.847313
10.0250,31.88253644,78.54891156,1323.031717
10.0300,31.55515189,78.39328989,1323.203056
10.0350,31.23883781,78.22785018,1323.360968
10.0400,30.93416946,78.05374046,1323.505582
10.0450,30.64030213,77.87175895,1323.637951
10.0500,30.35741328,77.68138876,1323.757635
10.0550,30.08624987,77.48441409,1323.864981
10.0600,29.82547881,77.28023214,1323.960677
10.0650,29.57539793,77.0704318,1324.045337
10.0700,29.33716051,76.85481532,1324.117917
10.0750,29.11120218,76.63507313,1324.178901
10.0800,28.8968221,76.4115422,1324.229071
10.0850,28.69454906,76.18563125,1324.268701
10.0900,28.50428631,75.95815316,1324.298275
10.0950,28.32642406,75.73040849,1324.318116
10.1000,28.16029716,75.50279572,1324.328945
10.1050,28.00660853,75.27566487,1324.330374
10.1100,27.8651657,75.05018999,1324.323144
10.1150,27.73671299,74.82702436,1324.306973
10.1200,27.62111997,74.60630251,1324.281991
10.1250,27.51796494,74.38965499,1324.249389
10.1300,27.42815426,74.17714498,1324.208418
10.1350,27.35119968,73.96932595,1324.159772
10.1400,27.28638056,73.76615425,1324.103995
10.1450,27.2341494,73.56886901,1324.041332
10.1500,27.19531284,73.3779054,1323.971372
10.1550,27.16987671,73.19326238,1323.894043
10.1600,27.15604674,73.01482714,1323.810764
10.1650,27.15447718,72.84215819,1323.720739
10.1700,27.16545917,72.67647962,1323.624414
10.1750,27.18799793,72.51728742,1323.52231
10.1800,27.22141904,72.36579266,1323.415569
10.1850,27.26554292,72.22178003,1323.30424
10.1900,27.31932547,72.08411726,1323.188552
10.1950,27.38221198,71.95396259,1323.069543
10.2000,27.45362059,71.83021387,1322.947163
10.2050,27.53316145,71.71398467,1322.822242
10.2100,27.61957022,71.60448736,1322.695426
10.2150,27.71191613,71.50033777,1322.566777
10.2200,27.81054945,71.40233704,1322.436388
10.2250,27.91389544,71.3095473,1322.305032
10.2300,28.02039303,71.22105672,1322.173491
10.2350,28.12964896,71.136462,1322.041859
10.2400,28.24081563,71.05642794,1321.911114
10.2450,28.35341436,70.98029582,1321.781316
10.2500,28.46723239,70.9076702,1321.652466
10.2550,28.58153483,70.83831085,1321.524955
10.2600,28.69613224,70.77118769,1321.398429
10.2650,28.81043992,70.70649986,1321.273414
10.2700,28.92478961,70.6429611,1321.149009
10.2750,29.03979785,70.58093697,1321.024907
10.2800,29.15468077,70.51937407,1320.90113
10.2850,29.26874236,70.45633433,1320.777265
10.2900,29.38327458,70.39287326,1320.652839
10.2950,29.49702292,70.32776672,1320.528161
10.3000,29.61035803,70.26095828,1320.402945
10.3050,29.72336978,70.19144679,1320.276613
10.3100,29.8355598,70.12077412,1320.150298
10.3150,29.94785471,70.0489503,1320.023268
10.3200,30.05955998,69.97514166,1319.89568
10.3250,30.17196727,69.89994549,1319.766819
10.3300,30.28342953,69.82216416,1319.63737
10.3350,30.39518506,69.74256074,1319.506725
10.3400,30.50677473,69.66175466,1319.375586
10.3450,30.61967197,69.57952101,1319.242717
10.3500,30.73244523,69.49593959,1319.109282
10.3550,30.8455964,69.41148413,1318.975142
10.3600,30.95931893,69.32654898,1318.840346
10.3650,31.07485906,69.24252812,1318.704609
10.3700,31.19071119,69.15883303,1318.568793
10.3750,31.30793602,69.07614091,1318.432476
10.3800,31.42660978,68.99424566,1318.295432
10.3850,31.54541276,68.91222395,1318.158259
10.3900,31.6656426,68.83096026,1318.020408
10.3950,31.78635768,68.74945364,1317.882135
10.4000,31.90826981,68.66843181,1317.74328
10.4050,32.02960142,68.58682751,1317.604659
10.4100,32.15091165,68.50455338,1317.465853
10.4150,32.27211331,68.421981,1317.32712
10.4200,32.39154009,68.33955506,1317.189945
10.4250,32.51083026,68.25671726,1317.05281
10.4300,32.62986322,68.17395033,1316.916066
10.4350,32.74815014,68.09105199,1316.780005
10.4400,32.86655425,68.00886123,1316.6444
10.4450,32.98539477,67.92737954,1316.509016
10.4500,33.10307943,67.84585284,1316.374667
10.4550,33.22019232,67.76455315,1316.241086
10.4600,33.33693007,67.68327497,1316.107998
10.4650,33.4527245,67.60322774,1315.976455
10.4700,33.56697045,67.5235179,1315.846435
10.4750,33.67965562,67.44424482,1315.717992
10.4800,33.79155283,67.36580933,1315.590754
10.4850,33.90159216,67.28773463,1315.465278
10.4900,34.01097125,67.21112579,1315.341193
10.4950,34.12074395,67.13559218,1315.217522
10.5000,34.23081267,67.06236803,1315.094875
10.5050,34.34080032,66.99063426,1314.973178
10.5100,34.45097351,66.92105566,1314.852514
10.5150,34.56287291,66.85441459,1314.732123
10.5200,34.67571368,66.79007796,1314.612296
10.5250,34.78972118,66.72760483,1314.492639
10.5300,34.90583601,66.6680301,1314.372944
10.5350,35.0234632,66.61000531,1314.25302
10.5400,35.14237364,66.55196166,1314.132312
10.5450,35.26309154,66.49469445,1314.010805
10.5500,35.38538601,66.43793952,1313.888512
10.5550,35.50975913,66.38196652,1313.765217
10.5600,35.6357023,66.32698148,1313.641367
10.5650,35.76396249,66.27331189,1313.516582
10.5700,35.89467074,66.22179198,1313.391167
10.5750,36.02808826,66.17131854,1313.264386
10.5800,36.16567362,66.12349044,1313.135982
10.5850,36.30784432,66.07846932,1313.005715
10.5900,36.45394342,66.03516445,1312.87356
10.5950,36.60518014,65.99424113,1312.738966
10.6000,36.76084783,65.95466082,1312.601962
10.6050,36.92076571,65.91716666,1312.463024
10.6100,37.08573795,65.879557,1312.320518
10.6150,37.25431951,65.84244253,1312.175753
10.6200,37.42748638,65.80611535,1312.028163
10.6250,37.60462581,65.76982485,1311.87787
10.6300,37.78677643,65.73349927,1311.724086
10.6350,37.97372122,65.69676216,1311.566845
10.6400,38.16619935,65.65928711,1311.405429
10.6450,38.36407567,65.62207202,1311.240417
10.6500,38.56782118,65.58448847,1311.071192
10.6550,38.77635706,65.54552114,1310.898089
10.6600,38.98973356,65.50469591,1310.720881
10.6650,39.20656679,65.46053017,1310.539876
10.6700,39.42787719,65.41257592,1310.354202
10.6750,39.65198455,65.35946851,1310.164443
10.6800,39.87920849,65.30245017,1309.970968
10.6850,40.10977868,65.24246369,1309.774086
10.6900,40.34345084,65.17791077,1309.573269
10.6950,40.58020466,65.11003858,1309.369142
10.7000,40.81945423,65.03925219,1309.162296
10.7050,41.06266992,64.96645272,1308.952168
10.7100,41.30959099,64.89127748,1308.738792
10.7150,41.55893337,64.81318407,1308.522862
10.7200,41.81265303,64.73152584,1308.302717
10.7250,42.06935518,64.64655273,1308.079528
10.7300,42.32869379,64.55706569,1307.852943
10.7350,42.59105462,64.46258884,1307.62248
10.7400,42.85602266,64.36258187,1307.388185
10.7450,43.12256729,64.25696527,1307.150775
10.7500,43.3922582,64.1454462,1306.909025
10.7550,43.6640639,64.02869546,1306.663982
10.7600,43.93878925,63.90679238,1306.415163
10.7650,44.21730196,63.78081769,1306.162438
10.7700,44.50017314,63.65029012,1305.905281
10.7750,44.78727644,63.51545337,1305.643931
10.7800,45.07899082,63.3766831,1305.378305
10.7850,45.37611614,63.23484568,1305.10835
10.7900,45.67887619,63.08986734,1304.833894
10.7950,45.98601152,62.94223726,1304.556054
10.8000,46.29881866,62.79291095,1304.274439
10.8050,46.61757527,62.64160074,1303.988753
10.8100,46.94278515,62.48935032,1303.699198
10.8150,47.27347714,62.33625168,1303.406487
10.8200,47.60942011,62.18277762,1303.111021
10.8250,47.95140217,62.03009987,1302.812831
10.8300,48.29873755,61.87762768,1302.512173
10.8350,48.65090312,61.72692767,1302.210118
10.8400,49.00863646,61.57936143,1301.906771
10.8450,49.37168397,61.43339178,1301.60169
10.8500,49.73940243,61.28990662,1301.295726
10.8550,50.11246171,61.14841313,1300.988216
10.8600,50.49100542,61.00925361,1300.679275
10.8650,50.8735466,60.87079439,1300.369179
10.8700,51.26095691,60.73353612,1300.057588
10.8750,51.65269663,60.59743795,1299.744846
10.8800,52.04715798,60.46216765,1299.43183
10.8850,52.44327195,60.32764802,1299.119188
10.8900,52.84168343,60.19419527,1298.806655
10.8950,53.24102478,60.06090113,1298.494705
10.9000,53.64194762,59.92893078,1298.183398
10.9050,54.04416575,59.79613259,1297.871986
10.9100,54.4471805,59.6638109,1297.561364
10.9150,54.85116916,59.53072989,1297.250887
10.9200,55.25590263,59.39639526,1296.940473
10.9250,55.66089794,59.26081178,1296.630436
10.9300,56.06618046,59.12426323,1296.320862
10.9350,56.47043265,58.98690425,1296.01263
10.9400,56.87291045,58.8479187,1295.705877
10.9450,57.27349719,58.70645865,1295.40028
10.9500,57.67255837,58.56333397,1295.095964
10.9550,58.07060929,58.41649842,1294.791739
10.9600,58.46614904,58.26714171,1294.489027
10.9650,58.85947829,58.11404596,1294.187125
10.9700,59.24901943,57.9582403,1293.887416
10.9750,59.63553992,57.79933334,1293.589233
10.9800,60.01937675,57.63691404,1293.292213
10.9850,60.39989919,57.47004202,1292.996314
10.9900,60.77752761,57.299592,1292.701623
10.9950,61.15261755,57.12550466,1292.40788
11.0000,61.52474744,56.94691256,1292.114989
11.0050,61.89399469,56.76307526,1291.822573
11.0100,62.26000063,56.57504626,1291.531275
11.0150,62.6245304,56.38340509,1291.240264
11.0200,62.98672222,56.18899687,1290.950416
11.0250,63.34671783,55.99123295,1290.661345
11.0300,63.70502644,55.79050646,1290.372951
11.0350,64.06177388,55.5875079,1290.085451
11.0400,64.41668316,55.38162224,1289.798746
11.0450,64.7715367,55.1733143,1289.511971
11.0500,65.12553578,54.96361505,1289.226032
11.0550,65.48002518,54.75268607,1288.940197
11.0600,65.83465458,54.54044152,1288.65464
11.0650,66.19018902,54.32616282,1288.36869
11.0700,66.54646255,54.11121662,1288.082952
11.0750,66.90386429,53.89601,1287.797375
11.0800,67.2622022,53.68088443,1287.512219
11.0850,67.62320474,53.46727345,1287.227081
11.0900,67.98635446,53.25531384,1286.942327
11.0950,68.35330588,53.04540925,1286.657208
11.1000,68.72254119,52.83723615,1286.372479
11.1050,69.09560035,52.63153392,1286.087569
11.1100,69.47177443,52.42837039,1285.802913
11.1150,69.85246525,52.22779982,1285.517772
11.1200,70.23820645,52.02999359,1285.231935
11.1250,70.62799142,51.83499157,1284.946022
11.1300,71.02267412,51.64235743,1284.659358
11.1350,71.42320248,51.45176901,1284.371328
11.1400,71.82768716,51.26194246,1284.082489
11.1450,72.23709715,51.07418856,1283.792823
11.1500,72.65101391,50.88719393,1283.502068
11.1550,73.06860349,50.70041615,1283.210499
11.1600,73.48968154,50.51414861,1282.918317
11.1650,73.91381621,50.32853266,1282.62583
11.1700,74.3404294,50.14286215,1282.333091
11.1750,74.76984173,49.95721462,1282.040011
11.1800,75.20183728,49.7711059,1281.746528
11.1850,75.63745771,49.5846668,1281.452197
11.1900,76.07618731,49.39853902,1281.157519
11.1950,76.51777075,49.21178942,1280.86231
11.2000,76.96257284,49.02532009,1280.566721
11.2050,77.40970372,48.83972038,1280.271471
11.2100,77.85866478,48.65484627,1279.976754
11.2150,78.30915108,48.46980514,1279.682413
11.2200,78.76018524,48.28380193,1279.388655
11.2250,79.21205592,48.09707361,1279.095399
11.2300,79.66358239,47.90970749,1278.803319
11.2350,80.11594473,47.72081825,1278.511422
11.2400,80.56862372,47.53061288,1278.220064
11.2450,81.02132155,47.33882966,1277.929278
11.2500,81.47389944,47.14510127,1277.639017
11.2550,81.925935,46.94915369,1277.34938
11.2600,82.37799224,46.7498995,1277.059691
11.2650,82.82893235,46.54800546,1276.770808
11.2700,83.28017878,46.34238775,1276.481598
11.2750,83.73076551,46.13264379,1276.19243
11.2800,84.17948595,45.9179992,1275.903611
11.2850,84.62708663,45.69858356,1275.614845
11.2900,85.07226356,45.47374297,1275.32653
11.2950,85.51446152,45.24267289,1275.038672
11.3000,85.95505804,45.00555922,1274.750657
11.3050,86.39414003,44.76298047,1274.462664
11.3100,86.83276744,44.51564711,1274.174454
11.3150,87.27018809,44.26283168,1273.886174
11.3200,87.70678487,44.00488166,1273.59777
11.3250,88.14404078,43.74224763,1273.308735
11.3300,88.58195256,43.47412063,1273.018804
11.3350,89.02125375,43.20197462,1272.728169
11.3400,89.46267225,42.92630635,1272.436683
11.3450,89.90550744,42.64625628,1272.144373
11.3500,90.35027027,42.36269328,1271.851328
11.3550,90.79792151,42.0747149,1271.556841
11.3600,91.24957118,41.7827159,1271.260516
11.3650,91.70502481,41.48689095,1270.962528
11.3700,92.16398257,41.18683856,1270.662916
11.3750,92.62737981,40.88222059,1270.361174
11.3800,93.09499459,40.57298956,1270.05743
11.3850,93.56575045,40.25747303,1269.751616
11.3900,94.03996154,39.93644245,1269.443902
11.3950,94.51649763,39.60968025,1269.134758
11.4000,94.99606944,39.27711623,1268.823859
11.4050,95.47746165,38.93931101,1268.51201
11.4100,95.96089142,38.59561072,1268.198912
11.4150,96.44567932,38.24648486,1267.885048
11.4200,96.9319435,37.89314348,1267.570808
11.4250,97.41956843,37.5351501,1267.256115
11.4300,97.90800139,37.17397166,1266.941721
11.4350,98.397258,36.80954199,1266.627614
11.4400,98.88920203,36.44358176,1266.313578
11.4450,99.38217053,36.07518203,1266.000056
11.4500,99.87782394,35.70499865,1265.686585
11.4550,100.3756057,35.33475148,1265.373977
11.4600,100.8764296,34.96374538,1265.061644
11.4650,101.3806476,34.59135116,1264.749285
11.4700,101.8887687,34.21941457,1264.437238
11.4750,102.3999753,33.84746032,1264.125744
11.4800,102.9145161,33.47485742,1263.814492
11.4850,103.4326193,33.10173625,1263.503418
11.4900,103.9530927,32.72758919,1263.192856
11.4950,104.4767824,32.35306785,1262.882679
11.5000,105.0028318,31.9762601,1262.572659
11.5050,105.5318759,31.59793701,1262.262746
11.5100,106.0636804,31.21682807,1261.9527
11.5150,106.5985197,30.8348634,1261.643003
11.5200,107.1356804,30.45115247,1261.333701
11.5250,107.6754147,30.06666782,1261.024997
11.5300,108.2171453,29.67975591,1260.716627
11.5350,108.7601944,29.29143991,1260.409233
11.5400,109.3056007,28.90047853,1260.102046
11.5450,109.8528782,28.5071262,1259.79538
11.5500,110.4010108,28.11174322,1259.489736
11.5550,110.9505813,27.71471597,1259.185005
11.5600,111.5011907,27.31599548,1258.881323
11.5650,112.0526716,26.91548924,1258.578718
11.5700,112.6047704,26.51278387,1258.277201
11.5750,113.157479,26.10949607,1257.977228
11.5800,113.7110602,25.70541082,1257.678681
11.5850,114.2656289,25.30159588,1257.381797
11.5900,114.8209787,24.89880001,1257.086872
11.5950,115.3779663,24.49787807,1256.793815
11.6000,115.9361742,24.0992355,1256.50293
11.6050,116.495221,23.7040717,1256.214677
11.6100,117.0546606,23.3111618,1255.928874
11.6150,117.6152894,22.92160451,1255.645505
11.6200,118.1771335,22.53648981,1255.364806
11.6250,118.7402441,22.15578389,1255.086706
11.6300,119.3045671,21.78161281,1254.811746
11.6350,119.8695182,21.41359851,1254.539963
11.6400,120.434836,21.0520508,1254.271487
11.6450,121.0010545,20.69779955,1254.006322
11.6500,121.5677363,20.34876231,1253.74404
11.6550,122.1322184,20.00517879,1253.485589
11.6600,122.6926389,19.66661284,1253.231466
11.6650,123.2473458,19.33241161,1252.982004
11.6700,123.7961154,19.00368636,1252.737475
11.6750,124.3376792,18.68045574,1252.498287
11.6800,124.871805,18.36189628,1252.264247
11.6850,125.3977881,18.04851152,1252.035648
11.6900,125.9137377,17.74123153,1251.813274
11.6950,126.4190259,17.4409943,1251.597471
11.7000,126.9140769,17.14852167,1251.3882
11.7050,127.3986554,16.8646346,1251.185653
11.7100,127.8726039,16.58961093,1250.989863
11.7150,128.3355134,16.32438126,1250.801153
11.7200,128.7867077,16.06823229,1250.619486
11.7250,129.2270705,15.82174372,1250.444673
11.7300,129.6558905,15.58424582,1250.276723
11.7350,130.0732365,15.3573957,1250.115946
11.7400,130.4775992,15.14007543,1249.962472
11.7450,130.8697501,14.93243574,1249.816027
11.7500,131.2496202,14.73441769,1249.676539
11.7550,131.6175521,14.54390073,1249.543328
11.7600,131.9742172,14.36147569,1249.41629
11.7650,132.3212614,14.18789734,1249.295032
11.7700,132.6586233,14.02081935,1249.179004
11.7750,132.9876893,13.86033144,1249.067725
11.7800,133.3089348,13.70604056,1248.960956
11.7850,133.6233216,13.55603726,1248.85791
11.7900,133.9311154,13.41120153,1248.758745
11.7950,134.2320949,13.27008467,1248.663125
11.8000,134.5272093,13.13311267,1248.570853
11.8050,134.8167855,12.99997203,1248.481733
11.8100,135.1016716,12.8693371,1248.395167
11.8150,135.3819776,12.73946885,1248.310698
11.8200,135.6595045,12.61234076,1248.228218
11.8250,135.9335828,12.48556694,1248.147329
11.8300,136.2049872,12.35993398,1248.067952
11.8350,136.4741949,12.23375725,1247.989516
11.8400,136.7405184,12.10844224,1247.912509
11.8450,137.0039911,11.982892,1247.836627
11.8500,137.2651425,11.85649749,1247.761539
11.8550,137.5235882,11.72958382,1247.687418
11.8600,137.7795014,11.60233886,1247.614263
11.8650,138.0342942,11.47324109,1247.541306
11.8700,138.2868336,11.34325666,1247.469057
11.8750,138.5373318,11.20884217,1247.396639
11.8800,138.7852532,11.06965402,1247.324122
11.8850,139.0308929,10.92539473,1247.251378
11.8900,139.2748744,10.77521039,1247.178026
11.8950,139.5167537,10.61880841,1247.104135
11.9000,139.7561622,10.45561347,1247.029677
11.9050,139.9934866,10.2848636,1246.954354
11.9100,140.2284676,10.10840608,1246.878635
11.9150,140.4601976,9.925554902,1246.802613
11.9200,140.6892388,9.737662442,1246.726435
11.9250,140.9153087,9.544893774,1246.650216
11.9300,141.1376837,9.347262882,1246.574188
11.9350,141.3568469,9.14530982,1246.49832
11.9400,141.5723837,8.93894659,1246.42272
11.9450,141.7829098,8.729979068,1246.348162
11.9500,141.9899113,8.52060478,1246.274713
11.9550,142.195192,8.311586023,1246.202015
11.9600,142.3999248,8.104219387,1246.130041
11.9650,142.6041768,7.899507145,1246.058994
11.9700,142.8088112,7.698117657,1245.988809
11.9750,143.0134816,7.501479934,1245.919869
11.9800,143.2187326,7.311028543,1245.852328
11.9850,143.4251956,7.128638404,1245.786426
11.9900,143.6341218,6.953568982,1245.721657
11.9950,143.8456385,6.785521806,1245.657942
12.0000,144.0587618,6.62424753,1245.595514
12.0050,144.2735411,6.468335009,1245.534032
12.0100,144.4894897,6.317697247,1245.47363
12.0150,144.7058321,6.171100549,1245.414257
12.0200,144.9233972,6.02831046,1245.355646
12.0250,145.142406,5.888901657,1245.297649
12.0300,145.3629886,5.752331725,1245.240123
12.0350,145.5851687,5.617418555,1245.182796
12.0400,145.8108295,5.484665887,1245.12528
12.0450,146.040557,5.353300425,1245.067249
12.0500,146.2739225,5.223824254,1245.008926
12.0550,146.5115266,5.096363521,1244.950161
12.0600,146.7529747,4.969639248,1244.890794
12.0650,146.9984025,4.843246229,1244.830683
12.0700,147.2477627,4.717134305,1244.769808
12.0750,147.5011335,4.589649457,1244.707785
12.0800,147.7576103,4.459691958,1244.6446
12.0850,148.0161731,4.327485828,1244.580549
12.0900,148.2770361,4.191144808,1244.515162
12.0950,148.5397497,4.050598475,1244.448528
12.1000,148.8036423,3.904136755,1244.380456
12.1050,149.0680525,3.750527522,1244.31087
12.1100,149.3328783,3.590220296,1244.239876
12.1150,149.5984984,3.422458906,1244.167245
12.1200,149.8641235,3.245808577,1244.092892
12.1250,150.1299669,3.060805913,1244.016902
12.1300,150.395905,2.867676856,1243.939371
12.1350,150.6606852,2.66650236,1243.860623
12.1400,150.9243864,2.45633487,1243.780469
12.1450,151.1871418,2.238050406,1243.699098
12.1500,151.4490999,2.011139024,1243.616391
12.1550,151.7091752,1.776933819,1243.532901
12.1600,151.9682744,1.534857922,1243.44833
12.1650,152.2254749,1.287089558,1243.363352
12.1700,152.4800965,1.033576866,1243.278139
12.1750,152.7325044,0.7768634169,1243.193145
12.1800,152.9837063,0.5181129773,1243.108339
12.1850,153.2327657,0.2583449913,1243.024165
12.1900,153.478783,-0.002409835329,1242.940837
12.1950,153.722066,-0.262602937,1242.858587
12.2000,153.9626027,-0.5213185965,1242.777588
12.2050,154.1999364,-0.7779251746,1242.698078
12.2100,154.4352156,-1.032052664,1242.619858
12.2150,154.6689263,-1.283204195,1242.542876
12.2200,154.9000631,-1.531065273,1242.467414
12.2250,155.1283814,-1.774915485,1242.393646
12.2300,155.3549862,-2.014524617,1242.32134
12.2350,155.5793408,-2.251386463,1242.250354
12.2400,155.8019329,-2.483929792,1242.180844
12.2450,156.0242537,-2.712907569,1242.112321
12.2500,156.2456035,-2.93718176,1242.045134
12.2550,156.4656995,-3.157751451,1241.979181
12.2600,156.6856961,-3.373641669,1241.914362
12.2650,156.906323,-3.584253248,1241.850603
12.2700,157.1285586,-3.789454822,1241.787701
12.2750,157.3525782,-3.989286204,1241.725591
12.2800,157.5795336,-4.183612418,1241.664031
12.2850,157.8094173,-4.372886127,1241.602938
12.2900,158.0420392,-4.55617837,1241.542524
12.2950,158.2772894,-4.732673626,1241.482935
12.3000,158.5158901,-4.903922055,1241.423711
12.3050,158.7585259,-5.068652147,1241.364938
12.3100,159.005225,-5.226224709,1241.306711
12.3150,159.2559667,-5.378084324,1241.248756
12.3200,159.509547,-5.524760128,1241.191241
12.3250,159.7643767,-5.666505091,1241.134455
12.3300,160.0211598,-5.803245314,1241.07822
12.3350,160.2799754,-5.936445712,1241.022302
12.3400,160.5394591,-6.066150381,1240.966968
12.3450,160.7983187,-6.193953358,1240.9122
12.3500,161.05636,-6.319328639,1240.858112
12.3550,161.3133412,-6.443723159,1240.804491
12.3600,161.5690799,-6.566954129,1240.751384
12.3650,161.8227446,-6.690383513,1240.69873
12.3700,162.0731939,-6.814350496,1240.646699
12.3750,162.3208089,-6.937983615,1240.595361
12.3800,162.5656527,-7.061410855,1240.544669
12.3850,162.8071402,-7.185128383,1240.494662
12.3900,163.0457752,-7.309197449,1240.445214
12.3950,163.2812801,-7.433527011,1240.396409
12.4000,163.5139414,-7.558618896,1240.348106
12.4050,163.7420366,-7.68368076,1240.300775
12.4100,163.9654154,-7.80914417,1240.254388
12.4150,164.1827475,-7.934750925,1240.209216
12.4200,164.3936982,-8.05949931,1240.165484
12.4250,164.5974215,-8.183520788,1240.123323
12.4300,164.7927758,-8.306822458,1240.082947
12.4350,164.9797057,-8.429938638,1240.04427
12.4400,165.1575262,-8.551952205,1240.007584
12.4450,165.3262581,-8.673750862,1239.9727
12.4500,165.484839,-8.795364947,1239.939829
12.4550,165.633564,-8.918000925,1239.908708
12.4600,165.7717141,-9.040970017,1239.879571
12.4650,165.8997068,-9.16534926,1239.852158
12.4700,166.0177678,-9.290660962,1239.826506
12.4750,166.126696,-9.415757506,1239.802619
12.4800,166.2256735,-9.540530394,1239.780684
12.4850,166.3164149,-9.665768311,1239.76022
12.4900,166.4000119,-9.78972855,1239.741301
12.4950,166.4775009,-9.912739503,1239.723675
12.5000,166.5495443,-10.03363619,1239.707393
12.5050,166.6185424,-10.15171499,1239.692091
12.5100,166.6844352,-10.26654434,1239.677852
12.5150,166.7480068,-10.37759595,1239.664616
12.5200,166.8112932,-10.48556649,1239.651873
12.5250,166.87484,-10.59011156,1239.639587
12.5300,166.9384494,-10.69132104,1239.627764
12.5350,167.0042413,-10.78764173,1239.616237
12.5400,167.073223,-10.87966892,1239.604721
12.5450,167.1464444,-10.96769025,1239.592966
12.5500,167.2223791,-11.05268459,1239.581119
12.5550,167.3033503,-11.13401495,1239.568814
12.5600,167.3888872,-11.21292705,1239.555948
12.5650,167.4802286,-11.28995066,1239.542201
12.5700,167.5767545,-11.3654227,1239.527632
12.5750,167.6795683,-11.44054029,1239.511859
12.5800,167.7879926,-11.51565811,1239.494961
12.5850,167.9021638,-11.5921049,1239.476702
12.5900,168.0227486,-11.6720813,1239.456616
12.5950,168.150283,-11.75630939,1239.43451
12.6000,168.285466,-11.84399107,1239.410402
12.6050,168.4276259,-11.93678053,1239.38416
12.6100,168.5771435,-12.03571802,1239.355558
12.6150,168.7340055,-12.13978932,1239.324775
12.6200,168.8983203,-12.24941566,1239.291726
12.6250,169.0719966,-12.36378631,1239.256188
12.6300,169.2540969,-12.48512694,1239.218025
12.6350,169.4446214,-12.61197035,1239.177456
12.6400,169.6439663,-12.74482254,1239.134342
12.6450,169.8517139,-12.88206383,1239.089033
12.6500,170.0669398,-13.02589692,1239.041379
12.6550,170.2895203,-13.17451213,1238.991711
12.6600,170.5177257,-13.32798786,1238.940333
12.6650,170.7502154,-13.48496381,1238.887706
12.6700,170.9865063,-13.64487182,1238.83401
12.6750,171.2243302,-13.80823931,1238.779581
12.6800,171.4634954,-13.97400371,1238.724637
12.6850,171.7018957,-14.14221187,1238.669541
12.6900,171.9377709,-14.31238998,1238.614679
12.6950,172.1702211,-14.48466915,1238.560187
12.7000,172.396865,-14.65729863,1238.506728
12.7050,172.617796,-14.83178678,1238.454074
12.7100,172.8310646,-15.00702015,1238.402704
12.7150,173.0352829,-15.18229223,1238.352953
12.7200,173.2292181,-15.35890433,1238.304827
12.7250,173.4117132,-15.53669326,1238.258538
12.7300,173.5819875,-15.71600009,1238.214138
12.7350,173.739816,-15.89622068,1238.17175
12.7400,173.883721,-16.07767536,1238.131555
12.7450,174.0127,-16.26027311,1238.09373
12.7500,174.1276057,-16.44279324,1238.05828
12.7550,174.2276571,-16.62467701,1238.025402
12.7600,174.3128402,-16.80674031,1237.994978
12.7650,174.3832112,-16.98833631,1237.967073
12.7700,174.4399758,-17.16874829,1237.941592
12.7750,174.4829479,-17.34783827,1237.918571
12.7800,174.5127938,-17.52449149,1237.898058
12.7850,174.5300505,-17.69850937,1237.879978
12.7900,174.5360616,-17.8697521,1237.86412
12.7950,174.5306463,-18.03764801,1237.850597
12.8000,174.5159227,-18.20213938,1237.839056
12.8050,174.4915427,-18.36378194,1237.829485
12.8100,174.4595966,-18.52313311,1237.821457
12.8150,174.4215097,-18.67889287,1237.81492
12.8200,174.377591,-18.83176412,1237.809719
12.8250,174.3287839,-18.9815896,1237.805718
12.8300,174.2776063,-19.12904727,1237.802421
12.8350,174.224054,-19.27449551,1237.799773
12.8400,174.1690129,-19.41829312,1237.797576
12.8450,174.1125438,-19.56136633,1237.795698
12.8500,174.0575556,-19.70396387,1237.793626
12.8550,174.003349,-19.84653605,1237.79142
12.8600,173.9519082,-19.98778267,1237.788911
12.8650,173.9033954,-20.12905101,1237.785905
12.8700,173.8590794,-20.27099423,1237.782104
12.8750,173.8195267,-20.41234272,1237.777572
12.8800,173.7858093,-20.55420766,1237.771989
12.8850,173.7586295,-20.69616484,1237.765292
12.8900,173.7391051,-20.83726098,1237.757412
12.8950,173.7283718,-20.97900884,1237.747974
12.9000,173.7254905,-21.12098295,1237.737175
12.9050,173.7303347,-21.2637339,1237.724974
12.9100,173.7423688,-21.40583357,1237.711648
12.9150,173.7619013,-21.54826539,1237.697027
12.9200,173.789091,-21.69053967,1237.681149
12.9250,173.8221933,-21.83321189,1237.664239
12.9300,173.8610995,-21.97483543,1237.646488
12.9350,173.9047371,-22.11644734,1237.627955
12.9400,173.9510078,-22.25860394,1237.608925
12.9450,174.000135,-22.40077621,1237.589428
12.9500,174.0503204,-22.54244371,1237.569828
12.9550,174.1012689,-22.68297541,1237.550238
12.9600,174.1513335,-22.82328423,1237.530825
12.9650,174.2002189,-22.96361199,1237.51161
12.9700,174.2465576,-23.10387513,1237.492827
12.9750,174.2896499,-23.24332654,1237.474681
12.9800,174.328009,-23.38180201,1237.457413
12.9850,174.3609607,-23.51911958,1237.441158
12.9900,174.3885136,-23.65453162,1237.426006
12.9950,174.4100563,-23.78786787,1237.41207
13.0000,174.4249939,-23.91945773,1237.399397
13.0050,174.4328554,-24.04827214,1237.388174
13.0100,174.4338947,-24.17468967,1237.378316
13.0150,174.4277511,-24.29818878,1237.369945
13.0200,174.4147063,-24.41875778,1237.363005
13.0250,174.3949457,-24.53495632,1237.357624
13.0300,174.3688532,-24.6482288,1237.353583
13.0350,174.3366439,-24.7570924,1237.351
13.0400,174.299215,-24.86244528,1237.349612
13.0450,174.2571136,-24.96320775,1237.349447
13.0500,174.2105219,-25.05926494,1237.350475
13.0550,174.1597275,-25.15189836,1237.3525
13.0600,174.105899,-25.23896559,1237.35556
13.0650,174.0490159,-25.32122267,1237.359563
13.0700,173.9885765,-25.39846762,1237.364598
13.0750,173.9247694,-25.47097717,1237.370597
13.0800,173.858563,-25.53942393,1237.377314
13.0850,173.7894778,-25.60209306,1237.385022
13.0900,173.717226,-25.65920797,1237.393731
13.0950,173.6419542,-25.71149132,1237.403327
13.1000,173.5633699,-25.75770284,1237.414
13.1050,173.481998,-25.79709258,1237.425744
13.1100,173.3968491,-25.82999046,1237.438678
13.1150,173.3073954,-25.85570944,1237.452979
13.1200,173.2147959,-25.87448889,1237.468431
13.1250,173.1198704,-25.88566542,1237.484966
13.1300,173.02145,-25.88920314,1237.502797
13.1350,172.921596,-25.88497352,1237.521595
13.1400,172.8200109,-25.87401147,1237.541301
13.1450,172.7190575,-25.85479602,1237.561698
13.1500,172.6190873,-25.82785457,1237.582659
13.1550,172.5223323,-25.79427402,1237.603705
13.1600,172.4295347,-25.75528344,1237.624577
13.1650,172.3418415,-25.71105555,1237.645048
13.1700,172.2606175,-25.66190687,1237.664862
13.1750,172.1869426,-25.60911567,1237.683693
13.1800,172.1214392,-25.55163674,1237.701559
13.1850,172.0660824,-25.49080463,1237.717971
13.1900,172.0202583,-25.42717091,1237.732972
13.1950,171.9854004,-25.36012738,1237.746387
13.2000,171.9620985,-25.29114678,1237.757947
13.2050,171.9518746,-25.21863198,1237.767582
13.2100,171.9532223,-25.14554302,1237.775212
13.2150,171.9669657,-25.07129338,1237.78076
13.2200,171.9916305,-24.99623842,1237.78444
13.2250,172.0271267,-24.92171172,1237.786131
13.2300,172.0717582,-24.84705165,1237.786194
13.2350,172.1251549,-24.77203491,1237.784721
13.2400,172.1862459,-24.69783226,1237.781779
13.2450,172.253549,-24.62420921,1237.777646
13.2500,172.3260345,-24.55232171,1237.772351
13.2550,172.401112,-24.48338827,1237.766215
13.2600,172.4777048,-24.41609402,1237.759565
13.2650,172.554448,-24.35060877,1237.752618
13.2700,172.6310062,-24.28745735,1237.745365
13.2750,172.7061971,-24.22678399,1237.73799
13.2800,172.7791521,-24.1691686,1237.730571
13.2850,172.8509236,-24.11406487,1237.722996
13.2900,172.9196417,-24.06259071,1237.715423
13.2950,172.985876,-24.01418768,1237.707822
13.3000,173.0498235,-23.97018414,1237.700003
13.3050,173.1121959,-23.92940674,1237.691972
13.3100,173.1713852,-23.89176426,1237.683997
13.3150,173.2287206,-23.85835793,1237.675715
13.3200,173.2825916,-23.82755166,1237.667589
13.3250,173.3334517,-23.80092387,1237.659341
13.3300,173.3813377,-23.77671284,1237.651163
13.3350,173.4254307,-23.75509663,1237.643163
13.3400,173.4660134,-23.73483365,1237.635444
13.3450,173.5030341,-23.71619027,1237.62797
13.3500,173.5347095,-23.70000087,1237.620943
13.3550,173.5613793,-23.68458144,1237.614497
13.3600,173.5808048,-23.6713611,1237.608835
13.3650,173.5925326,-23.65827366,1237.604267
13.3700,173.5963269,-23.64625358,1237.600725
13.3750,173.5906664,-23.63478904,1237.598522
13.3800,173.5752844,-23.62331726,1237.597773
13.3850,173.5498429,-23.61283014,1237.598406
13.3900,173.5131937,-23.60185486,1237.600799
13.3950,173.4657272,-23.59086872,1237.604831
13.4000,173.4079215,-23.5807473,1237.610333
13.4050,173.3394515,-23.57150283,1237.617351
13.4100,173.2614499,-23.56205554,1237.625839
13.4150,173.1747151,-23.55377685,1237.635493
13.4200,173.0791789,-23.54568136,1237.646458
13.4250,172.9746631,-23.53825425,1237.658713
13.4300,172.8643286,-23.53121593,1237.671752
13.4350,172.7486276,-23.5250058,1237.685461
13.4400,172.6287024,-23.51797987,1237.699849
13.4450,172.5050153,-23.51094302,1237.714733
13.4500,172.3787921,-23.50425123,1237.729876
13.4550,172.2503504,-23.4967384,1237.745366
13.4600,172.1202381,-23.48771564,1237.761184
13.4650,171.9894978,-23.47599377,1237.777305
13.4700,171.8590454,-23.46185043,1237.793543
13.4750,171.7295048,-23.44516052,1237.809806
13.4800,171.6012629,-23.42574191,1237.826042
13.4850,171.4746719,-23.40406107,1237.84214
13.4900,171.3506273,-23.37961465,1237.858011
13.4950,171.2289854,-23.35343498,1237.873543
13.5000,171.1095226,-23.32413134,1237.888956
13.5050,170.9918578,-23.29388645,1237.904043
13.5100,170.8774001,-23.26226078,1237.918616
13.5150,170.7650496,-23.22903417,1237.932897
13.5200,170.656254,-23.19433753,1237.946618
13.5250,170.5519675,-23.15793294,1237.959641
13.5300,170.4540257,-23.12047074,1237.971555
13.5350,170.3616283,-23.08327359,1237.98235
13.5400,170.2761571,-23.04503106,1237.991925
13.5450,170.1985475,-23.00735234,1237.999921
13.5500,170.1296153,-22.96842242,1238.006417
13.5550,170.0692961,-22.92838049,1238.011388
13.5600,170.019231,-22.88765398,1238.014493
13.5650,169.9801708,-22.84673576,1238.015535
13.5700,169.9524122,-22.80468,1238.01457
13.5750,169.9354437,-22.76156665,1238.011669
13.5800,169.9297257,-22.71832216,1238.006635
13.5850,169.9342741,-22.67442091,1237.999707
13.5900,169.9488975,-22.62984984,1237.990926
13.5950,169.9731067,-22.58500102,1237.980341
13.6000,170.0054295,-22.53852631,1237.968367
13.6050,170.04497,-22.49233275,1237.954944
13.6100,170.0931014,-22.44625398,1237.939842
13.6150,170.1472945,-22.3994577,1237.923618
13.6200,170.2080971,-22.3517914,1237.906199
13.6250,170.2736156,-22.3033743,1237.887922
13.6300,170.3432872,-22.25411891,1237.868902
13.6350,170.4178326,-22.20440025,1237.848976
13.6400,170.4959634,-22.15470821,1237.828299
13.6450,170.5778441,-22.10486977,1237.806868
13.6500,170.6631233,-22.05333697,1237.784943
13.6550,170.751343,-22.0015095,1237.762428
13.6600,170.8426433,-21.94781107,1237.739482
13.6650,170.9375922,-21.89360387,1237.715856
13.6700,171.0356264,-21.83834503,1237.6917
13.6750,171.1381077,-21.78094602,1237.666917
13.6800,171.2434016,-21.72205855,1237.641692
13.6850,171.3508804,-21.6622486,1237.616074
13.6900,171.4616075,-21.60201491,1237.589801
13.6950,171.5742354,-21.5411065,1237.563146
13.7000,171.6882961,-21.47922718,1237.536215
13.7050,171.8031031,-21.41664316,1237.509096
13.7100,171.9182336,-21.35260855,1237.481955
13.7150,172.0330492,-21.28741163,1237.454877
13.7200,172.1476006,-21.22236685,1237.427672
13.7250,172.2619039,-21.15718455,1237.400388
13.7300,172.3733425,-21.09184972,1237.373477
13.7350,172.4814796,-21.02703013,1237.346922
13.7400,172.5868486,-20.96185037,1237.320739
13.7450,172.6881821,-20.89702922,1237.295073
13.7500,172.7857098,-20.831034,1237.270061
13.7550,172.879271,-20.76480842,1237.245602
13.7600,172.9674224,-20.6973723,1237.222079
13.7650,173.0509147,-20.62950266,1237.199257
13.7700,173.1297273,-20.56046309,1237.177239
13.7750,173.2035231,-20.4895953,1237.156148
