type,name,time_units,begin_time,frequency,count,units
signal_3d,"Noraxon MyoMotion-Trajectories-Lateral humeral epicondyle RT","s",0.0000,200,5068,"mm"

time,x,y,z
0.0000,204.9239805,-2.675315679,1240.418276
0.0050,204.9316043,-2.686015163,1240.416039
0.0100,204.9392287,-2.696714379,1240.413802
0.0150,204.9468536,-2.707413327,1240.411566
0.0200,204.9550612,-2.71976299,1240.409079
0.0250,204.9637831,-2.733824614,1240.406347
0.0300,204.9729429,-2.749618423,1240.40338
0.0350,204.9824597,-2.767121738,1240.400192
0.0400,204.992245,-2.786281769,1240.396801
0.0450,205.0022024,-2.807032135,1240.393226
0.0500,205.0122333,-2.829300577,1240.389479
0.0550,205.0222464,-2.853008406,1240.385573
0.0600,205.0321615,-2.878068181,1240.381516
0.0650,205.0419114,-2.904379622,1240.37731
0.0700,205.0514417,-2.931822471,1240.372962
0.0750,205.0607091,-2.96025108,1240.368475
0.0800,205.0696782,-2.989496106,1240.36386
0.0850,205.0783159,-3.019373646,1240.359127
0.0900,205.0865898,-3.049697215,1240.354287
0.0950,205.0944719,-3.080285988,1240.349353
0.1000,205.1019445,-3.110966276,1240.344336
0.1050,205.1089988,-3.141567383,1240.339247
0.1100,205.1156264,-3.171913968,1240.334102
0.1150,205.121813,-3.201819522,1240.328922
0.1200,205.1275336,-3.231085688,1240.323738
0.1250,205.1327473,-3.259507739,1240.318587
0.1300,205.1373902,-3.286884336,1240.313515
0.1350,205.141373,-3.313027299,1240.308573
0.1400,205.1445816,-3.337766447,1240.303813
0.1450,205.1468811,-3.360950193,1240.299293
0.1500,205.1481231,-3.382445622,1240.295071
0.1550,205.1568203,-3.421852414,1240.28677
0.1600,205.1658247,-3.459981887,1240.278487
0.1650,205.1738349,-3.496686462,1240.270539
0.1700,205.1810333,-3.53104537,1240.262987
0.1750,205.1866693,-3.563969218,1240.255942
0.1800,205.1914185,-3.594564408,1240.249324
0.1850,205.195803,-3.62239538,1240.243117
0.1900,205.1994196,-3.647083983,1240.237604
0.1950,205.2018304,-3.669625199,1240.232594
0.2000,205.2033296,-3.690706727,1240.227952
0.2050,205.2036867,-3.708977707,1240.223919
0.2100,205.2036283,-3.725564444,1240.220191
0.2150,205.2027874,-3.741050552,1240.216787
0.2200,205.2026683,-3.754718134,1240.213568
0.2250,205.2038128,-3.767107543,1240.210413
0.2300,205.205646,-3.777912449,1240.207425
0.2350,205.2088626,-3.786216426,1240.204624
0.2400,205.2132528,-3.793655747,1240.201874
0.2450,205.218599,-3.80030893,1240.199142
0.2500,205.2262893,-3.806308726,1240.19611
0.2550,205.2364905,-3.812217712,1240.192755
0.2600,205.2502115,-3.818719074,1240.188754
0.2650,205.2664133,-3.824245407,1240.184578
0.2700,205.285809,-3.829855225,1240.179947
0.2750,205.3083483,-3.834506436,1240.175089
0.2800,205.3340231,-3.838133786,1240.169969
0.2850,205.3620783,-3.840595614,1240.164741
0.2900,205.3925675,-3.843423293,1240.159115
0.2950,205.4253356,-3.845568163,1240.153302
0.3000,205.4595518,-3.84694108,1240.147436
0.3050,205.494841,-3.847879608,1240.141442
0.3100,205.5319585,-3.848424952,1240.135264
0.3150,205.5704546,-3.848470919,1240.128984
0.3200,205.6099795,-3.847473413,1240.122752
0.3250,205.649309,-3.846020611,1240.116724
0.3300,205.6894707,-3.844622986,1240.110701
0.3350,205.7293751,-3.843907902,1240.104717
0.3400,205.7691767,-3.842916863,1240.098858
0.3450,205.8092768,-3.842355486,1240.092984
0.3500,205.8492755,-3.841466111,1240.087277
0.3550,205.8898908,-3.840812111,1240.081512
0.3600,205.9306373,-3.840596025,1240.075808
0.3650,205.9714078,-3.840913575,1240.070017
0.3700,206.012299,-3.842001094,1240.06417
0.3750,206.0532286,-3.843996326,1240.058329
0.3800,206.0941548,-3.846958238,1240.052341
0.3850,206.1351838,-3.851563087,1240.046129
0.3900,206.1753554,-3.857865347,1240.039846
0.3950,206.2163484,-3.865010471,1240.033338
0.4000,206.2581561,-3.874510895,1240.026407
0.4050,206.3001481,-3.885991928,1240.019183
0.4100,206.3418937,-3.898904288,1240.011818
0.4150,206.3835694,-3.913761994,1240.004181
0.4200,206.4252314,-3.930462,1239.99621
0.4250,206.466182,-3.949008501,1239.987895
0.4300,206.5075393,-3.969392098,1239.979216
0.4350,206.5493951,-3.991995556,1239.97005
0.4400,206.5915542,-4.016327287,1239.960545
0.4450,206.6343313,-4.041575242,1239.950758
0.4500,206.6770566,-4.068685423,1239.940562
0.4550,206.7203212,-4.096980767,1239.930009
0.4600,206.7638431,-4.126080595,1239.919258
0.4650,206.8088914,-4.155397892,1239.908119
0.4700,206.8547399,-4.185628946,1239.896719
0.4750,206.9014391,-4.216549192,1239.884921
0.4800,206.9492394,-4.24840012,1239.87276
0.4850,206.996675,-4.280023953,1239.860662
0.4900,207.0449784,-4.312709415,1239.848194
0.4950,207.0929906,-4.344843131,1239.835786
0.5000,207.1405269,-4.376908907,1239.823485
0.5050,207.1882504,-4.409871586,1239.811052
0.5100,207.2354837,-4.442303712,1239.798734
0.5150,207.2824206,-4.474811629,1239.786434
0.5200,207.327906,-4.508038066,1239.77423
0.5250,207.3717701,-4.541190886,1239.762304
0.5300,207.4144025,-4.574498592,1239.75059
0.5350,207.455315,-4.608718532,1239.739034
0.5400,207.4953823,-4.643552491,1239.72754
0.5450,207.5336856,-4.67968871,1239.716118
0.5500,207.5701952,-4.716315122,1239.705034
0.5550,207.6060851,-4.75309479,1239.694045
0.5600,207.6402822,-4.791015864,1239.683145
0.5650,207.6736037,-4.829764454,1239.672313
0.5700,207.7056575,-4.869818105,1239.661524
0.5750,207.7373188,-4.910771142,1239.650646
0.5800,207.7687029,-4.953117652,1239.639624
0.5850,207.7996453,-4.997390217,1239.628347
0.5900,207.8307442,-5.04156682,1239.617142
0.5950,207.8621289,-5.087078999,1239.605631
0.6000,207.8938328,-5.13435644,1239.593778
0.6050,207.9249784,-5.181882923,1239.582002
0.6100,207.9566209,-5.229113235,1239.570227
0.6150,207.9880596,-5.276880616,1239.55842
0.6200,208.0200386,-5.325771192,1239.546373
0.6250,208.0517966,-5.374513948,1239.534396
0.6300,208.0829624,-5.42301574,1239.52246
0.6350,208.1137858,-5.470581769,1239.510806
0.6400,208.1455226,-5.517205337,1239.499149
0.6450,208.1764984,-5.563547191,1239.487603
0.6500,208.2080167,-5.609892514,1239.475953
0.6550,208.2383539,-5.654706603,1239.464747
0.6600,208.2678908,-5.698767865,1239.45376
0.6650,208.2965259,-5.742417615,1239.443
0.6700,208.3242072,-5.785004922,1239.432467
0.6750,208.351455,-5.827028897,1239.422049
0.6800,208.3781798,-5.867920863,1239.411842
0.6850,208.4048286,-5.9067029,1239.401957
0.6900,208.4318648,-5.944891662,1239.392105
0.6950,208.4571949,-5.982419835,1239.382548
0.7000,208.4818027,-6.018408219,1239.373332
0.7050,208.5061588,-6.052934402,1239.364315
0.7100,208.5296272,-6.086992495,1239.355338
0.7150,208.5532776,-6.11924919,1239.346516
0.7200,208.5770133,-6.150782747,1239.337747
0.7250,208.600474,-6.181253641,1239.32915
0.7300,208.6236482,-6.210206912,1239.320708
0.7350,208.6466527,-6.237799935,1239.312412
0.7400,208.6688297,-6.264987193,1239.304231
0.7450,208.6900863,-6.291510373,1239.296175
0.7500,208.7106744,-6.317318521,1239.288301
0.7550,208.7296677,-6.342451876,1239.280726
0.7600,208.7477842,-6.366103861,1239.27345
0.7650,208.7653839,-6.388761611,1239.266355
0.7700,208.7829543,-6.411449079,1239.259193
0.7750,208.7995472,-6.432766328,1239.252403
0.7800,208.8150712,-6.453175691,1239.245845
0.7850,208.8304536,-6.472757071,1239.23938
0.7900,208.8455405,-6.491491352,1239.233056
0.7950,208.8602866,-6.509928266,1239.226801
0.8000,208.8751427,-6.527619463,1239.220666
0.8050,208.8889741,-6.544499021,1239.21473
0.8100,208.9022726,-6.560620402,1239.208981
0.8150,208.9155183,-6.575483976,1239.203445
0.8200,208.9276178,-6.589507076,1239.198128
0.8250,208.9396402,-6.60326738,1239.192808
0.8300,208.9504739,-6.61668102,1239.187653
0.8350,208.9606679,-6.630280693,1239.182495
0.8400,208.9692882,-6.642545024,1239.177753
0.8450,208.978334,-6.654512999,1239.172976
0.8500,208.9868791,-6.666113054,1239.168279
0.8550,208.9939107,-6.677247418,1239.163907
0.8600,209.0000873,-6.687421067,1239.159838
0.8650,209.0053593,-6.697466503,1239.155874
0.8700,209.0103607,-6.705871175,1239.15218
0.8750,209.0145938,-6.713539429,1239.14881
0.8800,209.0192523,-6.719934705,1239.145581
0.8850,209.0239426,-6.724978272,1239.142639
0.8900,209.0288899,-6.729626603,1239.1397
0.8950,209.0336984,-6.732794881,1239.137115
0.9000,209.039204,-6.734536826,1239.134762
0.9050,209.0460057,-6.736301099,1239.132293
0.9100,209.0532418,-6.737592356,1239.129878
0.9150,209.061202,-6.738007311,1239.127533
0.9200,209.0697856,-6.736478982,1239.125465
0.9250,209.0796328,-6.734624929,1239.123259
0.9300,209.090695,-6.731458521,1239.121214
0.9350,209.1030714,-6.727529986,1239.119042
0.9400,209.1155416,-6.722742546,1239.117079
0.9450,209.1290745,-6.716661228,1239.115212
0.9500,209.1416502,-6.709268291,1239.113705
0.9550,209.155049,-6.701550474,1239.112089
0.9600,209.169153,-6.693558099,1239.110427
0.9650,209.1834234,-6.683815544,1239.108958
0.9700,209.1982099,-6.673357706,1239.10753
0.9750,209.2123401,-6.662632605,1239.106194
0.9800,209.2256656,-6.651109051,1239.105039
0.9850,209.2390721,-6.639825539,1239.103788
0.9900,209.250894,-6.627695398,1239.102788
0.9950,209.2621915,-6.614878253,1239.101915
1.0000,209.2726894,-6.602288212,1239.101056
1.0050,209.2828173,-6.589451745,1239.100185
1.0100,209.2921384,-6.576006469,1239.099516
1.0150,209.3004841,-6.562430171,1239.09892
1.0200,209.3073083,-6.54777567,1239.098626
1.0250,209.3130134,-6.53309963,1239.098418
1.0300,209.3173949,-6.518415825,1239.098358
1.0350,209.320893,-6.503280723,1239.098455
1.0400,209.323544,-6.48774482,1239.098562
1.0450,209.325661,-6.472802454,1239.098583
1.0500,209.3273674,-6.457518398,1239.098676
1.0550,209.329154,-6.441898092,1239.098681
1.0600,209.329448,-6.426823937,1239.098717
1.0650,209.3277818,-6.412305847,1239.0988
1.0700,209.324611,-6.397406047,1239.099067
1.0750,209.3198231,-6.382083116,1239.09954
1.0800,209.3129271,-6.367424955,1239.100204
1.0850,209.3048719,-6.352945166,1239.100917
1.0900,209.2938367,-6.338801483,1239.101951
1.0950,209.2817651,-6.324567428,1239.103119
1.1000,209.2686569,-6.311281538,1239.104208
1.1050,209.2546232,-6.298005028,1239.105344
1.1100,209.2391275,-6.28573121,1239.106579
1.1150,209.2214216,-6.275031026,1239.107839
1.1200,209.2031248,-6.264982725,1239.109138
1.1250,209.1826556,-6.255894319,1239.110628
1.1300,209.1616998,-6.247297977,1239.112164
1.1350,209.1404213,-6.238125399,1239.113888
1.1400,209.1189046,-6.229767448,1239.115518
1.1450,209.096238,-6.22106178,1239.117436
1.1500,209.0735186,-6.212925248,1239.119232
1.1550,209.0509235,-6.20584547,1239.120829
1.1600,209.028348,-6.198618366,1239.122496
1.1650,209.0069932,-6.191806309,1239.123954
1.1700,208.9858154,-6.185798394,1239.125309
1.1750,208.9647903,-6.180517668,1239.126526
1.1800,208.9433384,-6.175877932,1239.127794
1.1850,208.9222327,-6.171776357,1239.12896
1.1900,208.9024062,-6.167238073,1239.130185
1.1950,208.8821437,-6.164106515,1239.131338
1.2000,208.8623408,-6.16087857,1239.132526
1.2050,208.8425385,-6.156590409,1239.134014
1.2100,208.8221634,-6.15171566,1239.135739
1.2150,208.8015881,-6.145730005,1239.137754
1.2200,208.7809046,-6.140185132,1239.139721
1.2250,208.7605496,-6.134595922,1239.141712
1.2300,208.7401971,-6.129493059,1239.143481
1.2350,208.7213007,-6.124397679,1239.14495
1.2400,208.7035629,-6.119839394,1239.145953
1.2450,208.687636,-6.116419291,1239.146311
1.2500,208.6745894,-6.11363327,1239.145866
1.2550,208.6631793,-6.111528903,1239.144787
1.2600,208.6540072,-6.11010487,1239.142995
1.2650,208.647356,-6.11094824,1239.140274
1.2700,208.6438261,-6.113029939,1239.136682
1.2750,208.6430825,-6.115810042,1239.132312
1.2800,208.6456875,-6.121284608,1239.126867
1.2850,208.6503908,-6.127966928,1239.120736
1.2900,208.6595335,-6.13551511,1239.113621
1.2950,208.6721705,-6.144335203,1239.105613
1.3000,208.6881761,-6.154508216,1239.096659
1.3050,208.7072672,-6.165509426,1239.086894
1.3100,208.7305922,-6.17781096,1239.076113
1.3150,208.756438,-6.190853388,1239.06463
1.3200,208.7849976,-6.205570938,1239.052208
1.3250,208.8161319,-6.221215363,1239.038913
1.3300,208.8501626,-6.23781862,1239.024616
1.3350,208.8872575,-6.255885523,1239.009102
1.3400,208.9264687,-6.274885433,1238.99262
1.3450,208.9681775,-6.295219339,1238.974929
1.3500,209.0125089,-6.316964133,1238.955913
1.3550,209.0597214,-6.341144988,1238.935406
1.3600,209.1111311,-6.367386686,1238.913275
1.3650,209.1660531,-6.396262334,1238.889503
1.3700,209.2236547,-6.427845106,1238.864131
1.3750,209.2849068,-6.46348151,1238.836853
1.3800,209.3504077,-6.501309996,1238.807784
1.3850,209.4190089,-6.542396516,1238.776989
1.3900,209.4908601,-6.585901867,1238.744468
1.3950,209.5642816,-6.633880901,1238.710201
1.4000,209.6386908,-6.683847323,1238.674585
1.4050,209.7135267,-6.737857982,1238.637364
1.4100,209.7877745,-6.795398447,1238.598695
1.4150,209.8611229,-6.856779838,1238.558521
1.4200,209.9319317,-6.921813765,1238.517094
1.4250,210.000388,-6.98999671,1238.474435
1.4300,210.0657981,-7.06206406,1238.430429
1.4350,210.1272335,-7.13836038,1238.385151
1.4400,210.1848777,-7.21831822,1238.338666
1.4450,210.2385733,-7.302410269,1238.290906
1.4500,210.2875911,-7.390032831,1238.242105
1.4550,210.3328885,-7.481671734,1238.192033
1.4600,210.3742312,-7.577461888,1238.14059
1.4650,210.411178,-7.677104492,1238.087959
1.4700,210.4456779,-7.78079012,1238.033824
1.4750,210.4774995,-7.888738918,1237.97811
1.4800,210.5079266,-8.000733639,1237.920618
1.4850,210.5368107,-8.116964471,1237.861358
1.4900,210.5647998,-8.236990742,1237.800183
1.4950,210.594116,-8.36048863,1237.736896
1.5000,210.6242826,-8.487907267,1237.671443
1.5050,210.6562961,-8.619818682,1237.60363
1.5100,210.6898281,-8.757044992,1237.533439
1.5150,210.7242011,-8.899055245,1237.461003
1.5200,210.7604873,-9.046305711,1237.38609
1.5250,210.7981303,-9.197206907,1237.309114
1.5300,210.8369095,-9.352654366,1237.229949
1.5350,210.8750399,-9.514040091,1237.148641
1.5400,210.9127185,-9.679849667,1237.065445
1.5450,210.9493849,-9.850410821,1236.980419
1.5500,210.9841209,-10.02609645,1236.893637
1.5550,211.0174782,-10.20677879,1236.805129
1.5600,211.0490318,-10.39121665,1236.715018
1.5650,211.0797382,-10.57911974,1236.623288
1.5700,211.1072689,-10.77016073,1236.530411
1.5750,211.1339071,-10.96363263,1236.43618
1.5800,211.1590085,-11.15927247,1236.340759
1.5850,211.1837241,-11.35720919,1236.243984
1.5900,211.2073842,-11.55711233,1236.14606
1.5950,211.2310136,-11.75928809,1236.046771
1.6000,211.2540158,-11.96292079,1235.946357
1.6050,211.276896,-12.16880137,1235.844614
1.6100,211.2990772,-12.37667254,1235.741561
1.6150,211.3215769,-12.58746412,1235.636902
1.6200,211.344569,-12.80018253,1235.530667
1.6250,211.3677422,-13.01550816,1235.422912
1.6300,211.3908084,-13.23265635,1235.313765
1.6350,211.4137173,-13.4527944,1235.202987
1.6400,211.4366757,-13.67629637,1235.090494
1.6450,211.4606535,-13.90175899,1234.976287
1.6500,211.4860254,-14.12975935,1234.860127
1.6550,211.5124176,-14.36089408,1234.741848
1.6600,211.5400062,-14.59532912,1234.621322
1.6650,211.5694404,-14.83266833,1234.49848
1.6700,211.6020548,-15.07346652,1234.37295
1.6750,211.6379415,-15.31709556,1234.244735
1.6800,211.6768495,-15.56546659,1234.113591
1.6850,211.7186767,-15.81790942,1233.979571
1.6900,211.7643374,-16.0755044,1233.8425
1.6950,211.8155641,-16.33645807,1233.702328
1.7000,211.8707897,-16.60278318,1233.559086
1.7050,211.9313843,-16.87298684,1233.412892
1.7100,211.9980097,-17.14703364,1233.263692
1.7150,212.0703249,-17.42341937,1233.111887
1.7200,212.1488321,-17.70267645,1232.95736
1.7250,212.2321615,-17.98403982,1232.800352
1.7300,212.3195303,-18.26746966,1232.641169
1.7350,212.4104011,-18.55332988,1232.479872
1.7400,212.5032037,-18.84033589,1232.316772
1.7450,212.5980569,-19.12809657,1232.152035
1.7500,212.6938654,-19.41578804,1231.985903
1.7550,212.78834,-19.70188408,1231.818873
1.7600,212.8817207,-19.98722262,1231.650919
1.7650,212.9731447,-20.27051211,1231.482268
1.7700,213.0609139,-20.55042505,1231.313408
1.7750,213.1456624,-20.82598216,1231.144461
1.7800,213.2258965,-21.0968171,1230.975865
1.7850,213.3021609,-21.36165938,1230.807693
1.7900,213.3734043,-21.62173716,1230.640111
1.7950,213.4386879,-21.87490528,1230.473556
1.8000,213.4978457,-22.12128353,1230.308066
1.8050,213.5498718,-22.35990322,1230.143996
1.8100,213.5954324,-22.5905566,1229.981285
1.8150,213.6347407,-22.81367045,1229.819953
1.8200,213.6658235,-23.02722817,1229.660469
1.8250,213.6885639,-23.23339933,1229.502396
1.8300,213.7031046,-23.43099874,1229.345987
1.8350,213.709351,-23.61940451,1229.191329
1.8400,213.7069082,-23.79992345,1229.038246
1.8450,213.69568,-23.97198625,1228.886794
1.8500,213.6750704,-24.13565297,1228.737049
1.8550,213.6453302,-24.29032984,1228.589023
1.8600,213.6050283,-24.43762579,1228.442798
1.8650,213.5541407,-24.57656592,1228.298423
1.8700,213.4932176,-24.70872509,1228.155542
1.8750,213.4209241,-24.83424288,1228.014503
1.8800,213.338111,-24.95325769,1227.875091
1.8850,213.244126,-25.06589978,1227.737402
1.8900,213.1387567,-25.17420072,1227.601192
1.8950,213.0222952,-25.27762892,1227.466622
1.9000,212.8950817,-25.37616307,1227.333566
1.9050,212.7579472,-25.47019146,1227.201998
1.9100,212.6109112,-25.56028265,1227.07188
1.9150,212.4546395,-25.64574176,1226.943163
1.9200,212.2908769,-25.72742357,1226.815603
1.9250,212.1199191,-25.80513285,1226.689106
1.9300,211.9432924,-25.88000134,1226.563335
1.9350,211.7617116,-25.95028375,1226.438492
1.9400,211.5756415,-26.01552082,1226.314402
1.9450,211.3847246,-26.07577185,1226.19113
1.9500,211.1889818,-26.13093201,1226.068744
1.9550,210.9898953,-26.17978419,1225.947217
1.9600,210.7871062,-26.2230935,1225.826514
1.9650,210.5813877,-26.2606367,1225.706604
1.9700,210.3723852,-26.29258645,1225.58759
1.9750,210.1598193,-26.31912026,1225.469532
1.9800,209.9450173,-26.33833096,1225.352492
1.9850,209.7282294,-26.35134559,1225.236312
1.9900,209.5093349,-26.35731463,1225.121161
1.9950,209.2877281,-26.35693588,1225.007039
2.0000,209.0646709,-26.34877936,1224.893986
2.0050,208.8396379,-26.33363928,1224.782022
2.0100,208.6144837,-26.31063252,1224.671069
2.0150,208.3896854,-26.28006353,1224.560937
2.0200,208.1655377,-26.24158445,1224.451624
2.0250,207.9435758,-26.19547196,1224.343008
2.0300,207.7252504,-26.14044408,1224.234906
2.0350,207.5105375,-26.07570076,1224.127415
2.0400,207.3008146,-26.00085205,1224.020394
2.0450,207.0957999,-25.91568114,1223.913847
2.0500,206.8966885,-25.8200778,1223.807662
2.0550,206.705602,-25.71358758,1223.701569
2.0600,206.5217759,-25.59529456,1223.595771
2.0650,206.3449608,-25.4648122,1223.490406
2.0700,206.1754616,-25.32279231,1223.385263
2.0750,206.0144226,-25.16843275,1223.280253
2.0800,205.8611038,-25.00159367,1223.175516
2.0850,205.7151652,-24.82220248,1223.071063
2.0900,205.5753759,-24.62954271,1222.967056
2.0950,205.4416533,-24.4243548,1222.863424
2.1000,205.3143061,-24.20696847,1222.760056
2.1050,205.1917122,-23.97802691,1222.657062
2.1100,205.0736537,-23.73758292,1222.554521
2.1150,204.9583092,-23.48678415,1222.452561
2.1200,204.8465045,-23.22558274,1222.351105
2.1250,204.7374894,-22.95455944,1222.250355
2.1300,204.6308134,-22.67464056,1222.150273
2.1350,204.5263108,-22.3861267,1222.050883
2.1400,204.422846,-22.08895564,1221.952345
2.1450,204.3191743,-21.78389992,1221.854827
2.1500,204.2156874,-21.47150393,1221.758173
2.1550,204.1124231,-21.15234313,1221.662224
2.1600,204.0104657,-20.82685463,1221.566766
2.1650,203.9085632,-20.49519921,1221.471897
2.1700,203.8071525,-20.15621874,1221.377658
2.1750,203.7074201,-19.81077494,1221.283744
2.1800,203.6082869,-19.45837418,1221.190347
2.1850,203.5109039,-19.09988468,1221.097255
2.1900,203.414719,-18.73480137,1221.004713
2.1950,203.3196427,-18.36307329,1220.912661
2.2000,203.2253507,-17.98531837,1220.82118
2.2050,203.1310977,-17.60152053,1220.730344
2.2100,203.0378123,-17.2115541,1220.640049
2.2150,202.9436127,-16.81563396,1220.550793
2.2200,202.8482619,-16.41268425,1220.462723
2.2250,202.7511085,-16.00371128,1220.37595
2.2300,202.6515473,-15.58829269,1220.29065
2.2350,202.5480764,-15.16811313,1220.206864
2.2400,202.4422745,-14.74317885,1220.124501
2.2450,202.3320246,-14.31427451,1220.043794
2.2500,202.2173473,-13.88255913,1219.964543
2.2550,202.0973916,-13.44835315,1219.886925
2.2600,201.9717342,-13.01145653,1219.810933
2.2650,201.8413789,-12.57295088,1219.736322
2.2700,201.7056896,-12.13161201,1219.663316
2.2750,201.5651605,-11.68761366,1219.591936
2.2800,201.419775,-11.2412458,1219.522172
2.2850,201.2693621,-10.79314749,1219.454062
2.2900,201.1143727,-10.34302274,1219.387633
2.2950,200.9547209,-9.891053787,1219.323018
2.3000,200.7910125,-9.438889634,1219.259872
2.3050,200.6225518,-8.985710367,1219.198499
2.3100,200.4483565,-8.532327976,1219.138835
2.3150,200.2687959,-8.07830218,1219.08112
2.3200,200.0835725,-7.623730478,1219.025368
2.3250,199.8924628,-7.168187256,1218.971741
2.3300,199.6935756,-6.71230919,1218.920612
2.3350,199.4879003,-6.255366094,1218.871959
2.3400,199.2752795,-5.797766011,1218.825891
2.3450,199.0561503,-5.338174335,1218.782588
2.3500,198.8305642,-4.876935187,1218.742042
2.3550,198.5972343,-4.413295901,1218.704667
2.3600,198.355661,-3.946973662,1218.670641
2.3650,198.1059249,-3.478094036,1218.639978
2.3700,197.8491983,-3.006157896,1218.612856
2.3750,197.5831718,-2.532020203,1218.58939
2.3800,197.3078081,-2.055368975,1218.569668
2.3850,197.0238543,-1.575686771,1218.553803
2.3900,196.7312988,-1.093650096,1218.541771
2.3950,196.4311469,-0.6073370435,1218.533709
2.4000,196.1229755,-0.1175294695,1218.529741
2.4050,195.8087729,0.3768098617,1218.529763
2.4100,195.4884614,0.8764534105,1218.533967
2.4150,195.1641702,1.380837802,1218.541964
2.4200,194.8350639,1.890002006,1218.553949
2.4250,194.5007067,2.40403665,1218.569969
2.4300,194.1628064,2.923388856,1218.589913
2.4350,193.8200218,3.446978887,1218.613749
2.4400,193.4740518,3.976312354,1218.641713
2.4450,193.1258266,4.510709488,1218.673526
2.4500,192.7766918,5.051075172,1218.709264
2.4550,192.4254983,5.596554947,1218.749017
2.4600,192.0718442,6.148382692,1218.793029
2.4650,191.7165593,6.705220068,1218.840997
2.4700,191.3587422,7.267492573,1218.893153
2.4750,190.9974954,7.83393553,1218.949278
2.4800,190.6317817,8.403721196,1219.009416
2.4850,190.2618555,8.976986413,1219.073465
2.4900,189.888021,9.55369496,1219.14141
2.4950,189.5093917,10.13311332,1219.213224
2.5000,189.1250759,10.71507899,1219.289006
2.5050,188.7351281,11.29932451,1219.368722
2.5100,188.3382986,11.88554312,1219.452557
2.5150,187.9354739,12.47267688,1219.540079
2.5200,187.5257018,13.0590112,1219.631107
2.5250,187.1100425,13.64611985,1219.725722
2.5300,186.6876995,14.23183846,1219.823653
2.5350,186.2603072,14.81695704,1219.924803
2.5400,185.8268172,15.40032475,1220.029146
2.5450,185.3878444,15.98067219,1220.136267
2.5500,184.9426037,16.55855911,1220.246549
2.5550,184.4912794,17.13313406,1220.359854
2.5600,184.0341136,17.70362714,1220.476002
2.5650,183.5701988,18.26969663,1220.595101
2.5700,183.1006019,18.82861821,1220.716406
2.5750,182.6237061,19.37997903,1220.839971
2.5800,182.1392742,19.92269841,1220.965611
2.5850,181.6478224,20.45824275,1221.093538
2.5900,181.1482099,20.98651039,1221.223834
2.5950,180.639737,21.50767454,1221.356608
2.6000,180.1226429,22.02287543,1221.492028
2.6050,179.5977256,22.531702,1221.629781
2.6100,179.0665605,23.03583866,1221.770146
2.6150,178.5282064,23.53675869,1221.91361
2.6200,177.9848093,24.03425361,1222.059787
2.6250,177.4375339,24.52859944,1222.208482
2.6300,176.8861286,25.01994832,1222.359724
2.6350,176.3319327,25.50859991,1222.513416
2.6400,175.7754008,25.99420748,1222.66937
2.6450,175.2161767,26.47725598,1222.827798
2.6500,174.6553047,26.95824987,1222.988649
2.6550,174.0934607,27.43703645,1223.151786
2.6600,173.5325702,27.91347152,1223.316858
2.6650,172.9740481,28.38715117,1223.483495
2.6700,172.4175386,28.85738494,1223.651486
2.6750,171.8632394,29.32444116,1223.820905
2.6800,171.3112427,29.78848783,1223.991649
2.6850,170.7618819,30.24818449,1224.16332
2.6900,170.2164784,30.70573372,1224.336322
2.6950,169.6753566,31.16026668,1224.510386
2.7000,169.1393517,31.61201303,1224.685404
2.7050,168.6088651,32.06021615,1224.861045
2.7100,168.0843948,32.50409778,1225.036839
2.7150,167.5650258,32.94328772,1225.21283
2.7200,167.0495711,33.37660561,1225.388775
2.7250,166.5376692,33.80504527,1225.564976
2.7300,166.0270328,34.22828016,1225.741688
2.7350,165.5198332,34.64879218,1225.919268
2.7400,165.0154291,35.06514065,1226.097243
2.7450,164.5145705,35.47885004,1226.275882
2.7500,164.0166548,35.88893923,1226.455025
2.7550,163.521824,36.29734962,1226.635147
2.7600,163.0305841,36.70346494,1226.815961
2.7650,162.544097,37.10726912,1226.997236
2.7700,162.0621769,37.50746316,1227.178635
2.7750,161.5844482,37.90537549,1227.360626
2.7800,161.1115655,38.30035808,1227.542854
2.7850,160.6418209,38.69200055,1227.725549
2.7900,160.1740117,39.08018413,1227.908859
2.7950,159.7088346,39.46505127,1228.092675
2.8000,159.2458713,39.84621785,1228.27682
2.8050,158.7837512,40.22325215,1228.46143
2.8100,158.3230541,40.59674761,1228.646484
2.8150,157.8631605,40.96710443,1228.832198
2.8200,157.403968,41.33442441,1229.018622
2.8250,156.9445248,41.69772221,1229.20565
2.8300,156.4850773,42.05973475,1229.394047
2.8350,156.0235954,42.41936166,1229.583874
2.8400,155.5600652,42.77714792,1229.775272
2.8450,155.0952634,43.13510082,1229.968653
2.8500,154.6296033,43.49304637,1230.163868
2.8550,154.1629302,43.85268801,1230.361407
2.8600,153.6955742,44.21429744,1230.561366
2.8650,153.2279321,44.57905561,1230.764013
2.8700,152.7587889,44.94797804,1230.969981
2.8750,152.2899582,45.32078414,1231.178818
2.8800,151.820294,45.69578572,1231.390256
2.8850,151.3497668,46.07191282,1231.603899
2.8900,150.8790188,46.4485361,1231.819435
2.8950,150.4082869,46.82638596,1232.037034
2.9000,149.937316,47.20512553,1232.256776
2.9050,149.4664677,47.58533112,1232.478779
2.9100,148.994243,47.96497781,1232.702662
2.9150,148.5212324,48.34278181,1232.927893
2.9200,148.0472935,48.72102873,1233.155231
2.9250,147.5720955,49.09885607,1233.384488
2.9300,147.0973112,49.47684986,1233.615393
2.9350,146.6205953,49.8529656,1233.847785
2.9400,146.1415705,50.22962557,1234.082564
2.9450,145.6608261,50.60576388,1234.319265
2.9500,145.1786765,50.98196181,1234.558067
2.9550,144.6957957,51.35770749,1234.798606
2.9600,144.2130857,51.73272217,1235.040641
2.9650,143.7285071,52.10769417,1235.284988
2.9700,143.2426609,52.48286541,1235.531545
2.9750,142.757161,52.85756654,1235.77972
2.9800,142.2722139,53.23145473,1236.02943
2.9850,141.7886198,53.60561722,1236.280845
2.9900,141.3053118,53.97956579,1236.533987
2.9950,140.8225443,54.35128701,1236.788033
3.0000,140.3384625,54.72131612,1237.04356
3.0050,139.852509,55.08790988,1237.300123
3.0100,139.3637834,55.45264934,1237.558545
3.0150,138.8715785,55.81609421,1237.819212
3.0200,138.3762556,56.17707478,1238.081648
3.0250,137.8781556,56.5355114,1238.345718
3.0300,137.3770456,56.89245355,1238.611964
3.0350,136.8730032,57.24729669,1238.880054
3.0400,136.3669,57.60027817,1239.149841
3.0450,135.8600627,57.95264838,1239.421523
3.0500,135.3534138,58.30517937,1239.695167
3.0550,134.8478705,58.65704229,1239.970212
3.0600,134.3438613,59.00765474,1240.246366
3.0650,133.839311,59.3567555,1240.524004
3.0700,133.335159,59.70436,1240.802837
3.0750,132.8297659,60.04894889,1241.082727
3.0800,132.3227602,60.3921361,1241.364324
3.0850,131.8139984,60.73230369,1241.647043
3.0900,131.3041854,61.06918577,1241.930567
3.0950,130.7911678,61.40324857,1242.215642
3.1000,130.2757301,61.73389773,1242.501861
3.1050,129.7564417,62.05999439,1242.789118
3.1100,129.2325523,62.38066111,1243.077232
3.1150,128.7038823,62.69631224,1243.366387
3.1200,128.1713973,63.00888082,1243.657005
3.1250,127.6337422,63.31896594,1243.949633
3.1300,127.0914208,63.6263745,1244.243997
3.1350,126.5443963,63.93326831,1244.54094
3.1400,125.9931481,64.24039189,1244.840605
3.1450,125.4370414,64.54739886,1245.143013
3.1500,124.8758913,64.85449201,1245.4483
3.1550,124.3088551,65.16075797,1245.756357
3.1600,123.7377154,65.46764988,1246.067298
3.1650,123.1613287,65.77490044,1246.381385
3.1700,122.5810027,66.08264356,1246.698328
3.1750,121.9987313,66.39066929,1247.017501
3.1800,121.4166577,66.70230611,1247.339666
3.1850,120.8371335,67.01775885,1247.664377
3.1900,120.2613791,67.3360925,1247.990803
3.1950,119.6915411,67.65581342,1248.317775
3.2000,119.1275021,67.97622515,1248.644904
3.2050,118.5698566,68.29710483,1248.971936
3.2100,118.0188983,68.6185853,1249.298782
3.2150,117.475169,68.93902273,1249.624553
3.2200,116.9366762,69.25644432,1249.949044
3.2250,116.4029548,69.57076886,1250.272352
3.2300,115.8750468,69.88143652,1250.593945
3.2350,115.3532103,70.18907936,1250.913949
3.2400,114.8376421,70.49095522,1251.231069
3.2450,114.3274879,70.78777878,1251.545834
3.2500,113.821955,71.07826296,1251.857847
3.2550,113.3204374,71.36298156,1252.167513
3.2600,112.8211829,71.64334212,1252.475862
3.2650,112.3263614,71.91989284,1252.782354
3.2700,111.8356705,72.19241763,1253.08696
3.2750,111.3472792,72.46248856,1253.390916
3.2800,110.862195,72.73116237,1253.694247
3.2850,110.3785775,72.99839285,1253.997508
3.2900,109.8966033,73.26470911,1254.300797
3.2950,109.4153713,73.53189831,1254.605214
3.3000,108.9349256,73.8005652,1254.911023
3.3050,108.4559458,74.07232557,1255.218741
3.3100,107.9798768,74.34654305,1255.527656
3.3150,107.5074126,74.62374622,1255.837728
3.3200,107.0408573,74.90480679,1256.148491
3.3250,106.5809739,75.18984093,1256.459679
3.3300,106.1287971,75.47787172,1256.770469
3.3350,105.6841951,75.76899983,1257.080962
3.3400,105.2453881,76.06193042,1257.391279
3.3450,104.8101161,76.35554011,1257.701642
3.3500,104.3771889,76.64931588,1258.012211
3.3550,103.9457841,76.94416621,1258.323701
3.3600,103.5163559,77.24036822,1258.636051
3.3650,103.0880202,77.53861895,1258.949991
3.3700,102.6598421,77.83992823,1259.266285
3.3750,102.2329405,78.14406023,1259.584463
3.3800,101.806603,78.45082991,1259.904741
3.3850,101.3799502,78.76120053,1260.227926
3.3900,100.95229,79.07450284,1260.554063
3.3950,100.5232914,79.3900796,1260.882961
3.4000,100.090687,79.70782342,1261.215443
3.4050,99.65459368,80.02848033,1261.551854
3.4100,99.21457567,80.35232503,1261.89262
3.4150,98.77024725,80.67987505,1262.238128
3.4200,98.31849829,81.00858745,1262.58846
3.4250,97.86133324,81.33986243,1262.943564
3.4300,97.39771106,81.67278962,1263.303561
3.4350,96.92822072,82.00651381,1263.667875
3.4400,96.45256791,82.34012678,1264.036277
3.4450,95.97136767,82.672549,1264.408142
3.4500,95.48559837,83.00393376,1264.783223
3.4550,94.99647955,83.33332269,1265.160573
3.4600,94.5031922,83.65936896,1265.539944
3.4650,94.00721606,83.9811036,1265.920332
3.4700,93.50825888,84.2972615,1266.301291
3.4750,93.00559924,84.60783854,1266.683128
3.4800,92.4995909,84.91020105,1267.064392
3.4850,91.98872633,85.20360263,1267.445254
3.4900,91.47304599,85.48756961,1267.825529
3.4950,90.95145788,85.76252486,1268.205778
3.5000,90.42590546,86.02863285,1268.585353
3.5050,89.89536847,86.28480824,1268.964145
3.5100,89.36089828,86.53051773,1269.341423
3.5150,88.82276987,86.76625973,1269.717259
3.5200,88.28048176,86.99175876,1270.091726
3.5250,87.73467937,87.20664957,1270.464325
3.5300,87.18337478,87.41076952,1270.835783
3.5350,86.62908526,87.60502588,1271.205412
3.5400,86.07131426,87.7899896,1271.573689
3.5450,85.51077616,87.96499435,1271.939877
3.5500,84.94750294,88.1312594,1272.304579
3.5550,84.3824339,88.28875314,1272.66731
3.5600,83.81645397,88.4383416,1273.028005
3.5650,83.2493028,88.57986711,1273.386617
3.5700,82.68235377,88.71577791,1273.743796
3.5750,82.11655019,88.84614524,1274.09906
3.5800,81.55287185,88.97114589,1274.452054
3.5850,80.99244975,89.09163186,1274.802608
3.5900,80.4365455,89.20737317,1275.150013
3.5950,79.88560601,89.31884293,1275.494259
3.6000,79.34206544,89.42644723,1275.834298
3.6050,78.80571,89.53010055,1276.170079
3.6100,78.27622351,89.63065465,1276.50202
3.6150,77.7552948,89.72913394,1276.829792
3.6200,77.24281446,89.8268802,1277.154089
3.6250,76.73907379,89.92334536,1277.474411
3.6300,76.24415617,90.0194738,1277.791014
3.6350,75.75766097,90.11548367,1278.10414
3.6400,75.28146235,90.21355156,1278.413959
3.6450,74.81631195,90.31388478,1278.720119
3.6500,74.36226125,90.41774897,1279.023191
3.6550,73.91955889,90.52418413,1279.322462
3.6600,73.48675705,90.63394223,1279.619003
3.6650,73.06448482,90.74609286,1279.911922
3.6700,72.65323825,90.86071598,1280.201008
3.6750,72.25194944,90.9791912,1280.487419
3.6800,71.86032271,91.09991999,1280.770491
3.6850,71.47912025,91.22403605,1281.050312
3.6900,71.10681357,91.35123714,1281.327427
3.6950,70.74385626,91.48264041,1281.602212
3.7000,70.39044988,91.61803538,1281.874519
3.7050,70.04624448,91.75730162,1282.144467
3.7100,69.71053783,91.90130363,1282.412817
3.7150,69.38227638,92.04927966,1282.679747
3.7200,69.06214864,92.2032468,1282.946011
3.7250,68.7493325,92.36130462,1283.211008
3.7300,68.44375084,92.52402356,1283.47511
3.7350,68.1454456,92.69092346,1283.738049
3.7400,67.85391106,92.86245718,1284.00033
3.7450,67.56875092,93.03891161,1284.262316
3.7500,67.29020826,93.21949042,1284.523501
3.7550,67.01684437,93.40314573,1284.784091
3.7600,66.74809345,93.58992578,1285.044368
3.7650,66.48340041,93.7782191,1285.303797
3.7700,66.22322484,93.96861995,1285.562427
3.7750,65.96585237,94.16008765,1285.82063
3.7800,65.70996252,94.35174722,1286.078679
3.7850,65.45662916,94.5424235,1286.335323
3.7900,65.20429693,94.73257122,1286.59172
3.7950,64.9534411,94.92119786,1286.847097
3.8000,64.70360187,95.10759937,1287.101309
3.8050,64.45519082,95.29116233,1287.35377
3.8100,64.20675371,95.4698612,1287.604166
3.8150,63.95802796,95.64315082,1287.852291
3.8200,63.71092755,95.81101709,1288.097117
3.8250,63.46320674,95.97300255,1288.339567
3.8300,63.21575981,96.12823185,1288.578576
3.8350,62.96669385,96.27558111,1288.814542
3.8400,62.71686767,96.41495452,1289.046997
3.8450,62.46542735,96.54687597,1289.276591
3.8500,62.21258416,96.66981849,1289.502384
3.8550,61.95830962,96.78503529,1289.725073
3.8600,61.70279718,96.8909203,1289.943741
3.8650,61.44565195,96.98758684,1290.158585
3.8700,61.18642876,97.07402884,1290.369283
3.8750,60.92660872,97.15166097,1290.575849
3.8800,60.66507328,97.21915202,1290.778105
3.8850,60.40232393,97.27691812,1290.975892
3.8900,60.13851107,97.32578589,1291.169599
3.8950,59.87465475,97.36575245,1291.358633
3.9000,59.60897824,97.39670385,1291.543844
3.9050,59.34300454,97.41999728,1291.725163
3.9100,59.07622984,97.43423091,1291.902025
3.9150,58.80867542,97.43998388,1292.074736
3.9200,58.53982919,97.43705055,1292.243419
3.9250,58.27058732,97.426786,1292.40835
3.9300,58.00193186,97.40924187,1292.569002
3.9350,57.73505512,97.38523313,1292.725109
3.9400,57.47096212,97.35481763,1292.876115
3.9450,57.20924215,97.31917038,1293.022899
3.9500,56.95193207,97.27821066,1293.164196
3.9550,56.69852388,97.23301232,1293.300864
3.9600,56.45067109,97.18359799,1293.431855
3.9650,56.20801226,97.13139688,1293.558176
3.9700,55.97121421,97.0760123,1293.679189
3.9750,55.74109413,97.01722127,1293.794275
3.9800,55.5176122,96.95672377,1293.904256
3.9850,55.30064062,96.89347095,1294.008706
3.9900,55.09119438,96.8287896,1294.10773
3.9950,54.88888846,96.76187654,1294.201034
4.0000,54.69418689,96.69426055,1294.289206
4.0050,54.50865275,96.62703478,1294.371967
4.0100,54.33181345,96.56028455,1294.449503
4.0150,54.16390231,96.49353297,1294.521434
4.0200,54.00592235,96.42764736,1294.587596
4.0250,53.85732687,96.36318492,1294.648707
4.0300,53.71772782,96.29975624,1294.704665
4.0350,53.58705424,96.23908776,1294.756423
4.0400,53.46547563,96.18002982,1294.803294
4.0450,53.35302892,96.12193392,1294.844874
4.0500,53.24903246,96.06520063,1294.881657
4.0550,53.15453244,96.01109057,1294.913826
4.0600,53.06829971,95.95802325,1294.941116
4.0650,52.9906238,95.90708899,1294.963955
4.0700,52.92077782,95.8575346,1294.982349
4.0750,52.85847276,95.80891011,1294.996165
4.0800,52.80429215,95.76225413,1295.005564
4.0850,52.75702751,95.7175148,1295.01131
4.0900,52.71770248,95.67374754,1295.01224
4.0950,52.68622602,95.63136925,1295.008589
4.1000,52.66147095,95.58953433,1295.000517
4.1050,52.64405691,95.54800481,1294.987527
4.1100,52.63305535,95.50745303,1294.970471
4.1150,52.62772667,95.46743086,1294.949635
4.1200,52.62661785,95.4263576,1294.924893
4.1250,52.63172457,95.38395338,1294.894941
4.1300,52.6422775,95.34056151,1294.860508
4.1350,52.65878563,95.29512091,1294.820685
4.1400,52.68101205,95.24799688,1294.775742
4.1450,52.70961002,95.19852569,1294.724981
4.1500,52.74563934,95.14739334,1294.66813
4.1550,52.78928053,95.09325452,1294.604311
4.1600,52.84082842,95.03662121,1294.53358
4.1650,52.90159152,94.97839086,1294.455751
4.1700,52.97074466,94.91789954,1294.370852
4.1750,53.04909152,94.85360692,1294.277595
4.1800,53.13774369,94.78785795,1294.176572
4.1850,53.23733121,94.71967103,1294.066976
4.1900,53.34820272,94.64784968,1293.947876
4.1950,53.46922942,94.57252502,1293.820007
4.2000,53.6020019,94.49373009,1293.682561
4.2050,53.74664861,94.41108037,1293.535288
4.2100,53.9033845,94.32502254,1293.378314
4.2150,54.07373416,94.23496267,1293.210492
4.2200,54.25822892,94.14166561,1293.03203
4.2250,54.45593828,94.04332207,1292.842492
4.2300,54.66755134,93.94059784,1292.641919
4.2350,54.89279702,93.83304597,1292.430291
4.2400,55.13118785,93.72033765,1292.207788
4.2450,55.38323933,93.60136825,1291.973626
4.2500,55.64836688,93.47673273,1291.728487
4.2550,55.92649459,93.34538734,1291.471972
4.2600,56.21613972,93.20777407,1291.2053
4.2650,56.5189768,93.06380851,1290.92757
4.2700,56.83390413,92.91313585,1290.639279
4.2750,57.1610503,92.75711466,1290.341132
4.2800,57.50055971,92.59532118,1290.032985
4.2850,57.85238007,92.4290314,1289.715688
4.2900,58.21585002,92.25829654,1289.38966
4.2950,58.59145157,92.08397235,1289.05521
4.3000,58.97890502,91.90535104,1288.712235
4.3050,59.3763241,91.72322022,1288.362285
4.3100,59.7832477,91.53634459,1288.005136
4.3150,60.20009462,91.34697084,1287.641851
4.3200,60.62426706,91.152932,1287.272844
4.3250,61.05603486,90.95576409,1286.898744
4.3300,61.49349867,90.75537999,1286.520696
4.3350,61.93688383,90.55146829,1286.138564
4.3400,62.38389347,90.34498696,1285.754125
4.3450,62.83415328,90.13665808,1285.368023
4.3500,63.28806366,89.92687464,1284.980309
4.3550,63.74507874,89.71579245,1284.591378
4.3600,64.20424305,89.50287376,1284.201539
4.3650,64.66385834,89.28790425,1283.81159
4.3700,65.12352484,89.07238888,1283.422579
4.3750,65.58325146,88.85577642,1283.034266
4.3800,66.04179171,88.63809009,1282.647405
4.3850,66.49870771,88.41948626,1282.262286
4.3900,66.95224039,88.20081065,1281.880264
4.3950,67.40127339,87.98154719,1281.501682
4.4000,67.84434092,87.76260108,1281.127735
4.4050,68.28026758,87.54320752,1280.758637
4.4100,68.70997589,87.32485526,1280.394737
4.4150,69.13218108,87.10788866,1280.036728
4.4200,69.5471883,86.89281594,1279.684766
4.4250,69.95408325,86.67960292,1279.339168
4.4300,70.35164619,86.46758696,1279.000246
4.4350,70.73931849,86.25784025,1278.668807
4.4400,71.11605311,86.0493715,1278.344829
4.4450,71.48188603,85.84167422,1278.028052
4.4500,71.83519091,85.63500584,1277.719316
4.4550,72.17506577,85.42773594,1277.41824
4.4600,72.50199808,85.22108413,1277.125162
4.4650,72.81544006,85.01320289,1276.839402
4.4700,73.11676688,84.80465683,1276.560493
4.4750,73.40662687,84.59644268,1276.288521
4.4800,73.68456551,84.38687596,1276.022798
4.4850,73.9504251,84.17611005,1275.763394
4.4900,74.20573046,83.96447255,1275.509716
4.4950,74.45286971,83.75244197,1275.260707
4.5000,74.69264355,83.5400852,1275.016005
4.5050,74.92570756,83.32732246,1274.775163
4.5100,75.15362336,83.11438569,1274.537543
4.5150,75.37588737,82.90119734,1274.303286
4.5200,75.59308776,82.68654352,1274.071505
4.5250,75.80545017,82.47183084,1273.842737
4.5300,76.01478156,82.25683763,1273.616029
4.5350,76.22016796,82.04170649,1273.391868
4.5400,76.42366048,81.82642663,1273.169218
4.5450,76.62599499,81.6111626,1272.947798
4.5500,76.82680143,81.39568428,1272.727761
4.5550,77.0281956,81.18076857,1272.508423
4.5600,77.23076051,80.96677541,1272.289644
4.5650,77.43475296,80.75270922,1272.070885
4.5700,77.64025762,80.53962432,1271.85253
4.5750,77.84722223,80.32583364,1271.633837
4.5800,78.05591791,80.11143436,1271.414724
4.5850,78.26565691,79.89500337,1271.19478
4.5900,78.4773239,79.67680805,1270.973802
4.5950,78.69048095,79.45625236,1270.751693
4.6000,78.90500122,79.23401989,1270.528843
4.6050,79.12198863,79.00795161,1270.303715
4.6100,79.34185963,78.77959685,1270.076892
4.6150,79.56547507,78.54858218,1269.847734
4.6200,79.79315345,78.31507034,1269.61618
4.6250,80.02499779,78.07902304,1269.382201
4.6300,80.26308227,77.84140874,1269.145217
4.6350,80.50606591,77.60218694,1268.905778
4.6400,80.75527426,77.36073407,1268.663012
4.6450,81.011468,77.1177607,1268.416829
4.6500,81.27231307,76.87265522,1268.168115
4.6550,81.53796217,76.62531406,1267.916782
4.6600,81.80790554,76.37609093,1267.663288
4.6650,82.083946,76.12629802,1267.407487
4.6700,82.36481019,75.87436055,1267.149284
4.6750,82.65010698,75.62018973,1266.888867
4.6800,82.93961332,75.36345556,1266.626205
4.6850,83.2328734,75.10464955,1266.361818
4.6900,83.53033304,74.84325754,1266.095228
4.6950,83.83077733,74.57886457,1265.826829
4.7000,84.13488003,74.31123246,1265.556231
4.7050,84.44184902,74.04160068,1265.284369
4.7100,84.75128222,73.76970257,1265.011296
4.7150,85.06411549,73.49567278,1264.736668
4.7200,85.3799948,73.21997371,1264.460827
4.7250,85.69793167,72.94266668,1264.184346
4.7300,86.01881965,72.6633184,1263.906571
4.7350,86.34271428,72.38230797,1263.627674
4.7400,86.67039395,72.09924608,1263.347192
4.7450,87.00048301,71.81315994,1263.065238
4.7500,87.33390686,71.52404544,1262.781595
4.7550,87.66925717,71.23252417,1262.497109
4.7600,88.00675222,70.93687508,1262.211012
4.7650,88.34605256,70.63812107,1261.923867
4.7700,88.68633793,70.33552117,1261.635793
4.7750,89.02808307,70.02989501,1261.346932
4.7800,89.37254489,69.72151856,1261.056904
4.7850,89.72014156,69.41150017,1260.766008
4.7900,90.07110235,69.09956536,1260.473961
4.7950,90.42462651,68.78550072,1260.181116
4.8000,90.78150557,68.46949835,1259.887156
4.8050,91.14075653,68.15123126,1259.592366
4.8100,91.50165111,67.83114667,1259.297268
4.8150,91.86504072,67.51011386,1259.001894
4.8200,92.23047506,67.18830665,1258.706515
4.8250,92.60000303,66.86650158,1258.410631
4.8300,92.97261515,66.54537328,1258.114931
4.8350,93.35031671,66.22530337,1257.818791
4.8400,93.73212468,65.90727831,1257.522986
4.8450,94.11843673,65.59189347,1257.227574
4.8500,94.50935835,65.27777908,1256.931954
4.8550,94.90411242,64.96566406,1256.636718
4.8600,95.30327537,64.65464456,1256.341281
4.8650,95.70613882,64.34624913,1256.046495
4.8700,96.11236508,64.03990233,1255.752322
4.8750,96.52194603,63.73621362,1255.459031
4.8800,96.93560176,63.43597378,1255.166665
4.8850,97.35365712,63.13872537,1254.874941
4.8900,97.77559377,62.84434146,1254.584011
4.8950,98.20146349,62.55240719,1254.293781
4.9000,98.6314698,62.26256769,1254.003966
4.9050,99.06390742,61.97467281,1253.715206
4.9100,99.49941207,61.68911859,1253.427351
4.9150,99.93575732,61.40479516,1253.140871
4.9200,100.373725,61.12222815,1252.855618
4.9250,100.8125529,60.84155373,1252.57194
4.9300,101.2518461,60.5616188,1252.289534
4.9350,101.6916743,60.28207002,1252.008307
4.9400,102.1325127,60.00406904,1251.728507
4.9450,102.5725449,59.72660791,1251.450438
4.9500,103.0132991,59.44990898,1251.173627
4.9550,103.4531147,59.17280693,1250.898258
4.9600,103.8929852,58.89558572,1250.624053
4.9650,104.3313701,58.61756068,1250.351279
4.9700,104.7690604,58.33798339,1250.07941
4.9750,105.2057904,58.05732737,1249.808703
4.9800,105.6413916,57.77518352,1249.539099
4.9850,106.0755678,57.49112768,1249.270624
4.9900,106.5080532,57.20556061,1249.003522
4.9950,106.9399038,56.91746263,1248.737052
5.0000,107.3709673,56.62771493,1248.471628
5.0050,107.8014658,56.33561177,1248.20692
5.0100,108.230938,56.04055155,1247.942899
5.0150,108.6589634,55.742234,1247.679649
5.0200,109.0855403,55.44108036,1247.417365
5.0250,109.5111227,55.13730205,1247.155968
5.0300,109.9361675,54.83071172,1246.895329
5.0350,110.3602033,54.52105544,1246.63543
5.0400,110.7821903,54.2084664,1246.376702
5.0450,111.2028924,53.89442856,1246.11948
5.0500,111.6221506,53.57872775,1245.863649
5.0550,112.0411642,53.26193808,1245.608991
5.0600,112.460208,52.94555587,1245.355846
5.0650,112.8812673,52.62975838,1245.103519
5.0700,113.3049985,52.31546351,1244.852106
5.0750,113.7315856,52.00219411,1244.601346
5.0800,114.1609549,51.69048254,1244.351484
5.0850,114.5938482,51.38059295,1244.102364
5.0900,115.0311596,51.07231529,1243.85367
5.0950,115.4728325,50.76604713,1243.605526
5.1000,115.9185334,50.46116205,1243.35791
5.1050,116.3692432,50.15720286,1243.110341
5.1100,116.8253689,49.85418397,1242.86269
5.1150,117.2863584,49.55085725,1242.614761
5.1200,117.7530011,49.24768204,1242.366485
5.1250,118.2243417,48.94384465,1242.117941
5.1300,118.7001479,48.638903,1241.869053
5.1350,119.1798777,48.33317002,1241.620076
5.1400,119.6635468,48.0259873,1241.370909
5.1450,120.1521927,47.71810524,1241.121444
5.1500,120.6458999,47.410831,1240.872125
5.1550,121.1444604,47.1038349,1240.622971
5.1600,121.6467787,46.79783288,1240.374639
5.1650,122.1526833,46.49085746,1240.126569
5.1700,122.6619481,46.18289489,1239.878843
5.1750,123.1751055,45.87303554,1239.631
5.1800,123.6910106,45.56012536,1239.383067
5.1850,124.2102257,45.24466276,1239.135099
5.1900,124.7306816,44.92544846,1238.887331
5.1950,125.252076,44.60181269,1238.63965
5.2000,125.7729915,44.27371294,1238.392536
5.2050,126.2951338,43.94260974,1238.145974
5.2100,126.8167958,43.60776508,1237.900252
5.2150,127.3396064,43.26857271,1237.65471
5.2200,127.863082,42.92486685,1237.409447
5.2250,128.3868533,42.57599923,1237.16437
5.2300,128.9105501,42.22158898,1236.919524
5.2350,129.4329558,41.8616622,1236.675223
5.2400,129.9536034,41.49484987,1236.431234
5.2450,130.4727695,41.12121842,1236.187472
5.2500,130.9886477,40.7401422,1235.944287
5.2550,131.5014326,40.35191625,1235.701773
5.2600,132.0110597,39.95661614,1235.460016
5.2650,132.5164704,39.55242651,1235.21886
5.2700,133.0161181,39.13894973,1234.97865
5.2750,133.5101626,38.71718636,1234.739808
5.2800,133.9983254,38.2857586,1234.501946
5.2850,134.4805849,37.84541127,1234.265205
5.2900,134.9580663,37.39499423,1234.029097
5.2950,135.4289922,36.9353768,1233.794288
5.3000,135.8939416,36.46576648,1233.560374
5.3050,136.3535499,35.98661826,1233.327258
5.3100,136.8071483,35.49849765,1233.095126
5.3150,137.2557647,35.00289344,1232.864109
5.3200,137.6993325,34.50072641,1232.634367
5.3250,138.1387162,33.99344306,1232.406028
5.3300,138.5736902,33.4837616,1232.179703
5.3350,139.0053214,32.9729577,1231.955542
5.3400,139.434725,32.46349255,1231.733851
5.3450,139.8628174,31.95688284,1231.51467
5.3500,140.2902507,31.45544143,1231.298442
5.3550,140.7195699,30.96189792,1231.085166
5.3600,141.150337,30.47762798,1230.87527
5.3650,141.5831369,30.00441374,1230.669183
5.3700,142.0190755,29.5451005,1230.467333
5.3750,142.4577875,29.10045795,1230.270091
5.3800,142.9006077,28.67153217,1230.077257
5.3850,143.3480623,28.25859137,1229.888813
5.3900,143.7990814,27.86314698,1229.705298
5.3950,144.2545013,27.4842005,1229.526212
5.4000,144.7138323,27.12201513,1229.351663
5.4050,145.1755271,26.77652413,1229.182023
5.4100,145.6408444,26.44717425,1229.016884
5.4150,146.1078892,26.13279404,1228.856388
5.4200,146.5766813,25.83234741,1228.700222
5.4250,147.0466247,25.54565453,1228.548468
5.4300,147.5161116,25.27125038,1228.401133
5.4350,147.9847845,25.00638418,1228.257649
5.4400,148.4520257,24.75082305,1228.118007
5.4450,148.9164801,24.5026158,1227.982026
5.4500,149.377929,24.26073937,1227.849486
5.4550,149.8360142,24.02397564,1227.720136
5.4600,150.2922797,23.79060396,1227.593117
5.4650,150.7456449,23.56098777,1227.468792
5.4700,151.1978958,23.33496483,1227.34665
5.4750,151.6471359,23.11231409,1227.227115
5.4800,152.09474,22.8924238,1227.109704
5.4850,152.5389562,22.67470719,1226.994653
5.4900,152.9815948,22.45959885,1226.881721
5.4950,153.4227878,22.246425,1226.770659
5.5000,153.8629031,22.03454384,1226.661294
5.5050,154.3021481,21.82343887,1226.553358
5.5100,154.7408028,21.61149214,1226.44648
5.5150,155.1783448,21.398624,1226.340829
5.5200,155.6152742,21.18443616,1226.236174
5.5250,156.0516179,20.96752581,1226.132205
5.5300,156.4877095,20.74770092,1226.028758
5.5350,156.9224668,20.52358094,1225.92577
5.5400,157.3557357,20.29544859,1225.823339
5.5450,157.7858818,20.06203344,1225.721612
5.5500,158.2136743,19.82241863,1225.620188
5.5550,158.6377259,19.57597147,1225.519106
5.5600,159.0582484,19.32299708,1225.418364
5.5650,159.4740577,19.06353473,1225.318178
5.5700,159.8860788,18.79852054,1225.218517
5.5750,160.2935963,18.52619001,1225.11908
5.5800,160.6962319,18.24838443,1225.020402
5.5850,161.0936258,17.965019,1224.922508
5.5900,161.4852666,17.67763711,1224.825719
5.5950,161.8728935,17.38650458,1224.729775
5.6000,162.2572912,17.09240177,1224.634673
5.6050,162.6379395,16.79693854,1224.540941
5.6100,163.0158952,16.50042997,1224.448554
5.6150,163.3908472,16.2029865,1224.357535
5.6200,163.7632313,15.90493036,1224.267826
5.6250,164.1321648,15.60680092,1224.179697
5.6300,164.4986933,15.3091949,1224.093209
5.6350,164.8622308,15.01313829,1224.008709
5.6400,165.2231837,14.71925418,1223.926214
5.6450,165.5800637,14.42825844,1223.846318
5.6500,165.9326103,14.1398969,1223.768875
5.6550,166.2796595,13.85443127,1223.694136
5.6600,166.6222253,13.5717618,1223.621954
5.6650,166.9603277,13.29277933,1223.552371
5.6700,167.2945001,13.01720806,1223.485212
5.6750,167.6244212,12.74521755,1223.420477
5.6800,167.9496885,12.47784829,1223.358565
5.6850,168.2696352,12.21569519,1223.299724
5.6900,168.5838776,11.95864345,1223.244187
5.6950,168.8921064,11.7080268,1223.19223
5.7000,169.1941815,11.46277671,1223.143702
5.7050,169.4907797,11.22370457,1223.098688
5.7100,169.7797898,10.9892385,1223.057194
5.7150,170.0619569,10.76070398,1223.019268
5.7200,170.3371632,10.53673692,1222.984608
5.7250,170.6063565,10.31659451,1222.952804
5.7300,170.8700624,10.09994359,1222.923717
5.7350,171.1278675,9.886916439,1222.89735
5.7400,171.3795398,9.677064099,1222.873653
5.7450,171.6255152,9.47023437,1222.852439
5.7500,171.8649428,9.266067905,1222.833766
5.7550,172.0989998,9.064562453,1222.817273
5.7600,172.3263818,8.866863855,1222.803485
5.7650,172.5483943,8.67318222,1222.792117
5.7700,172.7658375,8.482601083,1222.782804
5.7750,172.9791471,8.295830096,1222.775599
5.7800,173.1877041,8.112851857,1222.770705
5.7850,173.3932902,7.934567934,1222.767911
5.7900,173.5964596,7.759723789,1222.766863
5.7950,173.7975199,7.589129797,1222.767729
5.8000,173.9982134,7.422730168,1222.770084
5.8050,174.1981769,7.259737285,1222.773871
5.8100,174.3990901,7.101069772,1222.778911
5.8150,174.6010121,6.947426015,1222.785149
5.8200,174.8041872,6.798540562,1222.792613
5.8250,175.0089508,6.655067352,1222.80126
5.8300,175.2136899,6.515735042,1222.811264
5.8350,175.4200512,6.382186355,1222.822557
5.8400,175.6276853,6.253232953,1222.834909
5.8450,175.8383733,6.128520558,1222.847828
5.8500,176.0516442,6.007239982,1222.861201
5.8550,176.2682537,5.889303174,1222.874893
5.8600,176.4871058,5.773727843,1222.888905
5.8650,176.7094912,5.660061459,1222.902933
5.8700,176.9350441,5.547599823,1222.916902
5.8750,177.1642991,5.437316832,1222.930811
5.8800,177.3976362,5.329123087,1222.944607
5.8850,177.6352801,5.222027288,1222.958104
5.8900,177.8776634,5.115528047,1222.971151
5.8950,178.123864,5.00990325,1222.984015
5.9000,178.373284,4.904561197,1222.996612
5.9050,178.6264823,4.799912504,1223.008905
5.9100,178.8827073,4.695741001,1223.020988
5.9150,179.1423352,4.591357665,1223.032753
5.9200,179.405382,4.487047794,1223.044282
5.9250,179.6719658,4.381005363,1223.055277
5.9300,179.9411107,4.273312315,1223.065845
5.9350,180.2134105,4.163129514,1223.075684
5.9400,180.4876978,4.04996287,1223.084915
5.9450,180.7658156,3.934207138,1223.093102
5.9500,181.0474449,3.814992235,1223.100206
5.9550,181.3330768,3.693562849,1223.106357
5.9600,181.6213634,3.570414383,1223.111845
5.9650,181.9116271,3.444023034,1223.116583
5.9700,182.2021717,3.315378702,1223.121032
5.9750,182.4929412,3.183629071,1223.125077
5.9800,182.7821016,3.048279137,1223.128919
5.9850,183.0700697,2.908456619,1223.132337
5.9900,183.35452,2.763051909,1223.135565
5.9950,183.6342761,2.610663424,1223.138607
6.0000,183.9081412,2.45188803,1223.14183
6.0050,184.174305,2.285839978,1223.145293
6.0100,184.4314442,2.113689396,1223.149432
6.0150,184.6790469,1.934834488,1223.154234
6.0200,184.9149389,1.749958158,1223.160211
6.0250,185.1391263,1.559018802,1223.167334
6.0300,185.3509284,1.362103743,1223.175625
6.0350,185.5494133,1.160270004,1223.185398
6.0400,185.7343019,0.9537897819,1223.196717
6.0450,185.9033807,0.7433304445,1223.210087
6.0500,186.0578793,0.5299891604,1223.225516
6.0550,186.1973444,0.3144156352,1223.243221
6.0600,186.3223095,0.09591533679,1223.263022
6.0650,186.4318757,-0.1242769122,1223.28529
6.0700,186.5254478,-0.3452891723,1223.31034
6.0750,186.603217,-0.5666238723,1223.338263
6.0800,186.6671272,-0.7863816624,1223.368866
6.0850,186.7179931,-1.004383874,1223.402199
6.0900,186.7561895,-1.218524024,1223.43848
6.0950,186.7835057,-1.427073811,1223.477649
6.1000,186.8003563,-1.629569137,1223.519741
6.1050,186.8076434,-1.823665455,1223.565069
6.1100,186.8061192,-2.009080478,1223.613534
6.1150,186.7974703,-2.184579329,1223.665065
6.1200,186.7828526,-2.349766379,1223.719402
6.1250,186.7629156,-2.504254686,1223.776658
6.1300,186.7393891,-2.646652857,1223.836673
6.1350,186.7140318,-2.778596687,1223.898877
6.1400,186.6864112,-2.898990784,1223.963459
6.1450,186.6572411,-3.008367165,1224.030313
6.1500,186.6260442,-3.106183271,1224.099463
6.1550,186.5940604,-3.192859786,1224.170656
6.1600,186.561571,-3.269497503,1224.24369
6.1650,186.529126,-3.33518421,1224.318475
6.1700,186.4981412,-3.389646282,1224.394827
6.1750,186.468727,-3.434196833,1224.472509
6.1800,186.4421856,-3.469995358,1224.551115
6.1850,186.4205862,-3.496299082,1224.630287
6.1900,186.4037638,-3.513569614,1224.709921
6.1950,186.3935953,-3.522123192,1224.789598
6.2000,186.3895361,-3.521579126,1224.869475
6.2050,186.3928875,-3.512809755,1224.949212
6.2100,186.4054375,-3.496601675,1225.028346
6.2150,186.4271486,-3.471823935,1225.107055
6.2200,186.4591071,-3.439395259,1225.18501
6.2250,186.5013718,-3.398142672,1225.26228
6.2300,186.5536749,-3.349966852,1225.338748
6.2350,186.6166545,-3.295135317,1225.414144
6.2400,186.6902549,-3.23347277,1225.488574
6.2450,186.7744919,-3.166844209,1225.561849
6.2500,186.8683157,-3.096737034,1225.633968
6.2550,186.9709924,-3.025118474,1225.704831
6.2600,187.0827017,-2.953906786,1225.774069
6.2650,187.2019352,-2.883216283,1225.841815
6.2700,187.329061,-2.815488644,1225.907624
6.2750,187.4624216,-2.750426152,1225.971762
6.2800,187.6021469,-2.689510059,1226.033951
6.2850,187.7457921,-2.631969314,1226.094765
6.2900,187.8936001,-2.57877247,1226.153835
6.2950,188.0461644,-2.529770863,1226.211097
6.3000,188.2036069,-2.484298472,1226.266602
6.3050,188.3662035,-2.443150012,1226.320176
6.3100,188.5344636,-2.406907664,1226.371708
6.3150,188.7068098,-2.376416134,1226.421378
6.3200,188.88253,-2.351337936,1226.469316
6.3250,189.060265,-2.332773769,1226.515662
6.3300,189.2390732,-2.320915827,1226.560557
6.3350,189.418917,-2.316324001,1226.603868
6.3400,189.5984677,-2.319751213,1226.645654
6.3450,189.7781293,-2.331251217,1226.68582
6.3500,189.9556547,-2.351735286,1226.724499
6.3550,190.130651,-2.381950397,1226.761681
6.3600,190.3023767,-2.421741928,1226.797434
6.3650,190.470224,-2.470981002,1226.831909
6.3700,190.6333256,-2.530390121,1226.865146
6.3750,190.7928253,-2.600105552,1226.896879
6.3800,190.9479494,-2.679836283,1226.927537
6.3850,191.0980694,-2.770569795,1226.956941
6.3900,191.2444111,-2.870469189,1226.985407
6.3950,191.3858811,-2.980806848,1227.012964
6.4000,191.5248848,-3.099223745,1227.039704
6.4050,191.6617391,-3.226406239,1227.065488
6.4100,191.7966626,-3.36086035,1227.090544
6.4150,191.9300952,-3.502562017,1227.115044
6.4200,192.0621348,-3.649353743,1227.139312
6.4250,192.1937314,-3.801155783,1227.163236
6.4300,192.3252455,-3.956039822,1227.187061
6.4350,192.4566278,-4.113101223,1227.210928
6.4400,192.5885006,-4.271675498,1227.234965
6.4450,192.7196856,-4.43114779,1227.259366
6.4500,192.8509699,-4.591031886,1227.284255
6.4550,192.9817338,-4.751202835,1227.3097
6.4600,193.1119118,-4.910570291,1227.335957
6.4650,193.2405286,-5.070269476,1227.36315
6.4700,193.3669666,-5.229790693,1227.391437
6.4750,193.4910848,-5.388359211,1227.420941
6.4800,193.61304,-5.545609391,1227.451629
6.4850,193.7304619,-5.702341875,1227.483785
6.4900,193.8426113,-5.857786166,1227.517769
6.4950,193.9496915,-6.012511808,1227.553446
6.5000,194.0501794,-6.166739862,1227.590981
6.5050,194.1437976,-6.320151147,1227.630422
6.5100,194.2298943,-6.472427001,1227.671864
6.5150,194.309563,-6.625638887,1227.714693
6.5200,194.3816559,-6.779415751,1227.759106
6.5250,194.4473365,-6.933317741,1227.804918
6.5300,194.5076759,-7.086862279,1227.85197
6.5350,194.5619079,-7.240722021,1227.900273
6.5400,194.6117003,-7.394907226,1227.949432
6.5450,194.6572115,-7.548519454,1227.999508
6.5500,194.7001178,-7.700104249,1228.050306
6.5550,194.7397151,-7.849877456,1228.10186
6.5600,194.7758309,-7.997037116,1228.1543
6.5650,194.8095402,-8.141104288,1228.20759
6.5700,194.841357,-8.281768937,1228.261595
6.5750,194.8722867,-8.419956491,1228.316121
6.5800,194.9020595,-8.555440001,1228.371271
6.5850,194.9319407,-8.689123591,1228.426556
6.5900,194.9618112,-8.819543378,1228.482348
6.5950,194.9918552,-8.947720303,1228.538422
6.6000,195.0208937,-9.074531263,1228.594803
6.6050,195.0485238,-9.199410828,1228.651678
6.6100,195.0751656,-9.321651175,1228.709059
6.6150,195.1008154,-9.441582993,1228.76688
6.6200,195.1267689,-9.559456,1228.82495
6.6250,195.1529493,-9.674685447,1228.883256
6.6300,195.1794602,-9.787155128,1228.941843
6.6350,195.2065488,-9.89733832,1229.000587
6.6400,195.2344753,-10.00412549,1229.059613
6.6450,195.2634008,-10.10809182,1229.118787
6.6500,195.295143,-10.20864952,1229.177917
6.6550,195.3302083,-10.30636558,1229.236748
6.6600,195.3679675,-10.40036138,1229.295587
6.6650,195.4087916,-10.4921415,1229.354091
6.6700,195.4528378,-10.58084031,1229.412413
6.6750,195.5004936,-10.66623431,1229.470477
6.6800,195.5518244,-10.7493282,1229.528118
6.6850,195.6070852,-10.82850523,1229.585548
6.6900,195.6653999,-10.90575747,1229.642563
6.6950,195.7275632,-10.97943738,1229.699331
6.7000,195.7935506,-11.05141715,1229.755539
6.7050,195.8628126,-11.11965191,1229.811633
6.7100,195.935801,-11.18502226,1229.86748
6.7150,196.0121048,-11.24800064,1229.922919
6.7200,196.0926762,-11.30802112,1229.978004
6.7250,196.1756433,-11.36571976,1230.032954
6.7300,196.2621442,-11.42191159,1230.08752
6.7350,196.3512732,-11.47627461,1230.14193
6.7400,196.4439302,-11.52932092,1230.195836
6.7450,196.5407128,-11.5802392,1230.249352
6.7500,196.6413218,-11.62928714,1230.302342
6.7550,196.7457546,-11.67667479,1230.354828
6.7600,196.8555321,-11.72251538,1230.406388
6.7650,196.9702883,-11.76707387,1230.457046
6.7700,197.0889124,-11.81071111,1230.506821
6.7750,197.2124485,-11.85400886,1230.555424
6.7800,197.3397746,-11.89778826,1230.602953
6.7850,197.4709511,-11.94214625,1230.64939
6.7900,197.6063156,-11.98777637,1230.694493
6.7950,197.7446482,-12.03392664,1230.738452
6.8000,197.8874792,-12.08114306,1230.781015
6.8050,198.0339357,-12.13106604,1230.822025
6.8100,198.1851259,-12.18280018,1230.861338
6.8150,198.3392255,-12.23659743,1230.899306
6.8200,198.4970453,-12.29242635,1230.935805
6.8250,198.6576721,-12.35098285,1230.970982
6.8300,198.8209185,-12.41179271,1231.004807
6.8350,198.9876122,-12.47390292,1231.037392
6.8400,199.1565618,-12.53787486,1231.068823
6.8450,199.3280961,-12.6042445,1231.098961
6.8500,199.5015181,-12.67256384,1231.128071
6.8550,199.6770221,-12.74374226,1231.155935
6.8600,199.8552784,-12.81770922,1231.182495
6.8650,200.0352884,-12.89452805,1231.207887
6.8700,200.2157869,-12.97563311,1231.232108
6.8750,200.395162,-13.06000809,1231.255544
6.8800,200.5745346,-13.14788602,1231.277953
6.8850,200.7512996,-13.24023255,1231.299691
6.8900,200.9264595,-13.33625253,1231.32066
6.8950,201.0967128,-13.43589036,1231.34139
6.9000,201.2627996,-13.53904299,1231.361925
6.9050,201.4242598,-13.64555544,1231.38239
6.9100,201.5808255,-13.75590393,1231.402694
6.9150,201.7331589,-13.86906223,1231.423003
6.9200,201.8804461,-13.98558437,1231.443297
6.9250,202.0216904,-14.1042197,1231.464018
6.9300,202.1579623,-14.22494931,1231.48489
6.9350,202.2879852,-14.34696718,1231.50624
6.9400,202.4121832,-14.47192276,1231.527773
6.9450,202.5293856,-14.59907157,1231.549797
6.9500,202.6383587,-14.72917297,1231.572395
6.9550,202.7373236,-14.86149744,1231.596033
6.9600,202.8262822,-14.99734616,1231.620448
6.9650,202.9053755,-15.13642432,1231.645677
6.9700,202.9748398,-15.27901082,1231.671639
6.9750,203.0335796,-15.42499644,1231.698589
6.9800,203.0797582,-15.5747174,1231.726633
6.9850,203.1143722,-15.72839586,1231.755601
6.9900,203.1375254,-15.88483552,1231.785652
6.9950,203.1490543,-16.04462121,1231.816614
7.0000,203.1474055,-16.20744977,1231.848745
7.0050,203.1337994,-16.37468374,1231.8816
7.0100,203.1080066,-16.5447141,1231.915361
7.0150,203.0703446,-16.71718975,1231.950013
7.0200,203.0200649,-16.89165755,1231.98561
7.0250,202.958711,-17.06702035,1232.021963
7.0300,202.8863495,-17.24212091,1232.059138
7.0350,202.8029608,-17.41582899,1232.097252
7.0400,202.709008,-17.58789436,1232.136202
7.0450,202.6047404,-17.75812968,1232.175961
7.0500,202.4910216,-17.92585391,1232.216433
7.0550,202.3689267,-18.08994742,1232.257491
7.0600,202.2367156,-18.24950317,1232.299491
7.0650,202.0957517,-18.40455569,1232.342092
7.0700,201.947887,-18.55469781,1232.385095
7.0750,201.7916105,-18.6987279,1232.428876
7.0800,201.6283154,-18.83629598,1232.473123
7.0850,201.4593769,-18.96678008,1232.517701
7.0900,201.2865418,-19.09047883,1232.562302
7.0950,201.1113456,-19.20727749,1232.60674
7.1000,200.9360216,-19.31705349,1232.650603
7.1050,200.7624071,-19.41871809,1232.693661
7.1100,200.5918781,-19.51315722,1232.735681
7.1150,200.4274847,-19.59929764,1232.776201
7.1200,200.2707248,-19.67754084,1232.814927
7.1250,200.1239486,-19.74830031,1232.851457
7.1300,199.9891795,-19.81163613,1232.885369
7.1350,199.8673342,-19.8680439,1232.916478
7.1400,199.7608545,-19.91759144,1232.94439
7.1450,199.6687987,-19.96091867,1232.969166
7.1500,199.5925767,-19.9980266,1232.990579
7.1550,199.5329821,-20.02804701,1233.008639
7.1600,199.488425,-20.05068784,1233.023607
7.1650,199.4596608,-20.0670029,1233.035358
7.1700,199.4461599,-20.07563521,1233.04427
7.1750,199.4476901,-20.07729295,1233.050279
7.1800,199.4615742,-20.07167034,1233.053982
7.1850,199.4874333,-20.05796219,1233.055669
7.1900,199.522435,-20.03795496,1233.055703
7.1950,199.5660606,-20.01083495,1233.05432
7.2000,199.6158187,-19.97732118,1233.051896
7.2050,199.6686559,-19.93713456,1233.048927
7.2100,199.7232789,-19.8914889,1233.045628
7.2150,199.7779051,-19.84054511,1233.042177
7.2200,199.8305303,-19.78502391,1233.03893
7.2250,199.8789985,-19.72552261,1233.036029
7.2300,199.9223426,-19.66336555,1233.033653
7.2350,199.9600283,-19.59876303,1233.031889
7.2400,199.9906602,-19.53250472,1233.030811
7.2450,200.0156356,-19.46485218,1233.030157
7.2500,200.0340737,-19.39615701,1233.02988
7.2550,200.0465912,-19.32720529,1233.029774
7.2600,200.0547698,-19.25720656,1233.029566
7.2650,200.0586253,-19.18695225,1233.029158
7.2700,200.057637,-19.11711095,1233.028471
7.2750,200.0527741,-19.04731226,1233.027322
7.2800,200.0446937,-18.97762048,1233.025603
7.2850,200.0316487,-18.90912639,1233.02349
7.2900,200.0141947,-18.84216647,1233.020688
7.2950,199.9916689,-18.7772434,1233.017341
7.3000,199.9649366,-18.71328787,1233.013378
7.3050,199.9322839,-18.65029341,1233.009106
7.3100,199.8935565,-18.58918356,1233.004398
7.3150,199.8477367,-18.52910041,1232.999504
7.3200,199.7948218,-18.47259843,1232.99419
7.3250,199.7345983,-18.41871689,1232.988551
7.3300,199.6663243,-18.36777964,1232.982648
7.3350,199.5906708,-18.32030764,1232.976268
7.3400,199.5078653,-18.27655638,1232.969384
7.3450,199.4183101,-18.23569249,1232.961932
7.3500,199.3235583,-18.19835765,1232.953585
7.3550,199.2233973,-18.16483534,1232.944378
7.3600,199.1194656,-18.13575668,1232.933893
7.3650,199.0138103,-18.11020743,1232.921985
7.3700,198.9066077,-18.08879197,1232.908492
7.3750,198.8007662,-18.07254349,1232.892674
7.3800,198.6960185,-18.06052586,1232.874794
7.3850,198.5931371,-18.05322191,1232.854568
7.3900,198.493145,-18.04900975,1232.831962
7.3950,198.3957814,-18.048893,1232.806855
7.4000,198.3015461,-18.05178828,1232.779265
7.4050,198.2109811,-18.05966342,1232.748961
7.4100,198.1239608,-18.07098953,1232.715994
7.4150,198.041006,-18.08563618,1232.680357
7.4200,197.9623818,-18.10464708,1232.641896
7.4250,197.888508,-18.1268952,1232.600571
7.4300,197.8182834,-18.15189999,1232.55671
7.4350,197.7511464,-18.18007982,1232.510314
7.4400,197.6864754,-18.21088022,1232.461652
7.4450,197.6246043,-18.24263277,1232.41086
7.4500,197.5644754,-18.27521156,1232.358059
7.4550,197.5064596,-18.3078899,1232.303317
7.4600,197.4499861,-18.3418585,1232.246693
7.4650,197.3943639,-18.37573017,1232.188406
7.4700,197.3394873,-18.40858235,1232.128584
7.4750,197.2840947,-18.44088475,1232.067531
7.4800,197.2279663,-18.47110287,1232.005387
7.4850,197.1721829,-18.50003318,1231.941938
7.4900,197.1152315,-18.52611635,1231.877678
7.4950,197.056906,-18.54970616,1231.812654
7.5000,196.9965006,-18.56926947,1231.747216
7.5050,196.9352938,-18.58569717,1231.681151
7.5100,196.8716349,-18.59698286,1231.615078
7.5150,196.8050102,-18.60368201,1231.54906
7.5200,196.7337984,-18.60345151,1231.483683
7.5250,196.6585326,-18.59747198,1231.41889
7.5300,196.5780893,-18.58453271,1231.354935
7.5350,196.4914249,-18.56553809,1231.291943
7.5400,196.3983169,-18.54002203,1231.23009
7.5450,196.2967854,-18.50854302,1231.16968
7.5500,196.1873982,-18.47059554,1231.110781
7.5550,196.0686642,-18.4264029,1231.053637
7.5600,195.9399813,-18.37709552,1230.998281
7.5650,195.8003806,-18.32241276,1230.94495
7.5700,195.6499085,-18.26201851,1230.893715
7.5750,195.4876399,-18.19775778,1230.844458
7.5800,195.314513,-18.12941451,1230.797081
7.5850,195.1307021,-18.05632447,1230.751509
7.5900,194.9361319,-17.97901835,1230.707781
7.5950,194.732489,-17.89799244,1230.665452
7.6000,194.5192552,-17.81483742,1230.624404
7.6050,194.2984688,-17.72918929,1230.584304
7.6100,194.0709796,-17.64170925,1230.545003
7.6150,193.8386551,-17.55291935,1230.506047
7.6200,193.6027213,-17.46201904,1230.467284
7.6250,193.3647831,-17.3701203,1230.428306
7.6300,193.1255354,-17.27782165,1230.389009
7.6350,192.8870484,-17.18622638,1230.348819
7.6400,192.6493726,-17.09540416,1230.307744
7.6450,192.414396,-17.00584286,1230.265307
7.6500,192.1830043,-16.91808343,1230.221267
7.6550,191.9557272,-16.83254014,1230.175423
7.6600,191.7339969,-16.75002689,1230.127457
7.6650,191.5173434,-16.67100391,1230.077398
7.6700,191.3077358,-16.59501197,1230.024848
7.6750,191.10455,-16.52225013,1229.970089
7.6800,190.9087702,-16.45323052,1229.912748
7.6850,190.7215809,-16.38682993,1229.852755
7.6900,190.5422433,-16.32547098,1229.789991
7.6950,190.3711943,-16.26738384,1229.724579
7.7000,190.2092255,-16.21314575,1229.656256
7.7050,190.0554705,-16.16093316,1229.585425
7.7100,189.9096447,-16.11085503,1229.512219
7.7150,189.770851,-16.06298979,1229.436793
7.7200,189.6387654,-16.01526763,1229.35951
7.7250,189.512809,-15.96670873,1229.280631
7.7300,189.3939213,-15.91820633,1229.200014
7.7350,189.2823076,-15.86817225,1229.117804
7.7400,189.1778821,-15.81611369,1229.034073
7.7450,189.0798323,-15.76206985,1228.949175
7.7500,188.9876404,-15.70614292,1228.863246
7.7550,188.900194,-15.64949803,1228.776511
7.7600,188.8184443,-15.589056,1228.689103
7.7650,188.7413536,-15.52606822,1228.601225
7.7700,188.6688283,-15.46072207,1228.512882
7.7750,188.6006472,-15.39173603,1228.424322
7.7800,188.5356625,-15.3189203,1228.33582
7.7850,188.4735879,-15.24164396,1228.247548
7.7900,188.4144538,-15.16017483,1228.159509
7.7950,188.3582615,-15.07376276,1228.071795
7.8000,188.3051451,-14.98169185,1227.984501
7.8050,188.2529352,-14.8839871,1227.898081
7.8100,188.201608,-14.78050294,1227.812553
7.8150,188.1511167,-14.67009665,1227.728128
7.8200,188.1022809,-14.55459946,1227.644389
7.8250,188.0555714,-14.43329458,1227.561297
7.8300,188.0096652,-14.305705,1227.479185
7.8350,187.9652844,-14.17116637,1227.398041
7.8400,187.9222297,-14.02963087,1227.317996
7.8450,187.8805703,-13.88059556,1227.238943
7.8500,187.8408655,-13.72452527,1227.160826
7.8550,187.8041814,-13.56134529,1227.083306
7.8600,187.769216,-13.39129954,1227.006607
7.8650,187.7386008,-13.21424504,1226.930197
7.8700,187.7110147,-13.03100253,1226.85413
7.8750,187.6875774,-12.84169904,1226.778182
7.8800,187.6676732,-12.6456182,1226.702519
7.8850,187.6519296,-12.4440413,1226.626888
7.8900,187.6410474,-12.23664871,1226.551174
7.8950,187.6351729,-12.0226946,1226.475413
7.9000,187.6341716,-11.80201653,1226.399629
7.9050,187.638055,-11.57533168,1226.323671
7.9100,187.6477214,-11.34337422,1226.247265
7.9150,187.662504,-11.10541053,1226.170705
7.9200,187.6829571,-10.86260579,1226.093628
7.9250,187.7076541,-10.61538659,1226.016359
7.9300,187.7379027,-10.36331213,1225.938633
7.9350,187.7721999,-10.10783813,1225.860639
7.9400,187.810888,-9.849192336,1225.782256
7.9450,187.8534045,-9.587771237,1225.703646
7.9500,187.8979497,-9.324061564,1225.625003
7.9550,187.9454187,-9.059327696,1225.546071
7.9600,187.994495,-8.792522093,1225.467109
7.9650,188.0453907,-8.524438849,1225.388017
7.9700,188.0969243,-8.255504936,1225.308955
7.9750,188.1497769,-7.986327823,1225.229709
7.9800,188.204118,-7.717038064,1225.150262
7.9850,188.2576297,-7.448470396,1225.070935
7.9900,188.3108794,-7.179555054,1224.991781
7.9950,188.3637119,-6.910114197,1224.912853
8.0000,188.4151234,-6.639770588,1224.8345
8.0050,188.4650371,-6.368205117,1224.756724
8.0100,188.5136699,-6.096106622,1224.679445
8.0150,188.5613105,-5.822160024,1224.602805
8.0200,188.6076447,-5.546183194,1224.526911
8.0250,188.6511086,-5.269510609,1224.451768
8.0300,188.6916373,-4.99089498,1224.377551
8.0350,188.7283613,-4.710762489,1224.304391
8.0400,188.7605886,-4.429498504,1224.232379
8.0450,188.7888461,-4.146988405,1224.161362
8.0500,188.8125998,-3.863348706,1224.091514
8.0550,188.8315871,-3.577601957,1224.023012
8.0600,188.8449492,-3.29106396,1223.955836
8.0650,188.8522155,-3.002303501,1223.890215
8.0700,188.8531833,-2.711933005,1223.82611
8.0750,188.8481043,-2.418964979,1223.763629
8.0800,188.8369351,-2.125382775,1223.702549
8.0850,188.8187603,-1.830151258,1223.643156
8.0900,188.7939534,-1.533046422,1223.585456
8.0950,188.7615406,-1.233993794,1223.529687
8.1000,188.7201656,-0.9343859984,1223.475868
8.1050,188.6721775,-0.6325142424,1223.423839
8.1100,188.6168534,-0.3286390565,1223.373699
8.1150,188.5542251,-0.02280725956,1223.325386
8.1200,188.4851382,0.2865768014,1223.2791
8.1250,188.4086046,0.6003217055,1223.235176
8.1300,188.3248851,0.917788922,1223.193606
8.1350,188.2339283,1.239407814,1223.154314
8.1400,188.1359152,1.565437762,1223.117362
8.1450,188.030759,1.895629724,1223.082816
8.1500,187.9181337,2.229561575,1223.050523
8.1550,187.7977896,2.568799096,1223.021016
8.1600,187.6707483,2.913003316,1222.994057
8.1650,187.5355185,3.261913939,1222.969867
8.1700,187.3922097,3.615462871,1222.948387
8.1750,187.2410828,3.973950581,1222.929659
8.1800,187.0827596,4.33587294,1222.913209
8.1850,186.9174389,4.70155379,1222.899085
8.1900,186.7449365,5.070725441,1222.887155
8.1950,186.5660967,5.442240708,1222.87718
8.2000,186.3815933,5.816394276,1222.869184
8.2050,186.1912216,6.1928063,1222.8632
8.2100,185.9951685,6.571573944,1222.859228
8.2150,185.7934977,6.951136793,1222.856964
8.2200,185.5865305,7.331409614,1222.856405
8.2250,185.3750154,7.711416617,1222.85716
8.2300,185.1578341,8.090222157,1222.85928
8.2350,184.9358494,8.468813886,1222.862769
8.2400,184.7097708,8.847087159,1222.867533
8.2450,184.4791606,9.223740304,1222.873381
8.2500,184.246358,9.599454818,1222.880211
8.2550,184.0103087,9.973910268,1222.888109
8.2600,183.7721826,10.34551512,1222.896795
8.2650,183.5319464,10.71482554,1222.906275
8.2700,183.2888932,11.08120113,1222.916615
8.2750,183.0433237,11.4447071,1222.927776
8.2800,182.7943044,11.80649229,1222.940135
8.2850,182.543176,12.16504416,1222.953172
8.2900,182.2889766,12.52110927,1222.967112
8.2950,182.0314073,12.87364124,1222.981714
8.3000,181.7705389,13.22179474,1222.996746
8.3050,181.5054521,13.5662518,1223.012339
8.3100,181.236901,13.90746502,1223.028519
8.3150,180.965379,14.24711958,1223.045445
8.3200,180.6894003,14.5857099,1223.063425
8.3250,180.411432,14.92525118,1223.082555
8.3300,180.1306611,15.26653392,1223.103178
8.3350,179.8482036,15.60900957,1223.124948
8.3400,179.5639373,15.95413663,1223.148234
8.3450,179.278305,16.30191567,1223.173069
8.3500,178.9917403,16.6540387,1223.199834
8.3550,178.7045029,17.01193598,1223.228935
8.3600,178.4171977,17.37680216,1223.260569
8.3650,178.1301938,17.74911434,1223.29496
8.3700,177.8420082,18.12977043,1223.332708
8.3750,177.5532149,18.51824016,1223.373659
8.3800,177.2635771,18.91634449,1223.418328
8.3850,176.9726728,19.32502409,1223.467033
8.3900,176.6813124,19.74455945,1223.51982
8.3950,176.3901316,20.17667369,1223.577065
8.4000,176.100171,20.62253637,1223.639002
8.4050,175.8104417,21.08188267,1223.705785
8.4100,175.5207781,21.55453421,1223.777516
8.4150,175.2299222,22.03978884,1223.854359
8.4200,174.9370538,22.53754173,1223.936529
8.4250,174.6414197,23.04636899,1224.023799
8.4300,174.3422432,23.56585557,1224.116187
8.4350,174.0396977,24.09609317,1224.213777
8.4400,173.7318629,24.63584532,1224.316635
8.4450,173.418388,25.18331039,1224.424338
8.4500,173.0984125,25.73818354,1224.537018
8.4550,172.7714588,26.29755857,1224.653864
8.4600,172.4368188,26.86187233,1224.775124
8.4650,172.0938606,27.43065364,1224.900891
8.4700,171.7436505,28.00336332,1225.03083
8.4750,171.3863816,28.57907877,1225.164723
8.4800,171.0211826,29.15785091,1225.302899
8.4850,170.6475086,29.74014385,1225.445684
8.4900,170.2655167,30.32382362,1225.592669
8.4950,169.8739605,30.90871321,1225.744036
8.5000,169.4718546,31.49304523,1225.899642
8.5050,169.0590911,32.07489316,1226.059043
8.5100,168.6340156,32.65395834,1226.222544
8.5150,168.1960901,33.22772025,1226.389594
8.5200,167.7443412,33.79622641,1226.560489
8.5250,167.2776172,34.35843229,1226.735242
8.5300,166.7974383,34.91283983,1226.913077
8.5350,166.3024833,35.45849172,1227.094029
8.5400,165.7921968,35.99516044,1227.278037
8.5450,165.2672742,36.52241816,1227.464845
8.5500,164.7253564,37.03946004,1227.65465
8.5550,164.1674396,37.546629,1227.847297
8.5600,163.5937467,38.04448021,1228.042808
8.5650,163.0031289,38.53351963,1228.241483
8.5700,162.3966467,39.01487536,1228.443448
8.5750,161.7746831,39.48829035,1228.648506
8.5800,161.1377637,39.95327743,1228.856419
8.5850,160.4873942,40.4118778,1229.067481
8.5900,159.8231385,40.8635854,1229.281782
8.5950,159.1465561,41.30967466,1229.499429
8.6000,158.4572358,41.75114846,1229.720928
8.6050,157.7570907,42.1900722,1229.946668
8.6100,157.0469362,42.62962135,1230.177469
8.6150,156.326989,43.07010735,1230.41359
8.6200,155.5994412,43.51286275,1230.655158
8.6250,154.865819,43.95972273,1230.902603
8.6300,154.1274017,44.41205224,1231.156271
8.6350,153.3853361,44.87300128,1231.417074
8.6400,152.6417354,45.34165461,1231.68442
8.6450,151.8976879,45.81868089,1231.958338
8.6500,151.15347,46.30310206,1232.238574
8.6550,150.4098587,46.79485804,1232.524918
8.6600,149.6668888,47.29400318,1232.81751
8.6650,148.924859,47.79977835,1233.116076
8.6700,148.1849955,48.31182794,1233.420172
8.6750,147.447414,48.83103053,1233.730082
8.6800,146.7129644,49.35728754,1234.045616
8.6850,145.982251,49.89054342,1234.366577
8.6900,145.2554083,50.43174925,1234.693277
8.6950,144.5343687,50.97825606,1235.024329
8.7000,143.8199088,51.52949401,1235.359274
8.7050,143.1123229,52.08311945,1235.697262
8.7100,142.4123583,52.63822506,1236.03765
8.7150,141.7206859,53.19367181,1236.379833
8.7200,141.0362864,53.74693244,1236.723028
8.7250,140.3589661,54.29723065,1237.067035
8.7300,139.6881953,54.84319212,1237.411348
8.7350,139.0245115,55.38322096,1237.755161
8.7400,138.3687519,55.91744866,1238.098181
8.7450,137.7215222,56.44534274,1238.440026
8.7500,137.0815955,56.96501716,1238.780224
8.7550,136.4491008,57.47614816,1239.118614
8.7600,135.8234527,57.97772939,1239.454886
8.7650,135.204809,58.4696328,1239.788866
8.7700,134.5929253,58.95232965,1240.120672
8.7750,133.9867603,59.42459931,1240.450104
8.7800,133.3862699,59.88477571,1240.776399
8.7850,132.7918726,60.33126431,1241.098655
8.7900,132.201485,60.76342802,1241.417082
8.7950,131.6145385,61.18146087,1241.731921
8.8000,131.0309794,61.58704173,1242.043621
8.8050,130.4499128,61.98065249,1242.35252
8.8100,129.8719967,62.36336147,1242.658743
8.8150,129.298723,62.73591983,1242.962123
8.8200,128.7280954,63.09860086,1243.263185
8.8250,128.1622033,63.45402108,1243.56218
8.8300,127.5995129,63.80304805,1243.859903
8.8350,127.0418385,64.14658762,1244.156022
8.8400,126.4882159,64.48451183,1244.450823
8.8450,125.9388377,64.81839533,1244.744761
8.8500,125.3937731,65.14928814,1245.038202
8.8550,124.8541589,65.47844556,1245.331214
8.8600,124.3182484,65.80611119,1245.624342
8.8650,123.7873026,66.13287946,1245.917486
8.8700,123.2600646,66.45895144,1246.211097
8.8750,122.7369877,66.78498647,1246.505244
8.8800,122.2181068,67.11183794,1246.800171
8.8850,121.7007544,67.43832214,1247.096253
8.8900,121.1876053,67.76670955,1247.393402
8.8950,120.6775329,68.09792185,1247.692389
8.9000,120.1721856,68.43473137,1247.993713
8.9050,119.6721357,68.77712503,1248.297137
8.9100,119.1768743,69.12408181,1248.60245
8.9150,118.6870761,69.47679131,1248.909859
8.9200,118.2038002,69.83511678,1249.218948
8.9250,117.7263823,70.19762016,1249.529276
8.9300,117.255467,70.56376989,1249.840352
8.9350,116.7901961,70.93253404,1250.151998
8.9400,116.3291225,71.30320525,1250.464409
8.9450,115.8705496,71.67600039,1250.778304
8.9500,115.414946,72.05133035,1251.093683
8.9550,114.962443,72.42995729,1251.410896
8.9600,114.5141209,72.81076509,1251.729073
8.9650,114.0714579,73.19435946,1252.047937
8.9700,113.6351668,73.58032962,1252.367016
8.9750,113.2053893,73.96758607,1252.685855
8.9800,112.7833577,74.3571347,1253.004377
8.9850,112.3694352,74.74703174,1253.32162
8.9900,111.9620178,75.13518651,1253.637215
8.9950,111.5600689,75.52245581,1253.951922
9.0000,111.1631567,75.90809366,1254.265579
9.0050,110.7711642,76.2919031,1254.578186
9.0100,110.3831786,76.67173131,1254.889049
9.0150,109.9970498,77.04484297,1255.197674
9.0200,109.6124457,77.40985702,1255.503632
9.0250,109.2287636,77.76667008,1255.807035
9.0300,108.8466577,78.11393506,1256.107062
9.0350,108.4641279,78.45128925,1256.404272
9.0400,108.0805732,78.7784276,1256.698633
9.0450,107.6953603,79.09502921,1256.990239
9.0500,107.3091725,79.40118867,1257.278881
9.0550,106.9214867,79.6978039,1257.565056
9.0600,106.5323318,79.98406491,1257.848423
9.0650,106.1414385,80.26038778,1258.129182
9.0700,105.7469957,80.52565685,1258.407467
9.0750,105.3495599,80.78094172,1258.683505
9.0800,104.9482868,81.02693325,1258.958026
9.0850,104.5432673,81.26505506,1259.231636
9.0900,104.1361003,81.49669889,1259.504459
9.0950,103.7273935,81.72288771,1259.776609
9.1000,103.3172241,81.94279564,1260.047663
9.1050,102.9065193,82.15741153,1260.317741
9.1100,102.4950735,82.36727284,1260.587138
9.1150,102.082283,82.57283888,1260.856221
9.1200,101.6697244,82.77492507,1261.124805
9.1250,101.2563828,82.97356251,1261.393293
9.1300,100.8429267,83.1702477,1261.662124
9.1350,100.4286975,83.3651061,1261.931652
9.1400,100.0145093,83.55889302,1262.201915
9.1450,99.59942815,83.75107839,1262.472962
9.1500,99.18448258,83.94183311,1262.744508
9.1550,98.76728188,84.13095171,1263.01736
9.1600,98.34902883,84.31787456,1263.2908
9.1650,97.92788425,84.50219701,1263.565341
9.1700,97.50397527,84.68247208,1263.840151
9.1750,97.0744965,84.86068115,1264.117309
9.1800,96.63955415,85.03715566,1264.397046
9.1850,96.20076882,85.2154099,1264.680378
9.1900,95.75712532,85.39616296,1264.9681
9.1950,95.30911941,85.57987911,1265.260268
9.2000,94.85649593,85.76671364,1265.557212
9.2050,94.39912819,85.95699929,1265.859187
9.2100,93.93684453,86.15130279,1266.166524
9.2150,93.46934117,86.3487224,1266.479018
9.2200,92.99612948,86.54861483,1266.796603
9.2250,92.51708769,86.75210933,1267.119946
9.2300,92.03127111,86.9588915,1267.449319
9.2350,91.53941131,87.1691537,1267.784683
9.2400,91.041828,87.38456279,1268.126774
9.2450,90.54014494,87.60448457,1268.474621
9.2500,90.03573181,87.82844022,1268.827404
9.2550,89.5279629,88.05445067,1269.184412
9.2600,89.01641426,88.28224273,1269.545682
9.2650,88.49973055,88.51149893,1269.911654
9.2700,87.97809232,88.74261986,1270.282492
9.2750,87.45237722,88.9757815,1270.657887
9.2800,86.92232252,89.21041023,1271.037738
9.2850,86.38831835,89.44596067,1271.421604
9.2900,85.85144297,89.68268936,1271.809082
9.2950,85.31100762,89.92062403,1272.200485
9.3000,84.76716303,90.15802695,1272.594853
9.3050,84.21884551,90.39509059,1272.992702
9.3100,83.66730562,90.63272064,1273.394075
9.3150,83.11380498,90.87285717,1273.799444
9.3200,82.56070051,91.11651612,1274.208237
9.3250,82.00805493,91.36199675,1274.619558
9.3300,81.45585598,91.60959117,1275.033552
9.3350,80.90486592,91.85810683,1275.449207
9.3400,80.3554737,92.1063899,1275.865754
9.3450,79.80810557,92.35477745,1276.283185
9.3500,79.26360736,92.60365753,1276.701246
9.3550,78.72293681,92.85174792,1277.118895
9.3600,78.18698085,93.10060536,1277.53645
9.3650,77.65628922,93.34857274,1277.95274
9.3700,77.13184028,93.59570887,1278.367363
9.3750,76.61270478,93.84181334,1278.780618
9.3800,76.10037566,94.08616214,1279.191259
9.3850,75.59542978,94.32816766,1279.598668
9.3900,75.09757466,94.56720941,1280.002515
9.3950,74.60715008,94.80281771,1280.40234
9.4000,74.12369723,95.03531387,1280.798508
9.4050,73.64815053,95.26496513,1281.190658
9.4100,73.18104388,95.49159706,1281.578373
9.4150,72.721605,95.71472883,1281.961676
9.4200,72.2699123,95.93450068,1282.340558
9.4250,71.82637964,96.15046435,1282.714495
9.4300,71.39148652,96.36208614,1283.082925
9.4350,70.96519924,96.5694958,1283.445903
9.4400,70.54636758,96.77209092,1283.803612
9.4450,70.1348958,96.97048845,1284.15646
9.4500,69.72955207,97.1643587,1284.504815
9.4550,69.33114557,97.35301483,1284.847883
9.4600,68.93756612,97.53687208,1285.186966
9.4650,68.55006365,97.71672142,1285.521776
9.4700,68.16782777,97.89281314,1285.852844
9.4750,67.79042691,98.06493793,1286.180274
9.4800,67.4168539,98.23377377,1286.504861
9.4850,67.04475674,98.39767259,1286.826993
9.4900,66.673288,98.55672397,1287.147183
9.4950,66.30288134,98.71102131,1287.465188
9.5000,65.9328869,98.86039163,1287.781184
9.5050,65.56274577,99.00416005,1288.095127
9.5100,65.19146621,99.14234177,1288.407605
9.5150,64.81904769,99.27529225,1288.718779
9.5200,64.44425769,99.40349549,1289.029606
9.5250,64.06604964,99.52573005,1289.339917
9.5300,63.68479897,99.64341378,1289.650431
9.5350,63.30016897,99.75547513,1289.960632
9.5400,62.91199215,99.86126909,1290.270284
9.5450,62.51982482,99.96027933,1290.579378
9.5500,62.12282102,100.0537257,1290.889066
9.5550,61.72010687,100.141654,1291.199835
9.5600,61.31266402,100.2236907,1291.51098
9.5650,60.90104657,100.3006836,1291.822785
9.5700,60.48561559,100.3725195,1292.134987
9.5750,60.06720606,100.4403274,1292.447744
9.5800,59.64641637,100.5030598,1292.759995
9.5850,59.22236024,100.561751,1293.072905
9.5900,58.79555589,100.6165126,1293.38622
9.5950,58.36701539,100.6675856,1293.699523
9.6000,57.93608483,100.7159134,1294.013657
9.6050,57.50424291,100.761906,1294.328102
9.6100,57.06992188,100.8056096,1294.64365
9.6150,56.63490928,100.8471971,1294.959376
9.6200,56.19723,100.8865967,1295.276319
9.6250,55.75856233,100.9255123,1295.594529
9.6300,55.31952817,100.9654273,1295.914487
9.6350,54.88096476,101.0060913,1296.235557
9.6400,54.44348764,101.0486676,1296.558089
9.6450,54.00816607,101.0934357,1296.881532
9.6500,53.57383071,101.1394006,1297.205981
9.6550,53.14192613,101.1875378,1297.531075
9.6600,52.71140406,101.23541,1297.856027
9.6650,52.2833482,101.2845193,1298.181117
9.6700,51.85791661,101.3344151,1298.505956
9.6750,51.43491813,101.3845523,1298.83025
9.6800,51.01415135,101.434592,1299.153968
9.6850,50.59566845,101.4855726,1299.477694
9.6900,50.18010657,101.5374649,1299.801015
9.6950,49.76712461,101.5898174,1300.123801
9.7000,49.35805636,101.6426738,1300.445253
9.7050,48.9531945,101.696046,1300.765136
9.7100,48.55307869,101.7493565,1301.082762
9.7150,48.15846073,101.8037394,1301.398369
9.7200,47.76848902,101.8586856,1301.712112
9.7250,47.38379825,101.9144443,1302.02375
9.7300,47.00236784,101.9704021,1302.334109
9.7350,46.62279507,102.0260541,1302.64372
9.7400,46.24558947,102.0811214,1302.952115
9.7450,45.870349,102.1348362,1303.259036
9.7500,45.49819519,102.1880445,1303.564276
9.7550,45.12790712,102.2414153,1303.869
9.7600,44.76189197,102.2961521,1304.172382
9.7650,44.39869184,102.3514238,1304.47484
9.7700,44.03847132,102.4099256,1304.777927
9.7750,43.68104442,102.471153,1305.081415
9.7800,43.3267319,102.5357081,1305.385455
9.7850,42.97659892,102.6043287,1305.689775
9.7900,42.62972561,102.6776103,1305.995274
9.7950,42.28512584,102.756377,1306.30311
9.8000,41.94210343,102.8406802,1306.613783
9.8050,41.60017209,102.9323396,1306.928764
9.8100,41.25913765,103.0313216,1307.248171
9.8150,40.91749399,103.137453,1307.572932
9.8200,40.57592789,103.2509399,1307.902677
9.8250,40.23391473,103.3715391,1308.237672
9.8300,39.88998843,103.4983717,1308.57834
9.8350,39.54359475,103.6314854,1308.925168
9.8400,39.19506645,103.7704757,1309.277687
9.8450,38.84311514,103.9142945,1309.636136
9.8500,38.48718516,104.0610365,1309.999757
9.8550,38.12724333,104.2103597,1310.368447
9.8600,37.76360614,104.3620316,1310.741914
9.8650,37.39494607,104.5141759,1311.119751
9.8700,37.02071773,104.6657522,1311.501851
9.8750,36.64075964,104.8155015,1311.887532
9.8800,36.25377979,104.9614498,1312.276555
9.8850,35.86085111,105.1035748,1312.668203
9.8900,35.46199062,105.2415379,1313.062238
9.8950,35.05672728,105.3734022,1313.457748
9.9000,34.64627829,105.4991688,1313.85402
9.9050,34.23038653,105.6176247,1314.250387
9.9100,33.81153654,105.7284899,1314.645001
9.9150,33.38883279,105.8321197,1315.038685
9.9200,32.96312875,105.9273219,1315.43009
9.9250,32.53502393,106.0135312,1315.818312
9.9300,32.10558599,106.0897712,1316.201962
9.9350,31.67490376,106.1565709,1316.581301
9.9400,31.24405892,106.2125771,1316.954584
9.9450,30.81267847,106.2576366,1317.321986
9.9500,30.38288105,106.2922875,1317.68235
9.9550,29.95361189,106.3156708,1318.035778
9.9600,29.52638618,106.328317,1318.381465
9.9650,29.10118118,106.3287509,1318.718457
9.9700,28.67849881,106.3170558,1319.046328
9.9750,28.25895797,106.2931721,1319.364591
9.9800,27.84382388,106.2574726,1319.672486
9.9850,27.43371334,106.2098288,1319.969328
9.9900,27.02834471,106.1488871,1320.254509
9.9950,26.62867288,106.0748417,1320.527374
10.0000,26.23495178,105.9874643,1320.787537
10.0050,25.84731643,105.8869699,1321.034967
10.0100,25.46549443,105.7732092,1321.269592
10.0150,25.09014635,105.6462053,1321.490914
10.0200,24.72273617,105.5071923,1321.698562
10.0250,24.36261165,105.3559609,1321.89284
10.0300,24.01225902,105.1942567,1322.072946
10.0350,23.67237807,105.0224968,1322.238557
10.0400,23.34374234,104.8418836,1322.389783
10.0450,23.0255143,104.6532155,1322.527637
10.0500,22.71777525,104.4559469,1322.651663
10.0550,22.42139023,104.2518993,1322.762316
10.0600,22.13500129,104.0404567,1322.860158
10.0650,21.85900519,103.8232387,1322.945876
10.0700,21.59455133,103.6000421,1323.018346
10.0750,21.34252389,103.3726892,1323.078115
10.0800,21.10190041,103.1414249,1323.125997
10.0850,20.87353678,102.9077514,1323.162235
10.0900,20.65739774,102.6725042,1323.187423
10.0950,20.45420378,102.4370786,1323.201816
10.1000,20.26326608,102.201868,1323.206159
10.1050,20.08529366,101.9672245,1323.200055
10.1100,19.92028676,101.7343827,1323.184301
10.1150,19.76909611,101.5040286,1323.158613
10.1200,19.63168345,101.2763258,1323.123125
10.1250,19.50770532,101.0529353,1323.079163
10.1300,19.39820683,100.8339591,1323.025873
10.1350,19.3025994,100.619924,1322.964003
10.1400,19.2200898,100.4107663,1322.894115
10.1450,19.15137533,100.2078031,1322.816521
10.1500,19.0972248,100.0114596,1322.730821
10.1550,19.05786319,99.82180088,1322.636911
10.1600,19.03118606,99.63861948,1322.536194
10.1650,19.01800548,99.46152353,1322.427903
10.1700,19.01848731,99.29170362,1322.31258
10.1750,19.03163228,99.12865023,1322.190666
10.1800,19.05695806,98.97363634,1322.063371
10.1850,19.09415268,98.82640948,1321.930821
10.1900,19.14210984,98.68581525,1321.793197
10.1950,19.20040757,98.55305476,1321.651595
10.2000,19.26804357,98.42689515,1321.505955
10.2050,19.34498301,98.30855852,1321.35712
10.2100,19.42966289,98.1971656,1321.205766
10.2150,19.52085523,98.09124024,1321.051972
10.2200,19.61921307,97.99167547,1320.895837
10.2250,19.72298296,97.89747721,1320.738143
10.2300,19.83046036,97.80768454,1320.579618
10.2350,19.94123885,97.72188743,1320.420347
10.2400,20.05466,97.6408112,1320.261378
10.2450,20.17003535,97.56372998,1320.102763
10.2500,20.28695727,97.4901869,1319.944511
10.2550,20.4049052,97.4200061,1319.787022
10.2600,20.52357877,97.35211879,1319.629905
10.2650,20.64249494,97.28674754,1319.473604
10.2700,20.76181256,97.22255339,1319.317265
10.2750,20.88217913,97.15991694,1319.160695
10.2800,21.00302056,97.09783888,1319.003803
10.2850,21.12331175,97.03427312,1318.846116
10.2900,21.24449327,96.97032525,1318.687263
10.2950,21.36542945,96.90480036,1318.527492
10.3000,21.48636792,96.83760229,1318.36653
10.3050,21.60729281,96.76769649,1318.203825
10.3100,21.72810138,96.6967486,1318.040582
10.3150,21.84984232,96.62479895,1317.87602
10.3200,21.97152646,96.55092786,1317.710387
10.3250,22.09465964,96.47579282,1317.542938
10.3300,22.21740041,96.39813467,1317.374369
10.3350,22.34129956,96.31880895,1317.204082
10.3400,22.4657241,96.2383854,1317.032851
10.3450,22.59215991,96.15664077,1316.85945
10.3500,22.7190888,96.07362597,1316.685048
10.3550,22.84703724,95.98982491,1316.509567
10.3600,22.976231,95.90564537,1316.333127
10.3650,23.10813644,95.82255078,1316.155504
10.3700,23.24120933,95.73994022,1315.977584
10.3750,23.37633289,95.65843541,1315.798942
10.3800,23.51387325,95.57791825,1315.619397
10.3850,23.65219966,95.49736782,1315.439524
10.3900,23.79270684,95.4176971,1315.258793
10.3950,23.93422792,95.33783713,1315.077473
10.4000,24.07745957,95.2585152,1314.895459
10.4050,24.22052751,95.17862328,1314.713471
10.4100,24.36381302,95.0980202,1314.531092
10.4150,24.50720796,95.01707891,1314.34866
10.4200,24.64905866,94.93623872,1314.167594
10.4250,24.79100508,94.8549403,1313.986372
10.4300,24.93286915,94.77365068,1313.80537
10.4350,25.07404961,94.69213421,1313.62488
10.4400,25.21544051,94.61124664,1313.444751
10.4450,25.35735398,94.53097299,1313.264634
10.4500,25.49822627,94.45056517,1313.085337
10.4550,25.63850385,94.37025589,1312.906602
10.4600,25.77847848,94.28986411,1312.728141
10.4650,25.91749672,94.21058053,1312.551061
10.4700,26.05503025,94.13152246,1312.375261
10.4750,26.19107663,94.05279881,1312.200856
10.4800,26.32638719,93.97479701,1312.027429
10.4850,26.45986907,93.89702709,1311.855497
10.4900,26.59283517,93.82063538,1311.684765
10.4950,26.72626924,93.74522333,1311.51435
10.5000,26.86046251,93.67213216,1311.344862
10.5050,26.99470355,93.60045795,1311.176291
10.5100,27.12952713,93.53093312,1311.008681
10.5150,27.26649486,93.46435499,1310.841346
10.5200,27.40471091,93.40005192,1310.674529
10.5250,27.54442168,93.33758694,1310.507831
10.5300,27.68668782,93.27804026,1310.341137
10.5350,27.83075711,93.22000528,1310.174162
10.5400,27.97612912,93.1618258,1310.006263
10.5450,28.12347053,93.10434692,1309.837507
10.5500,28.27269318,93.04733691,1309.667875
10.5550,28.42419131,92.99104139,1309.497188
10.5600,28.57757737,92.93570099,1309.325915
10.5650,28.73362092,92.88164697,1309.153669
10.5700,28.89255599,92.82974337,1308.98078
10.5750,29.05464082,92.77888212,1308.806494
10.5800,29.22130453,92.73066375,1308.630621
10.5850,29.39306711,92.68527829,1308.452938
10.5900,29.56918257,92.64159956,1308.273355
10.5950,29.75093265,92.60031135,1308.091329
10.6000,29.93748682,92.56034529,1307.906911
10.6050,30.12890538,92.52249262,1307.720506
10.6100,30.32577185,92.48449872,1307.530514
10.6150,30.52687075,92.44703818,1307.338281
10.6200,30.73328046,92.41042566,1307.143238
10.6250,30.94417646,92.37386409,1306.945556
10.6300,31.16070894,92.33729371,1306.744371
10.6350,31.38242062,92.3002901,1306.539791
10.6400,31.61024866,92.26257362,1306.331095
10.6450,31.84416238,92.22518259,1306.118948
10.6500,32.08458103,92.18747059,1305.902716
10.6550,32.33023872,92.14836394,1305.682677
10.6600,32.58112681,92.10735824,1305.458531
10.6650,32.83580759,92.06293234,1305.230466
10.6700,33.09501274,92.01457304,1304.997638
10.6750,33.35696059,91.96086328,1304.760493
10.6800,33.62210895,91.90309066,1304.51947
10.6850,33.89067768,91.84221163,1304.274959
10.6900,34.16218223,91.77654631,1304.026314
10.6950,34.43669533,91.70737459,1303.774214
10.7000,34.71377776,91.63513953,1303.519274
10.7050,34.99483259,91.56074027,1303.260997
10.7100,35.27950756,91.48379737,1302.999438
10.7150,35.56648015,91.40371677,1302.735092
10.7200,35.8576641,91.31986235,1302.466394
10.7250,36.15140769,91.23241837,1302.194475
10.7300,36.44752812,91.14021274,1301.91894
10.7350,36.74644095,91.04277144,1301.639287
10.7400,37.04772737,90.93955042,1301.355553
10.7450,37.35029151,90.83045382,1301.068444
10.7500,37.65578325,90.71521081,1300.77676
10.7550,37.96322024,90.59450491,1300.481558
10.7600,38.27332527,90.46840885,1300.182406
10.7650,38.58736103,90.33809795,1299.879219
10.7700,38.90561485,90.20301606,1299.571415
10.7750,39.22791797,90.06340969,1299.259281
10.7800,39.55482471,89.91969496,1298.942754
10.7850,39.88695823,89.77270424,1298.621794
10.7900,40.22465174,89.62238766,1298.296233
10.7950,40.56665835,89.46922852,1297.967157
10.8000,40.91425485,89.31419962,1297.634264
10.8050,41.26783215,89.15702176,1297.297199
10.8100,41.62776122,88.99873725,1296.956266
10.8150,41.9931527,88.83944847,1296.612155
10.8200,42.36375147,88.67963604,1296.265317
10.8250,42.74048001,88.52051067,1295.915829
10.8300,43.12243834,88.36142517,1295.563892
10.8350,43.50923844,88.20398108,1295.210608
10.8400,43.9018606,88.04962622,1294.85623
10.8450,44.29974591,87.89673078,1294.500187
10.8500,44.70224186,87.74618655,1294.143351
10.8550,45.1101794,87.59752469,1293.785031
10.8600,45.52357116,87.4510607,1293.425335
10.8650,45.94070758,87.30511221,1293.064513
10.8700,46.3626123,87.16021528,1292.702246
10.8750,46.78878801,87.01633071,1292.338855
10.8800,47.21767402,86.87314409,1291.975248
10.8850,47.64820479,86.73059468,1291.612128
10.8900,48.0811261,86.58899401,1291.249148
10.8950,48.51493021,86.44741661,1290.886812
10.9000,48.9505837,86.30709762,1290.525224
10.9050,49.38756103,86.16583426,1290.163609
10.9100,49.82550166,86.02494458,1289.802825
10.9150,50.26448996,85.88316596,1289.442194
10.9200,50.70429853,85.74000983,1289.081651
10.9250,51.14443205,85.59547033,1288.721485
10.9300,51.58498816,85.44986817,1288.361864
10.9350,52.02472397,85.30334949,1288.003599
10.9400,52.46263226,85.15504534,1287.646799
10.9450,52.89863584,85.00410698,1287.29112
10.9500,53.33315081,84.85135703,1286.9367
10.9550,53.76659744,84.69469466,1286.582227
10.9600,54.19749695,84.53532714,1286.229169
10.9650,54.62601699,84.3720085,1285.876805
10.9700,55.05073788,84.20577006,1285.526445
10.9750,55.47237748,84.03624879,1285.177542
10.9800,55.89124197,83.8629934,1284.829621
10.9850,56.30674865,83.6850506,1284.482581
10.9900,56.71945332,83.50333902,1284.136585
10.9950,57.12976307,83.31781522,1283.7914
11.0000,57.53716028,83.12755845,1283.446821
11.0050,57.9417642,82.93182912,1283.102459
11.0100,58.34330753,82.73170644,1282.758998
11.0150,58.7436969,82.52782166,1282.415707
11.0200,59.14203748,82.32101002,1282.073451
11.0250,59.5387451,82.11071897,1281.731844
11.0300,59.93411365,81.89732254,1281.390826
11.0350,60.32836622,81.68150808,1281.050572
11.0400,60.72121148,81.46264732,1280.710962
11.0450,61.11458375,81.24125238,1280.37121
11.0500,61.50770913,81.01834073,1280.032186
11.0550,61.90202012,80.79412004,1279.693262
11.0600,62.29726416,80.56848095,1279.354519
11.0650,62.69389827,80.34064369,1279.015245
11.0700,63.09201899,80.11205814,1278.676185
11.0750,63.49216458,79.88312766,1278.337236
11.0800,63.8940029,79.65419812,1277.998733
11.0850,64.29943929,79.42674803,1277.660344
11.0900,64.70786683,79.20090151,1277.322441
11.0950,65.12099677,78.97705984,1276.984262
11.1000,65.53718697,78.75485311,1276.646491
11.1050,65.95805438,78.53506449,1276.308657
11.1100,66.38296346,78.31774075,1275.97113
11.1150,66.81323098,78.10294596,1275.633235
11.1200,67.24945055,77.89085276,1275.294757
11.1250,67.69043745,77.68145985,1274.956274
11.1300,68.1373321,77.47436785,1274.617135
11.1350,68.59093408,77.26925447,1274.276779
11.1400,69.04931958,77.06477992,1273.935645
11.1450,69.51356661,76.86231906,1273.593856
11.1500,69.98323912,76.66051614,1273.251066
11.1550,70.45740714,76.45880026,1272.907513
11.1600,70.93594015,76.2575022,1272.563494
11.1650,71.41849766,76.05674715,1272.219266
11.1700,71.90442843,75.85580593,1271.874859
11.1750,72.39389229,75.6547215,1271.530148
11.1800,72.88672573,75.45299136,1271.185031
11.1850,73.38388118,75.25071444,1270.839017
11.1900,73.88488361,75.04858439,1270.492737
11.1950,74.38942572,74.84561497,1270.145905
11.2000,74.89788141,74.64276237,1269.79881
11.2050,75.40932738,74.44059084,1269.452131
11.2100,75.92328579,74.23897754,1269.106117
11.2150,76.43927894,74.03699827,1268.760581
11.2200,76.95633265,73.83383366,1268.415679
11.2250,77.47489053,73.62974801,1268.07138
11.2300,77.99355014,73.42479719,1267.728329
11.2350,78.51369522,73.21815219,1267.385643
11.2400,79.03479745,73.01000799,1267.04366
11.2450,79.55662005,72.80011853,1266.702452
11.2500,80.07892032,72.58809842,1266.361954
11.2550,80.60137341,72.37366505,1266.022246
11.2600,81.12442513,72.15571867,1265.682647
11.2650,81.64681078,71.93488417,1265.343945
11.2700,82.1700942,71.71009086,1265.005032
11.2750,82.69315479,71.48089081,1264.666202
11.2800,83.21474997,71.24649186,1264.327733
11.2850,83.73560544,71.00700174,1263.989294
11.2900,84.25442718,70.76174585,1263.651246
11.2950,84.77051941,70.50987222,1263.313511
11.3000,85.28531634,70.2515943,1262.975541
11.3050,85.79895746,69.98749431,1262.637527
11.3100,86.31250396,69.71829522,1262.299268
11.3150,86.82490468,69.44322581,1261.960836
11.3200,87.33670651,69.16262398,1261.622159
11.3250,87.84933088,68.87694777,1261.282754
11.3300,88.36276636,68.58535735,1260.942299
11.3350,88.87779974,68.28936892,1260.601081
11.3400,89.39525583,67.98948045,1260.258959
11.3450,89.91439788,67.68483623,1259.915978
11.3500,90.43569028,67.37633899,1259.572304
11.3550,90.96003958,67.06303858,1259.227137
11.3600,91.48870705,66.74541523,1258.880263
11.3650,92.02157752,66.42368454,1258.531907
11.3700,92.55839298,66.09741229,1258.182052
11.3750,93.10003327,65.76627202,1257.83022
11.3800,93.64639671,65.43019101,1257.476504
11.3850,94.19640605,65.08748224,1257.120816
11.3900,94.75044287,64.73891537,1256.763335
11.3950,95.30738087,64.38425731,1256.404517
11.4000,95.86805842,64.02344868,1256.044075
11.4050,96.43112544,63.65699324,1255.682711
11.4100,96.99677062,63.28425378,1255.320168
11.4150,97.56441635,62.90570162,1254.956952
11.4200,98.13406505,62.52255961,1254.593483
11.4250,98.70568541,62.13437906,1254.229678
11.4300,99.27861399,61.74266266,1253.866361
11.4350,99.85297512,61.3473216,1253.503496
11.4400,100.4306243,60.95012015,1253.140963
11.4450,101.0098759,60.55009233,1252.779105
11.4500,101.5922788,60.14790708,1252.417482
11.4550,102.1773154,59.74528499,1252.056924
11.4600,102.7659558,59.34151623,1251.696833
11.4650,103.358465,58.93591941,1251.336812
11.4700,103.9555295,58.53044978,1250.977436
11.4750,104.5562264,58.12457518,1250.618839
11.4800,105.1608325,57.71769931,1250.260788
11.4850,105.7696468,57.30999217,1249.903313
11.4900,106.381521,56.90095,1249.546774
11.4950,106.9972841,56.49124345,1249.191085
11.5000,107.616076,56.07891807,1248.835955
11.5050,108.2386486,55.6648424,1248.481539
11.5100,108.8647205,55.24767159,1248.127471
11.5150,109.4946813,54.82939119,1247.774366
11.5200,110.1277764,54.40906403,1247.422193
11.5250,110.7642554,53.98770391,1247.071242
11.5300,111.4035449,53.5636117,1246.721181
11.5350,112.0448709,53.13776143,1246.372565
11.5400,112.6892789,52.70890777,1246.024631
11.5450,113.3362149,52.27726378,1245.677621
11.5500,113.9846024,51.84320698,1245.332063
11.5550,114.6350338,51.40716678,1244.987935
11.5600,115.2871138,50.96910864,1244.645409
11.5650,115.9407492,50.52895271,1244.304566
11.5700,116.5955199,50.08626519,1243.965349
11.5750,117.2515304,49.6427131,1243.628338
11.5800,117.9089114,49.19801822,1243.293283
11.5850,118.5677574,48.75332165,1242.960547
11.5900,119.227777,48.30937948,1242.630417
11.5950,119.8898186,47.86708552,1242.302868
11.6000,120.5533912,47.42677973,1241.978083
11.6050,121.2181244,46.98969773,1241.656586
11.6100,121.8836234,46.55455505,1241.338124
11.6150,122.5507894,46.12251025,1241.022816
11.6200,123.2196373,45.69476196,1240.711076
11.6250,123.8902511,45.27133985,1240.402949
11.6300,124.5625266,44.85449538,1240.099161
11.6350,125.2359624,44.44390221,1239.799861
11.6400,125.9102607,44.03995443,1239.505302
11.6450,126.5859863,43.64350828,1239.215541
11.6500,127.2627422,43.25243414,1238.930096
11.6550,127.9379136,42.86695063,1238.649905
11.6600,128.6095894,42.48656284,1238.375363
11.6650,129.2762162,42.11060231,1238.106825
11.6700,129.9376006,41.74023915,1237.844673
11.6750,130.5924114,41.37543837,1237.589219
11.6800,131.2402976,41.01534999,1237.340188
11.6850,131.8808083,40.660473,1237.097982
11.6900,132.5118992,40.31174316,1236.863342
11.6950,133.1329908,39.97014752,1236.636717
11.7000,133.7444652,39.63644401,1236.418118
11.7050,134.3461252,39.31147969,1236.207802
11.7100,134.9377689,38.99552576,1236.005784
11.7150,135.5189148,38.6894395,1235.812253
11.7200,136.088784,38.39244695,1235.627044
11.7250,136.6481071,38.10508932,1235.449842
11.7300,137.1961102,37.82657751,1235.280458
11.7350,137.7329296,37.55857044,1235.119242
11.7400,138.2570083,37.29986586,1234.966183
11.7450,138.7691948,37.05058775,1234.821017
11.7500,139.2693042,36.81067655,1234.683618
11.7550,139.7575317,36.57794751,1234.553141
11.7600,140.2345159,36.35292606,1234.42937
11.7650,140.7017506,36.13643412,1234.31193
11.7700,141.159088,35.92599086,1234.200026
11.7750,141.6078703,35.72175614,1234.093253
11.7800,142.0484729,35.52323047,1233.991156
11.7850,142.4817661,35.32847264,1233.892843
11.7900,142.9079317,35.13829258,1233.798314
11.7950,143.3267028,34.95122013,1233.707167
11.8000,143.7390206,34.76765697,1233.619156
11.8050,144.1451331,34.5873012,1233.534046
11.8100,144.5458346,34.40882478,1233.45119
11.8150,144.9410978,34.23048977,1233.370034
11.8200,145.332785,34.05438536,1233.290662
11.8250,145.7201433,33.87813298,1233.212619
11.8300,146.1040618,33.70261189,1233.136019
11.8350,146.4848935,33.52619049,1233.06027
11.8400,146.8620422,33.35034948,1232.986011
11.8450,147.2355243,33.17406657,1232.91302
11.8500,147.6059585,32.99676372,1232.841054
11.8550,147.9728741,32.8188011,1232.770262
11.8600,148.3365702,32.64034184,1232.700681
11.8650,148.6983172,32.45987861,1232.631448
11.8700,149.0570731,32.27840363,1232.56316
11.8750,149.41309,32.09223204,1232.494756
11.8800,149.7659187,31.90100075,1232.42633
11.8850,150.115836,31.70435864,1232.357658
11.8900,150.4635551,31.50143038,1232.288384
11.8950,150.808635,31.2919181,1232.218567
11.9000,151.1506348,31.07527252,1232.148149
11.9050,151.4899912,30.8507281,1232.076861
11.9100,151.8264683,30.62026339,1232.00536
11.9150,152.1593315,30.38316433,1231.933831
11.9200,152.4892229,30.14084453,1231.862561
11.9250,152.8158438,29.89349018,1231.79168
11.9300,153.1386497,29.6410566,1231.721479
11.9350,153.4581074,29.38414675,1231.652002
11.9400,153.7738548,29.12268235,1231.58341
11.9450,154.084508,28.85858281,1231.516635
11.9500,154.3916224,28.59412537,1231.451908
11.9550,154.6969143,28.3302124,1231.388989
11.9600,155.0014885,28.06815819,1231.327814
11.9650,155.3054565,27.80899809,1231.268664
11.9700,155.609664,27.55336574,1231.211411
11.9750,155.9137812,27.30271514,1231.156483
11.9800,156.2183168,27.05854338,1231.104085
11.9850,156.5237238,26.82271836,1231.054285
11.9900,156.8313638,26.59449398,1231.006662
11.9950,157.141267,26.37345984,1230.960896
12.0000,157.4523825,26.1592806,1230.91704
12.0050,157.7648205,25.95049099,1230.874728
12.0100,158.0781277,25.74690071,1230.833986
12.0150,158.3914474,25.54722778,1230.794618
12.0200,158.7055516,25.35121593,1230.756271
12.0250,159.0207431,25.15839149,1230.718804
12.0300,159.337102,24.96820613,1230.682014
12.0350,159.654516,24.77952895,1230.645561
12.0400,159.9749006,24.59290299,1230.609131
12.0450,160.2987074,24.40759816,1230.572315
12.0500,160.6256521,24.22409482,1230.53544
12.0550,160.9563294,24.04262926,1230.498486
12.0600,161.2902378,23.86201673,1230.461301
12.0650,161.6275348,23.68192717,1230.423852
12.0700,161.968133,23.50237919,1230.386154
12.0750,162.3120834,23.32179068,1230.34788
12.0800,162.6584903,23.13915219,1230.309128
12.0850,163.0064229,22.95475111,1230.270357
12.0900,163.3560346,22.76679345,1230.23114
12.0950,163.7069678,22.57532755,1230.191807
12.1000,164.058481,22.37863007,1230.152062
12.1050,164.4099202,22.17544797,1230.1118
12.1100,164.7612905,21.96627857,1230.071292
12.1150,165.1129475,21.75028671,1230.030173
12.1200,165.464026,21.52604217,1229.988271
12.1250,165.8148015,21.29395996,1229.945574
12.1300,166.1651564,21.05425624,1229.902161
12.1350,166.5138181,20.80698912,1229.858297
12.1400,166.8609002,20.55111921,1229.813704
12.1450,167.206613,20.2874291,1229.768531
12.1500,167.5511131,20.01536472,1229.722606
12.1550,167.8933492,19.73621559,1229.676461
12.1600,168.2342642,19.44930547,1229.629706
12.1650,168.573025,19.15683161,1229.583144
12.1700,168.9090068,18.85868876,1229.536942
12.1750,169.2425475,18.55742716,1229.491531
12.1800,169.5746797,18.25432669,1229.44706
12.1850,169.9045331,17.95031592,1229.403939
12.1900,170.2311951,17.64535059,1229.362271
12.1950,170.5550422,17.34095613,1229.322346
12.2000,170.8761206,17.03799102,1229.284339
12.2050,171.1938989,16.73708596,1229.2484
12.2100,171.5095618,16.43849896,1229.214235
12.2150,171.8235547,16.14276297,1229.181791
12.2200,172.134924,15.85012347,1229.151332
12.2250,172.4434563,15.56123515,1229.122992
12.2300,172.7502455,15.27635236,1229.096563
12.2350,173.0547668,14.9938888,1229.071804
12.2400,173.3575385,14.71534648,1229.048829
12.2450,173.6600864,14.43987656,1229.027077
12.2500,173.9616458,14.16863279,1229.006838
12.2550,174.261938,13.90049141,1228.987859
12.2600,174.5621551,13.63643258,1228.970105
12.2650,174.8628735,13.37704998,1228.953289
12.2700,175.1650898,13.12248728,1228.937255
12.2750,175.4689038,12.87274783,1228.92189
12.2800,175.7754994,12.62795817,1228.906989
12.2850,176.0848712,12.38767152,1228.892481
12.2900,176.3967654,12.15290169,1228.878604
12.2950,176.7110735,11.92454871,1228.865615
12.3000,177.0285294,11.701135,1228.853171
12.3050,177.3497779,11.4840201,1228.841416
12.3100,177.6747205,11.27397326,1228.830429
12.3150,178.0033248,11.06965198,1228.82005
12.3200,178.334456,10.87054938,1228.810578
12.3250,178.6664765,10.67649244,1228.802332
12.3300,179.0000193,10.48765053,1228.79515
12.3350,179.3351745,10.30246298,1228.788683
12.3400,179.670546,10.12087318,1228.783127
12.3450,180.0048409,9.941290816,1228.778462
12.3500,180.3378261,9.764364652,1228.774897
12.3550,180.669266,9.588645265,1228.77222
12.3600,180.9989663,9.414383749,1228.770542
12.3650,181.3261168,9.240176459,1228.769776
12.3700,181.6496009,9.065705116,1228.770154
12.3750,181.9698221,8.891842523,1228.771779
12.3800,182.2868155,8.718444096,1228.774532
12.3850,182.5999292,8.544961043,1228.778263
12.3900,182.9097029,8.371335605,1228.782905
12.3950,183.2158686,8.197460789,1228.788282
12.4000,183.5187259,8.022855748,1228.794299
12.4050,183.8165971,7.848311967,1228.801495
12.4100,184.1093015,7.673339295,1228.809705
12.4150,184.395603,7.498270329,1228.819461
12.4200,184.6751412,7.32412566,1228.830963
12.4250,184.9470731,7.150854283,1228.844457
12.4300,185.2102879,6.978375163,1228.860106
12.4350,185.4648196,6.806124913,1228.877951
12.4400,185.709974,6.635069067,1228.898332
12.4450,185.9457398,6.464315317,1228.920997
12.4500,186.1711441,6.293699988,1228.946144
12.4550,186.3864759,6.121945837,1228.973405
12.4600,186.5910185,5.949740891,1229.00302
12.4650,186.7851808,5.775875071,1229.034534
12.4700,186.9691926,5.600795509,1229.06795
12.4750,187.1438944,5.425620385,1229.103316
12.4800,187.3084687,5.250340036,1229.140661
12.4850,187.4645568,5.074264462,1229.179495
12.4900,187.613324,4.899145828,1229.220057
12.4950,187.7557335,4.724685235,1229.261992
12.5000,187.8924237,4.552125452,1229.30541
12.5050,188.0257863,4.382228259,1229.350011
12.5100,188.1557024,4.215459729,1229.395807
12.5150,188.2829642,4.052320171,1229.442711
12.5200,188.4095235,3.892206651,1229.490166
12.5250,188.5359222,3.73542575,1229.538067
12.5300,188.6619355,3.581936957,1229.586426
12.5350,188.7896307,3.433330787,1229.635007
12.5400,188.919981,3.289031782,1229.683467
12.5450,189.0540253,3.14878752,1229.731568
12.5500,189.1902332,3.011575733,1229.779376
12.5550,189.3309569,2.878083442,1229.826645
12.5600,189.4756423,2.747155941,1229.873203
12.5650,189.6255471,2.618275151,1229.918775
12.5700,189.780019,2.49114523,1229.963387
12.5750,189.9401728,2.364488851,1230.006552
12.5800,190.1053478,2.237927397,1230.048335
12.5850,190.2756809,2.110065381,1230.088386
12.5900,190.4518752,1.978569413,1230.126117
12.5950,190.6344316,1.842675615,1230.161168
12.6000,190.8240652,1.703073908,1230.193419
12.6050,191.0200433,1.558141954,1230.222612
12.6100,191.2227817,1.406831278,1230.248575
12.6150,191.4322691,1.250096537,1230.271378
12.6200,191.6485459,1.087670424,1230.290971
12.6250,191.8734112,0.920590525,1230.307164
12.6300,192.105943,0.7467166617,1230.319954
12.6350,192.3460548,0.5677706396,1230.329689
12.6400,192.5940778,0.3834537894,1230.336334
12.6450,192.8495506,0.1955558079,1230.340343
12.6500,193.1115121,0.001978141487,1230.341588
12.6550,193.379823,-0.1953154094,1230.34055
12.6600,193.6527395,-0.3963466031,1230.337543
12.6650,193.9289534,-0.5996362575,1230.333254
12.6700,194.2079336,-0.8045219046,1230.327839
12.6750,194.487458,-1.011595631,1230.321626
12.6800,194.7673507,-1.219738374,1230.314926
12.6850,195.0455978,-1.429085304,1230.30819
12.6900,195.3204913,-1.639266269,1230.301766
12.6950,195.5911527,-1.850386434,1230.295862
12.7000,195.8552546,-2.060798001,1230.291113
12.7050,196.112965,-2.272184023,1230.287213
12.7100,196.3623699,-2.483477567,1230.284652
12.7150,196.6021569,-2.694127311,1230.283728
12.7200,196.8311786,-2.90562562,1230.284384
12.7250,197.0483986,-3.118024429,1230.28684
12.7300,197.2530517,-3.331681857,1230.291159
12.7350,197.4449685,-3.546123651,1230.297421
12.7400,197.6227015,-3.761733159,1230.305791
12.7450,197.7853148,-3.978515114,1230.316493
12.7500,197.9336396,-4.195185648,1230.329563
12.7550,198.0669067,-4.411134327,1230.345313
12.7600,198.1850952,-4.627193972,1230.363576
12.7650,198.2883214,-4.842711237,1230.384613
12.7700,198.3777252,-5.056877148,1230.40827
12.7750,198.4530945,-5.269471306,1230.434633
12.7800,198.5150826,-5.479339602,1230.463768
12.7850,198.5642353,-5.686261328,1230.495665
12.7900,198.6018308,-5.890030165,1230.530007
12.7950,198.6277115,-6.090096312,1230.56694
12.8000,198.6439538,-6.286348586,1230.606059
12.8050,198.6502423,-6.479394698,1230.64737
12.8100,198.6486263,-6.669671616,1230.690503
12.8150,198.6404831,-6.855852589,1230.735284
12.8200,198.626144,-7.038685716,1230.781548
12.8250,198.6065397,-7.217974859,1230.829175
12.8300,198.5841806,-7.394460434,1230.87753
12.8350,198.5590814,-7.56857051,1230.926494
12.8400,198.5321212,-7.740655404,1230.97585
12.8450,198.5033737,-7.911687317,1231.025424
12.8500,198.4757158,-8.081920722,1231.074566
12.8550,198.4484262,-8.251801943,1231.123246
12.8600,198.4235171,-8.420082774,1231.171292
12.8650,198.4011246,-8.588104198,1231.218408
12.8700,198.3825075,-8.756521391,1231.264237
12.8750,198.3682176,-8.923994273,1231.308891
12.8800,198.3593029,-9.091606892,1231.351989
12.8850,198.3564445,-9.258864739,1231.393489
12.8900,198.3607457,-9.424766787,1231.433331
12.8950,198.3733033,-9.59076608,1231.471073
12.9000,198.393172,-9.756338703,1231.507042
12.9050,198.4202842,-9.922096898,1231.541296
12.9100,198.454079,-10.08654771,1231.574111
12.9150,198.4948588,-10.25061499,1231.605384
12.9200,198.5427664,-10.41375564,1231.635167
12.9250,198.5961406,-10.57667396,1231.663731
12.9300,198.6548484,-10.73785776,1231.691276
12.9350,198.7178501,-10.89837805,1231.717917
12.9400,198.7830908,-11.05886248,1231.743974
12.9450,198.8508274,-11.21876088,1231.769649
12.9500,198.9192648,-11.37758205,1231.795256
12.9550,198.9881221,-11.53471836,1231.820918
12.9600,199.0558145,-11.69114525,1231.846943
12.9650,199.1220125,-11.84710601,1231.873197
12.9700,199.1854008,-12.00256825,1231.900038
12.9750,199.2452639,-12.1567451,1231.927677
12.9800,199.300165,-12.30963176,1231.956261
12.9850,199.3494275,-12.46100177,1231.985999
12.9900,199.3930536,-12.61012612,1232.016912
12.9950,199.4304808,-12.75693256,1232.049139
13.0000,199.4610967,-12.90177755,1232.082586
13.0050,199.4844245,-13.04357714,1232.117521
13.0100,199.5007438,-13.18281182,1232.153768
13.0150,199.5096622,-13.31891193,1232.191391
13.0200,199.5114674,-13.45187124,1232.230347
13.0250,199.5062655,-13.58010124,1232.270683
13.0300,199.4944595,-13.70509459,1232.312162
13.0350,199.4762576,-13.82532223,1232.354958
13.0400,199.4525446,-13.94172433,1232.398645
13.0450,199.4238041,-14.05310427,1232.443172
13.0500,199.3902043,-14.15933355,1232.488449
13.0550,199.3520465,-14.26178947,1232.534119
13.0600,199.3104564,-14.35827571,1232.580093
13.0650,199.2654025,-14.44955255,1232.626188
13.0700,199.2163804,-14.53543137,1232.672418
13.0750,199.1635939,-14.61624667,1232.718634
13.0800,199.1080148,-14.69269413,1232.764523
13.0850,199.0491719,-14.76310808,1232.810258
13.0900,198.9867817,-14.82767452,1232.855929
13.0950,198.9210178,-14.88723076,1232.901268
13.1000,198.8515929,-14.94051785,1232.946507
13.1050,198.779032,-14.98684123,1232.991475
13.1100,198.7023744,-15.0265802,1233.036301
13.1150,198.621103,-15.05906489,1233.081151
13.1200,198.5364039,-15.08460822,1233.125754
13.1250,198.4491599,-15.10264285,1233.17014
13.1300,198.3581866,-15.11309901,1233.214491
13.1350,198.2655618,-15.11585972,1233.258522
13.1400,198.1709897,-15.11192806,1233.30224
13.1450,198.0768172,-15.09976112,1233.345367
13.1500,197.9834207,-15.07992303,1233.387809
13.1550,197.8930268,-15.05347116,1233.429113
13.1600,197.806333,-15.021533,1233.468988
13.1650,197.7245198,-14.98432878,1233.507273
13.1700,197.6489201,-14.94211586,1233.543651
13.1750,197.5806039,-14.89613684,1233.577812
13.1800,197.5201487,-14.84524471,1233.609745
13.1850,197.46951,-14.79072544,1233.638954
13.1900,197.4280308,-14.73302695,1233.665468
13.1950,197.3971449,-14.6714949,1233.689222
13.2000,197.3773862,-14.60753274,1233.709769
13.2050,197.3702415,-14.53945459,1233.727037
13.2100,197.3741779,-14.47017201,1233.740899
13.2150,197.3899902,-14.39903108,1233.751262
13.2200,197.4162146,-14.32641953,1233.758313
13.2250,197.4527026,-14.25354348,1233.761894
13.2300,197.4977983,-14.17979712,1233.762468
13.2350,197.551085,-14.10485774,1233.760095
13.2400,197.6114812,-14.0298643,1233.75486
13.2450,197.677478,-13.95451447,1233.747056
13.2500,197.7480642,-13.87997179,1233.736814
13.2550,197.8206216,-13.80738361,1233.724474
13.2600,197.8940391,-13.73536462,1233.710346
13.2650,197.9669775,-13.66410915,1233.694752
13.2700,198.039125,-13.59423754,1233.677594
13.2750,198.1093195,-13.52592463,1233.659119
13.2800,198.1766572,-13.45966268,1233.639431
13.2850,198.2421984,-13.39498461,1233.61828
13.2900,198.3040918,-13.33301919,1233.595933
13.2950,198.3628494,-13.27314055,1233.572204
13.3000,198.4187093,-13.21675828,1233.546972
13.3050,198.4723755,-13.16269493,1233.520231
13.3100,198.5221936,-13.1107995,1233.492157
13.3150,198.5694957,-13.06221069,1233.46234
13.3200,198.6126415,-13.01520646,1233.43132
13.3250,198.6521199,-12.97146344,1233.398821
13.3300,198.6879604,-12.92923769,1233.364983
13.3350,198.7193059,-12.888665,1233.32984
13.3400,198.7464207,-12.84843692,1233.293603
13.3450,198.7692648,-12.80887086,1233.256223
13.3500,198.7860717,-12.77084504,1233.217936
13.3550,198.7971358,-12.73255901,1233.178958
13.3600,198.800281,-12.69556137,1233.139602
13.3650,198.7950344,-12.65777311,1233.100147
13.3700,198.7812133,-12.62019869,1233.060701
13.3750,198.7572749,-12.58230818,1233.021549
13.3800,198.7229885,-12.54365854,1232.98276
13.3850,198.6780218,-12.50523196,1232.944365
13.3900,198.6212467,-12.46566705,1232.906632
13.3950,198.5530673,-12.42545956,1232.869516
13.4000,198.473991,-12.38559032,1232.832799
13.4050,198.3837217,-12.34613538,1232.796576
13.4100,198.2833993,-12.3060347,1232.760837
13.4150,198.1738417,-12.2667379,1232.725236
13.4200,198.0549934,-12.22728889,1232.689958
13.4250,197.9266112,-12.18807555,1232.65492
13.4300,197.7919069,-12.14899444,1232.619516
13.4350,197.6513,-12.11039314,1232.583722
13.4400,197.5059292,-12.07067691,1232.547467
13.4450,197.3562192,-12.0306213,1232.510496
13.4500,197.2033832,-11.99053581,1232.472667
13.4550,197.0476686,-11.94912782,1232.434066
13.4600,196.8896552,-11.90573688,1232.394812
13.4650,196.7303431,-11.85911414,1232.354862
13.4700,196.570631,-11.80948738,1232.314111
13.4750,196.4111375,-11.75672004,1232.272517
13.4800,196.2522704,-11.70068722,1232.23005
13.4850,196.0943443,-11.64175824,1232.186685
13.4900,195.9382279,-11.57938236,1232.142363
13.4950,195.7837808,-11.5146163,1232.096987
13.5000,195.6308044,-11.44611135,1232.050841
13.5050,195.4789122,-11.37609264,1232.003656
13.5100,195.3295576,-11.30422315,1231.955266
13.5150,195.1816639,-11.23034442,1231.905907
13.5200,195.0367097,-11.15465447,1231.855344
13.5250,194.8956132,-11.07686239,1231.803436
13.5300,194.7601597,-10.99754806,1231.749755
13.5350,194.6295927,-10.91813204,1231.69431
13.5400,194.5052754,-10.83727691,1231.637024
13.5450,194.3881297,-10.75660097,1231.577507
13.5500,194.2789438,-10.67422403,1231.515899
13.5550,194.1776664,-10.59032645,1231.452187
13.5600,194.0859501,-10.50533269,1231.386118
13.5650,194.0044934,-10.41970927,1231.31739
13.5700,193.9335386,-10.33233987,1231.246224
13.5750,193.8725522,-10.2432312,1231.172786
13.5800,193.8219855,-10.15329746,1231.096911
13.5850,193.780871,-10.06198098,1231.018992
13.5900,193.74899,-9.969247887,1230.939049
13.5950,193.7258918,-9.875535372,1230.857217
13.6000,193.7100847,-9.779399896,1230.774048
13.6050,193.7006878,-9.682840008,1230.689401
13.6100,193.6991229,-9.585700563,1230.603213
13.6150,193.7028891,-9.487187364,1230.516091
13.6200,193.7125654,-9.387271718,1230.42787
13.6250,193.7262612,-9.286115289,1230.338843
13.6300,193.7434855,-9.183744183,1230.249176
13.6350,193.764955,-9.080584958,1230.158622
13.6400,193.789416,-8.977221718,1230.067299
13.6450,193.8170604,-8.873574639,1229.975147
13.6500,193.847529,-8.768080123,1229.882444
13.6550,193.8804146,-8.662243567,1229.789083
13.6600,193.9158179,-8.554386654,1229.695291
13.6650,193.9542914,-8.44587373,1229.600788
13.6700,193.9952462,-8.336179546,1229.505639
13.6750,194.0400122,-8.224124978,1229.409824
13.6800,194.0869476,-8.110303112,1229.313624
13.6850,194.1354382,-7.995270918,1229.217154
13.6900,194.1865243,-7.879531079,1229.120102
13.6950,194.2388516,-7.762752447,1229.022869
13.7000,194.2919612,-7.644707768,1228.925489
13.7050,194.3451547,-7.525659421,1228.828042
13.7100,194.3980597,-7.405025161,1228.730582
13.7150,194.4500724,-7.283165734,1228.633178
13.7200,194.5012058,-7.161399517,1228.535555
13.7250,194.5515231,-7.039588466,1228.437656
13.7300,194.5984319,-6.917737952,1228.339975
13.7350,194.6415203,-6.796625581,1228.242396
13.7400,194.6813168,-6.675366204,1228.144953
13.7450,194.7165993,-6.554719028,1228.047848
13.7500,194.7475754,-6.433035985,1227.951353
13.7550,194.7741075,-6.31129664,1227.855377
13.7600,194.7947082,-6.188459649,1227.7603
13.7650,194.810122,-6.065254342,1227.665958
13.7700,194.8203422,-5.940903824,1227.572557
13.7750,194.824993,-5.814684905,1227.480237
13.7800,194.8240697,-5.686770922,1227.389101
13.7850,194.8183919,-5.555254208,1227.299267
13.7900,194.8064454,-5.421009113,1227.210876
13.7950,194.7875222,-5.283341752,1227.124171
13.8000,194.7625956,-5.14250544,1227.039023
13.8050,194.7320194,-4.997651247,1226.955481
