type,name,time_units,begin_time,frequency,count,units
signal_3d,"Noraxon MyoMotion-Trajectories-Medial humeral epicondyle RT","s",0.0000,200,5068,"mm"

time,x,y,z
0.0000,151.4084851,-5.664666277,1239.950506
0.0050,151.4162741,-5.678023837,1239.946362
0.0100,151.424064,-5.691381148,1239.942219
0.0150,151.4318545,-5.704738208,1239.938076
0.0200,151.4402636,-5.720329901,1239.933355
0.0250,151.4492264,-5.738274142,1239.928042
0.0300,151.4586697,-5.758644497,1239.922135
0.0350,151.4685155,-5.781465778,1239.915643
0.0400,151.478678,-5.806723814,1239.908589
0.0450,151.4890622,-5.834378245,1239.901001
0.0500,151.4995705,-5.86436612,1239.892918
0.0550,151.5101108,-5.896598113,1239.884387
0.0600,151.5206013,-5.930954925,1239.87546
0.0650,151.5309718,-5.967283988,1239.866196
0.0700,151.5411635,-6.005394899,1239.856663
0.0750,151.5511284,-6.045057607,1239.84693
0.0800,151.5608248,-6.086007758,1239.837075
0.0850,151.5702137,-6.127959441,1239.827176
0.0900,151.579256,-6.170620881,1239.817312
0.0950,151.587917,-6.21370603,1239.807558
0.1000,151.5961725,-6.256938172,1239.797983
0.1050,151.6040071,-6.300046802,1239.788654
0.1100,151.6114063,-6.342761094,1239.779632
0.1150,151.6183498,-6.384805343,1239.770974
0.1200,151.6248074,-6.425900514,1239.762738
0.1250,151.6307333,-6.46577081,1239.754976
0.1300,151.6360598,-6.504152928,1239.747737
0.1350,151.6406938,-6.540804457,1239.741068
0.1400,151.6445183,-6.57550769,1239.735011
0.1450,151.6473957,-6.608070031,1239.729606
0.1500,151.6491752,-6.638324544,1239.724886
0.1550,151.6586762,-6.69070722,1239.715413
0.1600,151.6684308,-6.740966262,1239.706419
0.1650,151.6771419,-6.789000753,1239.698017
0.1700,151.6849844,-6.833796689,1239.690397
0.1750,151.6912146,-6.876333598,1239.683363
0.1800,151.6965011,-6.915653437,1239.677087
0.1850,151.7013612,-6.951256367,1239.671582
0.1900,151.7053836,-6.982590687,1239.666835
0.1950,151.7081405,-7.010846344,1239.662807
0.2000,151.7099105,-7.036464916,1239.659368
0.2050,151.710457,-7.05801191,1239.656796
0.2100,151.7105089,-7.07665366,1239.654808
0.2150,151.7097038,-7.093028559,1239.653295
0.2200,151.7095421,-7.106370211,1239.652187
0.2250,151.7105834,-7.117480589,1239.651227
0.2300,151.7122514,-7.126037506,1239.650582
0.2350,151.7152571,-7.131384087,1239.650273
0.2400,151.7193988,-7.135250532,1239.649961
0.2450,151.7244647,-7.137820324,1239.649697
0.2500,151.7318523,-7.139400305,1239.649312
0.2550,151.7417265,-7.14049238,1239.648609
0.2600,151.7550892,-7.14168705,1239.647406
0.2650,151.7709053,-7.141454156,1239.64604
0.2700,151.7898908,-7.140901506,1239.644233
0.2750,151.811995,-7.138958583,1239.642112
0.2800,151.837221,-7.135748112,1239.639702
0.2850,151.8648108,-7.131077855,1239.637131
0.2900,151.8948034,-7.126256245,1239.634219
0.2950,151.9270524,-7.12036545,1239.631114
0.3000,151.9607138,-7.113099599,1239.628001
0.3050,151.9954196,-7.104933406,1239.624923
0.3100,152.0319248,-7.095876086,1239.621714
0.3150,152.0697809,-7.085838798,1239.61845
0.3200,152.1086469,-7.074407007,1239.615228
0.3250,152.1473013,-7.062194436,1239.612066
0.3300,152.1867808,-7.049840213,1239.608677
0.3350,152.2259868,-7.037832186,1239.605161
0.3400,152.2650882,-7.025458115,1239.60165
0.3450,152.3044853,-7.013396733,1239.597954
0.3500,152.3437747,-7.00083111,1239.59425
0.3550,152.3836932,-6.988641776,1239.590322
0.3600,152.4237486,-6.976895656,1239.586146
0.3650,152.4638444,-6.965912038,1239.581838
0.3700,152.5040686,-6.955761232,1239.577284
0.3750,152.544345,-6.94665799,1239.57239
0.3800,152.5846396,-6.938844696,1239.567272
0.3850,152.6250494,-6.932828912,1239.561785
0.3900,152.6646168,-6.928704128,1239.556029
0.3950,152.7050176,-6.925582028,1239.549954
0.4000,152.7462335,-6.924762849,1239.543315
0.4050,152.7876235,-6.92570068,1239.536317
0.4100,152.8287566,-6.927837606,1239.529111
0.4150,152.8698009,-6.931545204,1239.521642
0.4200,152.9108195,-6.93686089,1239.513963
0.4250,152.9511036,-6.943626881,1239.506314
0.4300,152.9917707,-6.951775058,1239.498405
0.4350,153.0329169,-6.961772579,1239.490196
0.4400,153.0743405,-6.972999009,1239.481783
0.4450,153.1163719,-6.984915917,1239.473224
0.4500,153.1583312,-6.998317844,1239.464571
0.4550,153.2008171,-7.012642481,1239.455796
0.4600,153.2435646,-7.027793804,1239.446894
0.4650,153.2878344,-7.043066508,1239.437898
0.4700,153.3329059,-7.059211874,1239.428663
0.4750,153.378824,-7.075958917,1239.419389
0.4800,153.425842,-7.093566078,1239.409893
0.4850,153.472493,-7.110838917,1239.400547
0.4900,153.5200163,-7.129211179,1239.39099
0.4950,153.5672481,-7.146974225,1239.381658
0.5000,153.6140075,-7.164652497,1239.372393
0.5050,153.6609607,-7.183266252,1239.362925
0.5100,153.7074275,-7.2013593,1239.35366
0.5150,153.7535993,-7.21948415,1239.344458
0.5200,153.7983266,-7.238384638,1239.335346
0.5250,153.8414339,-7.257148501,1239.32646
0.5300,153.8833143,-7.276063924,1239.317671
0.5350,153.9234777,-7.295851836,1239.30894
0.5400,153.9627984,-7.316215076,1239.300211
0.5450,154.0003646,-7.337979437,1239.291487
0.5500,154.0361471,-7.360302151,1239.282775
0.5550,154.0713294,-7.383078925,1239.274052
0.5600,154.1048447,-7.407428342,1239.265298
0.5650,154.1375082,-7.432987337,1239.256408
0.5700,154.1689314,-7.460319821,1239.247349
0.5750,154.1999952,-7.489158091,1239.238114
0.5800,154.2308014,-7.519719126,1239.228613
0.5850,154.2611873,-7.552596751,1239.218828
0.5900,154.2917556,-7.585836646,1239.208895
0.5950,154.3226304,-7.620810548,1239.198711
0.6000,154.3538451,-7.657939986,1239.188168
0.6050,154.3845191,-7.695634748,1239.177592
0.6100,154.4157036,-7.73327179,1239.166935
0.6150,154.4466986,-7.77170131,1239.156174
0.6200,154.4782344,-7.811232285,1239.145173
0.6250,154.5095545,-7.85068819,1239.134215
0.6300,154.5402798,-7.889842026,1239.123477
0.6350,154.5706665,-7.928080626,1239.112864
0.6400,154.6019584,-7.965177193,1239.102349
0.6450,154.6324877,-8.001934807,1239.092044
0.6500,154.6635623,-8.038729537,1239.081705
0.6550,154.693446,-8.073735696,1239.07179
0.6600,154.722529,-8.107946901,1239.062141
0.6650,154.7507137,-8.141771892,1239.052658
0.6700,154.7779534,-8.174713356,1239.043535
0.6750,154.8047659,-8.207205586,1239.034592
0.6800,154.8310601,-8.238642191,1239.025936
0.6850,154.8572888,-8.268174507,1239.017625
0.6900,154.8839147,-8.297296846,1239.009345
0.6950,154.9088428,-8.325925264,1239.001433
0.7000,154.9330636,-8.353317724,1238.993829
0.7050,154.9570435,-8.379476266,1238.986527
0.7100,154.9801465,-8.405434407,1238.979546
0.7150,155.0034476,-8.42995748,1238.972872
0.7200,155.0268433,-8.453956897,1238.966325
0.7250,155.04997,-8.477017,1238.960007
0.7300,155.0728211,-8.498820261,1238.954054
0.7350,155.0955071,-8.519377288,1238.948419
0.7400,155.117377,-8.539784292,1238.942996
0.7450,155.1383294,-8.559605045,1238.937906
0.7500,155.1586219,-8.578895816,1238.933022
0.7550,155.1773279,-8.597688187,1238.92847
0.7600,155.1951587,-8.615034505,1238.924324
0.7650,155.2124774,-8.631488511,1238.920444
0.7700,155.2297728,-8.648114606,1238.916608
0.7750,155.2460953,-8.663448631,1238.913095
0.7800,155.2613574,-8.678068168,1238.909898
0.7850,155.2764849,-8.692027243,1238.906883
0.7900,155.2913293,-8.705421507,1238.904032
0.7950,155.3058412,-8.718702266,1238.901273
0.8000,155.3204735,-8.731465747,1238.898561
0.8050,155.3340896,-8.74362164,1238.896158
0.8100,155.3471808,-8.755195559,1238.893925
0.8150,155.3602308,-8.765772597,1238.891843
0.8200,155.3721416,-8.775680723,1238.890089
0.8250,155.3839798,-8.785438231,1238.888428
0.8300,155.394632,-8.794916259,1238.887031
0.8350,155.4046449,-8.804592162,1238.885756
0.8400,155.413086,-8.812964671,1238.884906
0.8450,155.4219497,-8.820965076,1238.884088
0.8500,155.4303096,-8.828522502,1238.883458
0.8550,155.4371571,-8.835615339,1238.883071
0.8600,155.4431438,-8.841582013,1238.882937
0.8650,155.4482335,-8.847600934,1238.882963
0.8700,155.4530585,-8.852111728,1238.883279
0.8750,155.4571203,-8.855974154,1238.883699
0.8800,155.4616197,-8.858847493,1238.884209
0.8850,155.4661631,-8.860639482,1238.8848
0.8900,155.4709723,-8.862248741,1238.885408
0.8950,155.4756568,-8.862692151,1238.88611
0.9000,155.4810496,-8.861949766,1238.886788
0.9050,155.4877548,-8.861612583,1238.88716
0.9100,155.4949065,-8.861087854,1238.887468
0.9150,155.5027941,-8.859969212,1238.887731
0.9200,155.5113234,-8.857340152,1238.888071
0.9250,155.5211267,-8.85464226,1238.888264
0.9300,155.5321602,-8.850983822,1238.888313
0.9350,155.5445166,-8.846788552,1238.888324
0.9400,155.5569843,-8.84214676,1238.888296
0.9450,155.5705294,-8.836567439,1238.888226
0.9500,155.583129,-8.829960723,1238.888416
0.9550,155.5965661,-8.823390717,1238.888531
0.9600,155.61072,-8.816831363,1238.888541
0.9650,155.6250484,-8.808734332,1238.888815
0.9700,155.6398999,-8.800092441,1238.889098
0.9750,155.6541027,-8.791373273,1238.889524
0.9800,155.6675106,-8.782107829,1238.890197
0.9850,155.6810043,-8.773205749,1238.89085
0.9900,155.6929217,-8.763676103,1238.891914
0.9950,155.704317,-8.753522452,1238.893204
1.0000,155.7149154,-8.743668121,1238.894621
1.0050,155.7251507,-8.733750565,1238.896197
1.0100,155.7345806,-8.723253874,1238.897982
1.0150,155.7430344,-8.712612511,1238.900004
1.0200,155.7499699,-8.700983371,1238.902463
1.0250,155.7557907,-8.689441243,1238.905134
1.0300,155.7602903,-8.677950721,1238.908017
1.0350,155.7639123,-8.666148885,1238.911106
1.0400,155.7666887,-8.654000077,1238.914531
1.0450,155.7689306,-8.642434186,1238.918018
1.0500,155.7707617,-8.63051791,1238.921655
1.0550,155.7726677,-8.61814786,1238.925489
1.0600,155.7730814,-8.606329852,1238.92953
1.0650,155.771529,-8.594936459,1238.933906
1.0700,155.7684647,-8.582980158,1238.938662
1.0750,155.7637828,-8.570590097,1238.94379
1.0800,155.7569904,-8.558792398,1238.949118
1.0850,155.7490437,-8.547290621,1238.954636
1.0900,155.738112,-8.535989665,1238.960569
1.0950,155.7261446,-8.524608094,1238.966679
1.1000,155.713142,-8.514201152,1238.97286
1.1050,155.6992163,-8.503854429,1238.979235
1.1100,155.683829,-8.494497783,1238.985601
1.1150,155.6662288,-8.486635893,1238.992076
1.1200,155.6480294,-8.479207752,1238.998508
1.1250,155.6276565,-8.472693777,1239.005059
1.1300,155.6067945,-8.466592998,1239.011563
1.1350,155.5856078,-8.459852733,1239.018157
1.1400,155.5641783,-8.453799873,1239.024681
1.1450,155.5415987,-8.447374593,1239.031346
1.1500,155.5189619,-8.441408874,1239.037991
1.1550,155.4964349,-8.436138802,1239.044542
1.1600,155.4739248,-8.43064344,1239.051081
1.1650,155.4526193,-8.425163311,1239.057434
1.1700,155.4314754,-8.420109898,1239.063661
1.1750,155.4104705,-8.415440961,1239.069818
1.1800,155.3890298,-8.411189754,1239.075878
1.1850,155.367929,-8.407307506,1239.081806
1.1900,155.348106,-8.40294354,1239.087466
1.1950,155.3278459,-8.399947972,1239.092889
1.2000,155.3080491,-8.396931731,1239.098169
1.2050,155.2882565,-8.392931323,1239.10346
1.2100,155.2678926,-8.388372046,1239.108846
1.2150,155.2473337,-8.382816809,1239.114319
1.2200,155.2266709,-8.37780151,1239.11971
1.2250,155.2063427,-8.372881455,1239.124978
1.2300,155.1860228,-8.368580504,1239.130291
1.2350,155.1671668,-8.364472558,1239.135473
1.2400,155.1494756,-8.361041415,1239.140606
1.2450,155.1335902,-8.35861716,1239.145555
1.2500,155.1205844,-8.356800441,1239.150315
1.2550,155.1092106,-8.355544937,1239.155066
1.2600,155.1000696,-8.354823309,1239.159724
1.2650,155.0934389,-8.356092494,1239.163953
1.2700,155.0899246,-8.358456658,1239.167833
1.2750,155.0891955,-8.361457615,1239.171508
1.2800,155.0918191,-8.367212219,1239.174487
1.2850,155.0965475,-8.374289286,1239.177178
1.2900,155.1057242,-8.38239385,1239.179327
1.2950,155.1184078,-8.39202366,1239.180962
1.3000,155.1344699,-8.403178193,1239.182164
1.3050,155.153627,-8.415320282,1239.183042
1.3100,155.1770291,-8.428957217,1239.183331
1.3150,155.2029619,-8.443492021,1239.183371
1.3200,155.2316239,-8.459970413,1239.183044
1.3250,155.2628837,-8.477820781,1239.182523
1.3300,155.2970682,-8.497164275,1239.18183
1.3350,155.3343343,-8.518216145,1239.181025
1.3400,155.3737354,-8.54045868,1239.180292
1.3450,155.415661,-8.564437239,1239.179619
1.3500,155.4602391,-8.590262869,1239.179055
1.3550,155.507733,-8.619033975,1239.17838
1.3600,155.5594628,-8.650432575,1239.177478
1.3650,155.6147593,-8.685354053,1239.176331
1.3700,155.6727902,-8.723815124,1239.175114
1.3750,155.7345203,-8.766968379,1239.173491
1.3800,155.8005518,-8.812960792,1239.171758
1.3850,155.8697377,-8.862845616,1239.169858
1.3900,155.9422283,-8.915692241,1239.168012
1.3950,156.0163391,-8.973382904,1239.166117
1.4000,156.0914886,-9.033359233,1239.164703
1.4050,156.1671108,-9.097458311,1239.163593
1.4100,156.2421908,-9.165040352,1239.163088
1.4150,156.3164179,-9.236309357,1239.163246
1.4200,156.3881637,-9.31122919,1239.164304
1.4250,156.457609,-9.38901803,1239.16638
1.4300,156.5240704,-9.470462236,1239.169549
1.4350,156.5866293,-9.555984217,1239.173868
1.4400,156.6454744,-9.644990967,1239.179396
1.4450,156.700461,-9.738074421,1239.186088
1.4500,156.7508769,-9.834886587,1239.194047
1.4550,156.7976985,-9.936164946,1239.203056
1.4600,156.8407035,-10.04202834,1239.213251
1.4650,156.8794595,-10.15224601,1239.224649
1.4700,156.9159304,-10.26711869,1239.236977
1.4750,156.9498964,-10.38683692,1239.250309
1.4800,156.9826517,-10.51110095,1239.264597
1.4850,157.0140643,-10.64024223,1239.279796
1.4900,157.0448081,-10.77398688,1239.295984
1.4950,157.0771212,-10.91213242,1239.312857
1.5000,157.1105538,-11.05537021,1239.33043
1.5050,157.146112,-11.20417779,1239.348496
1.5100,157.1834954,-11.35976877,1239.366867
1.5150,157.2220445,-11.52161802,1239.38576
1.5200,157.262851,-11.69020038,1239.405005
1.5250,157.3053709,-11.86401608,1239.424792
1.5300,157.3494044,-12.04401443,1239.445046
1.5350,157.3931858,-12.23164252,1239.465793
1.5400,157.4369229,-12.42534628,1239.487183
1.5450,157.4800821,-12.62570476,1239.509189
1.5500,157.5217683,-12.83320813,1239.531867
1.5550,157.5625477,-13.04780951,1239.555079
1.5600,157.6020391,-13.26855546,1239.579136
1.5650,157.6412245,-13.49540251,1239.603863
1.5700,157.6777888,-13.72814824,1239.629483
1.5750,157.7140413,-13.96617498,1239.6558
1.5800,157.7493544,-14.20922829,1239.682899
1.5850,157.7849073,-14.45757243,1239.710594
1.5900,157.8200393,-14.71079209,1239.738967
1.5950,157.855798,-14.96907564,1239.767913
1.6000,157.8915996,-15.23153577,1239.797587
1.6050,157.9279709,-15.49883832,1239.827869
1.6100,157.9643734,-15.77072959,1239.858966
1.6150,158.0018497,-16.04799112,1239.89069
1.6200,158.040608,-16.32952695,1239.923245
1.6250,158.0803407,-16.61586014,1239.956517
1.6300,158.120783,-16.90609873,1239.990676
1.6350,158.1619519,-17.20177967,1240.025628
1.6400,158.2040942,-17.50339679,1240.061293
1.6450,158.2482265,-17.80958545,1240.097789
1.6500,158.2947756,-18.12082505,1240.135127
1.6550,158.3434395,-18.4378114,1240.173402
1.6600,158.394446,-18.76059716,1240.212678
1.6650,158.4484957,-19.08876717,1240.252968
1.6700,158.5070129,-19.42311184,1240.294131
1.6750,158.5701675,-19.76319083,1240.336276
1.6800,158.6377775,-20.11098308,1240.379244
1.6850,158.7098244,-20.46603546,1240.423155
1.6900,158.7872992,-20.82987269,1240.467655
1.6950,158.8720207,-21.20084399,1240.512778
1.7000,158.9624874,-21.581162,1240.558413
1.7050,159.0601291,-21.96957321,1240.604446
1.7100,159.1656822,-22.36617412,1240.650777
1.7150,159.2788374,-22.76954874,1240.697468
1.7200,159.4001401,-23.17991681,1240.74444
1.7250,159.5283196,-23.59675451,1240.791957
1.7300,159.662583,-24.0197344,1240.839989
1.7350,159.8024143,-24.44878606,1240.888593
1.7400,159.9463168,-24.88257214,1240.938158
1.7450,160.0944115,-25.32046218,1240.988613
1.7500,160.245621,-25.76119549,1241.040224
1.7550,160.3976766,-26.20298857,1241.093424
1.7600,160.550828,-26.64653582,1241.147997
1.7650,160.7042636,-27.09043706,1241.2042
1.7700,160.856284,-27.53331766,1241.262232
1.7750,161.007565,-27.97444077,1241.321966
1.7800,161.1565806,-28.41345414,1241.383383
1.7850,161.3039015,-28.84897747,1241.446507
1.7900,161.4484433,-29.28215638,1241.511159
1.7950,161.5892534,-29.71078683,1241.577536
1.8000,161.7261381,-30.13463034,1241.645607
1.8050,161.8580651,-30.55275076,1241.715411
1.8100,161.9856912,-30.96470604,1241.786856
1.8150,162.1091785,-31.37068768,1241.85977
1.8200,162.2265309,-31.76851824,1241.934519
1.8250,162.3377243,-32.16016454,1242.011089
1.8300,162.4427856,-32.54404646,1242.08943
1.8350,162.541578,-32.91926639,1242.169574
1.8400,162.6337424,-33.28701795,1242.251498
1.8450,162.7191767,-33.64663094,1242.335238
1.8500,162.797228,-33.99780876,1242.420847
1.8550,162.8681711,-34.34005786,1242.508303
1.8600,162.9305172,-34.67479793,1242.597568
1.8650,162.9842812,-35.00114777,1242.688721
1.8700,163.0300807,-35.32058767,1242.781665
1.8750,163.0664679,-35.6331938,1242.876357
1.8800,163.0943358,-35.9390171,1242.972754
1.8850,163.1130128,-36.238149,1243.070882
1.8900,163.1223453,-36.53261584,1243.170659
1.8950,163.1225856,-36.82207978,1243.271935
1.9000,163.114153,-37.10661762,1243.374727
1.9050,163.0978694,-37.38683727,1243.478776
1.9100,163.0737165,-37.663101,1243.584039
1.9150,163.0424221,-37.93487556,1243.690498
1.9200,163.0056919,-38.20289918,1243.797838
1.9250,162.9638886,-38.46701322,1243.906095
1.9300,162.9186072,-38.72843775,1244.015017
1.9350,162.8704537,-38.98530212,1244.124545
1.9400,162.8200166,-39.23719485,1244.234772
1.9450,162.7669247,-39.48412891,1244.34571
1.9500,162.7111909,-39.72609379,1244.457291
1.9550,162.654283,-39.96192482,1244.569366
1.9600,162.5958921,-40.19250926,1244.6819
1.9650,162.5367409,-40.41749196,1244.794785
1.9700,162.4764474,-40.63711402,1244.907967
1.9750,162.4147043,-40.85150739,1245.021437
1.9800,162.3528149,-41.05888515,1245.135081
1.9850,162.2910371,-41.26026633,1245.248811
1.9900,162.2292006,-41.45484475,1245.362622
1.9950,162.1667116,-41.64327713,1245.476549
2.0000,162.1048183,-41.82432333,1245.590436
2.0050,162.0429593,-41.99867411,1245.704279
2.0100,161.9829766,-42.16566348,1245.81779
2.0150,161.9254009,-42.32548248,1245.930965
2.0200,161.8706131,-42.47808832,1246.043733
2.0250,161.8200398,-42.62366419,1246.155784
2.0300,161.7752004,-42.76090062,1246.267078
2.0350,161.7360996,-42.88917478,1246.37761
2.0400,161.7041044,-43.00807969,1246.487203
2.0450,161.6789258,-43.11721874,1246.595953
2.0500,161.6618332,-43.21682117,1246.70361
2.0550,161.6549493,-43.3063517,1246.809936
2.0600,161.6575064,-43.38494724,1246.915052
2.0650,161.6691871,-43.4521916,1247.018957
2.0700,161.6903894,-43.50865652,1247.121648
2.0750,161.7222307,-43.55342162,1247.223043
2.0800,161.7639124,-43.58622427,1247.323238
2.0850,161.8151563,-43.60700928,1247.422316
2.0900,161.8747247,-43.61481088,1247.520589
2.0950,161.9425474,-43.61027263,1247.618052
2.1000,162.0189966,-43.59372516,1247.714678
2.1050,162.1024462,-43.56554028,1247.810745
2.1100,162.1926349,-43.52572277,1247.906267
2.1150,162.2877601,-43.47532102,1248.001453
2.1200,162.3886892,-43.4144005,1248.096179
2.1250,162.4944716,-43.34334672,1248.190441
2.1300,162.6047834,-43.26327656,1248.284239
2.1350,162.7194831,-43.17455021,1248.377559
2.1400,162.8374018,-43.07693239,1248.470621
2.1450,162.9572332,-42.97113207,1248.56352
2.1500,163.0794926,-42.85776974,1248.65621
2.1550,163.2043105,-42.73725916,1248.74877
2.1600,163.3327956,-42.60994401,1248.841066
2.1650,163.4637004,-42.4757233,1248.933378
2.1700,163.5975291,-42.33353136,1249.025737
2.1750,163.7355849,-42.18422268,1249.117977
2.1800,163.8768338,-42.02726284,1249.210343
2.1850,164.0224801,-41.86361228,1249.30258
2.1900,164.1719088,-41.69284746,1249.394733
2.1950,164.3252217,-41.51500837,1249.486886
2.2000,164.481977,-41.33056946,1249.579023
2.2050,164.6415361,-41.13954748,1249.671288
2.2100,164.804961,-40.94199463,1249.763555
2.2150,164.9700525,-40.73802867,1249.85593
2.2200,165.1367115,-40.5267678,1249.948537
2.2250,165.3042537,-40.30934145,1250.041295
2.2300,165.4720428,-40.08529112,1250.134322
2.2350,165.638651,-39.85631262,1250.227697
2.2400,165.8055059,-39.62233742,1250.321155
2.2450,165.9704857,-39.38408336,1250.414939
2.2500,166.1337206,-39.14259773,1250.509029
2.2550,166.2941865,-38.8980437,1250.603485
2.2600,166.4515593,-38.6500542,1250.698515
2.2650,166.6068985,-38.39977847,1250.793844
2.2700,166.7596054,-38.14596143,1250.889716
2.2750,166.9101144,-37.88888464,1250.985955
2.2800,167.0583957,-37.62873787,1251.082577
2.2850,167.2043175,-37.36639636,1251.179422
2.2900,167.3482525,-37.10150049,1251.276444
2.2950,167.4900021,-36.83431159,1251.373552
2.3000,167.630263,-36.56636543,1251.470554
2.3050,167.7682441,-36.29692368,1251.567548
2.3100,167.9030252,-36.02650434,1251.664747
2.3150,168.0347087,-35.75484464,1251.761939
2.3200,168.1630016,-35.48192088,1251.859217
2.3250,168.2876482,-35.20745011,1251.956566
2.3300,168.4065375,-34.93214393,1252.054061
2.3350,168.5207134,-34.65536985,1252.151628
2.3400,168.6298458,-34.37761375,1252.249131
2.3450,168.7343792,-34.09770264,1252.346602
2.3500,168.8342281,-33.81579152,1252.444056
2.3550,168.9279535,-33.53125692,1252.54165
2.3600,169.0149809,-33.24382987,1252.639479
2.3650,169.0953308,-32.95358621,1252.737545
2.3700,169.1697859,-32.66018666,1252.835556
2.3750,169.2361734,-32.36433965,1252.933876
2.3800,169.2943313,-32.06561411,1253.032599
2.3850,169.3448278,-31.76360763,1253.131602
2.3900,169.3874763,-31.45886993,1253.230848
2.3950,169.4233423,-31.14958997,1253.330441
2.4000,169.4516156,-30.83640259,1253.430352
2.4050,169.4743193,-30.51841274,1253.530407
2.4100,169.4912895,-30.19487764,1253.63073
2.4150,169.5046502,-29.86627436,1253.731029
2.4200,169.5133181,-29.53242333,1253.831472
2.4250,169.5169218,-29.19318695,1253.932227
2.4300,169.517105,-28.84818834,1254.0331
2.4350,169.5125449,-28.49826512,1254.134324
2.4400,169.5046047,-28.14221096,1254.235664
2.4450,169.4942842,-27.7806076,1254.337013
2.4500,169.482696,-27.41264013,1254.438247
2.4550,169.4685298,-27.03907548,1254.539469
2.4600,169.4514383,-26.6587216,1254.640964
2.4650,169.4321698,-26.27285502,1254.742471
2.4700,169.4097012,-25.88094969,1254.844281
2.4750,169.383317,-25.48400866,1254.946572
2.4800,169.3518659,-25.08278245,1255.049429
2.4850,169.3156501,-24.67690531,1255.153034
2.4900,169.2747544,-24.26624426,1255.257448
2.4950,169.2282851,-23.8514135,1255.362801
2.5000,169.175411,-23.43259753,1255.469254
2.5050,169.1159737,-23.00984922,1255.576907
2.5100,169.0486237,-22.58351299,1255.68591
2.5150,168.9744894,-22.15456228,1255.796094
2.5200,168.8925117,-21.72451561,1255.90746
2.5250,168.8038444,-21.29186204,1256.020127
2.5300,168.7076021,-20.85859508,1256.133993
2.5350,168.6053037,-20.42390145,1256.248982
2.5400,168.4957608,-19.98886326,1256.365122
2.5450,168.3798282,-19.55476049,1256.482156
2.5500,168.2563269,-19.12115758,1256.600218
2.5550,168.1253863,-18.68903257,1256.719078
2.5600,167.9871738,-18.2591568,1256.838581
2.5650,167.8407069,-17.83193211,1256.958802
2.5700,167.6869748,-17.40990639,1257.079199
2.5750,167.5245545,-16.99340386,1257.200058
2.5800,167.3530842,-16.58343499,1257.321272
2.5850,167.1728884,-16.17850496,1257.443067
2.5900,166.9829223,-15.77861203,1257.565734
2.5950,166.7825898,-15.38364487,1257.689421
2.6000,166.5720124,-14.99235853,1257.81442
2.6050,166.3522516,-14.60515058,1257.940591
2.6100,166.1245503,-14.22075369,1258.067721
2.6150,165.8879274,-13.83776479,1258.196273
2.6200,165.6444755,-13.45647681,1258.325812
2.6250,165.3953707,-13.07652027,1258.456303
2.6300,165.1404219,-12.69771907,1258.587879
2.6350,164.8808081,-12.31992115,1258.720294
2.6400,164.6169403,-11.94340456,1258.853477
2.6450,164.348519,-11.56792471,1258.987465
2.6500,164.0764624,-11.19304256,1259.122155
2.6550,163.8015517,-10.81909679,1259.2573
2.6600,163.5255947,-10.44633763,1259.392456
2.6650,163.2499447,-10.07516001,1259.527297
2.6700,162.9745397,-9.706222147,1259.661779
2.6750,162.6991956,-9.339266507,1259.795914
2.6800,162.4244005,-8.974140268,1259.929734
2.6850,162.1503922,-8.612139608,1260.062912
2.6900,161.8782447,-8.251498871,1260.195368
2.6950,161.6082372,-7.893149719,1260.326801
2.7000,161.3411787,-7.536994087,1260.456999
2.7050,161.0774496,-7.183695497,1260.585776
2.7100,160.8178044,-6.833786964,1260.713033
2.7150,160.5612256,-6.487592084,1260.838885
2.7200,160.3067414,-6.145982142,1260.963522
2.7250,160.0540593,-5.808145669,1261.087099
2.7300,159.8008966,-5.474170224,1261.21018
2.7350,159.5490641,-5.14211111,1261.332503
2.7400,159.2985216,-4.81310394,1261.454079
2.7450,159.0498847,-4.485838005,1261.57495
2.7500,158.8024205,-4.16117791,1261.695104
2.7550,158.5564242,-3.837464017,1261.814755
2.7600,158.3123228,-3.515262931,1261.933695
2.7650,158.0711406,-3.19465813,1262.051631
2.7700,157.8327194,-2.876918939,1262.1683
2.7750,157.5965129,-2.560899836,1262.283974
2.7800,157.3632398,-2.247234215,1262.398357
2.7850,157.1311841,-1.936326345,1262.511721
2.7900,156.8993589,-1.628274256,1262.624293
2.7950,156.6682146,-1.322927546,1262.735982
2.8000,156.4376274,-1.020427902,1262.846956
2.8050,156.2064619,-0.721256547,1262.957344
2.8100,155.9752941,-0.4247708271,1263.067209
2.8150,155.7434972,-0.1305784085,1263.176787
2.8200,155.5108265,0.1614272974,1263.286152
2.8250,155.2763864,0.4503529743,1263.395344
2.8300,155.0401193,0.7386829474,1263.504838
2.8350,154.800453,1.025385692,1263.61483
2.8400,154.5572944,1.311035606,1263.725519
2.8450,154.3112466,1.597506597,1263.837176
2.8500,154.0628278,1.884597271,1263.949649
2.8550,153.8120241,2.173941323,1264.063369
2.8600,153.5588138,2.465680898,1264.17829
2.8650,153.3036594,2.760856813,1264.294533
2.8700,153.0452635,3.060326959,1264.412557
2.8750,152.7852856,3.363762744,1264.531873
2.8800,152.5228766,3.669600072,1264.652387
2.8850,152.2581072,3.977035641,1264.774059
2.8900,151.9918652,4.285333324,1264.896454
2.8950,151.7242973,4.595179376,1265.019705
2.9000,151.4549578,4.906020605,1265.143639
2.9050,151.1840036,5.218370981,1265.26832
2.9100,150.9104121,5.530539612,1265.393793
2.9150,150.634812,5.841305473,1265.519618
2.9200,150.3568329,6.152779917,1265.646361
2.9250,150.0763245,6.464136416,1265.773882
2.9300,149.7950314,6.775986335,1265.901951
2.9350,149.5109377,7.086607054,1266.030821
2.9400,149.2235419,7.398170151,1266.16108
2.9450,148.9333669,7.709678308,1266.292372
2.9500,148.6405725,8.021530143,1266.424662
2.9550,148.3458003,8.33334294,1266.557774
2.9600,148.049917,8.644670302,1266.691261
2.9650,147.7507082,8.956015865,1266.825721
2.9700,147.4488051,9.267668508,1266.961124
2.9750,147.145856,9.578910751,1267.096817
2.9800,146.8418611,9.889252904,1267.232557
2.9850,146.5373915,10.19967033,1267.368402
2.9900,146.2316905,10.50986935,1267.504612
2.9950,145.925292,10.81814994,1267.640767
3.0000,145.6163739,11.12518719,1267.777653
3.0050,145.3044526,11.42938225,1267.915031
3.0100,144.9884477,11.73209361,1268.053453
3.0150,144.6675415,12.03384834,1268.193297
3.0200,144.342363,12.3335111,1268.334099
3.0250,144.0131969,12.63105763,1268.475827
3.0300,143.6794343,12.92723795,1268.61868
3.0350,143.3416014,13.22169099,1268.7626
3.0400,143.0003065,13.51463791,1268.907487
3.0450,142.6564263,13.80698499,1269.053146
3.0500,142.3108317,14.09932237,1269.199401
3.0550,141.9643137,14.39091587,1269.345875
3.0600,141.6172389,14.68114196,1269.492246
3.0650,141.2678423,14.96997244,1269.639184
3.0700,140.9170414,15.25746224,1269.786481
3.0750,140.5634564,15.54232199,1269.934303
3.0800,140.2066966,15.82609139,1270.083211
3.0850,139.8470389,16.10735561,1270.232836
3.0900,139.4850814,16.38589312,1270.382976
3.0950,139.1190463,16.66222423,1270.534371
3.1000,138.7494851,16.9357294,1270.68666
3.1050,138.3751845,17.20558001,1270.84018
3.1100,137.9956763,17.47112197,1270.995044
3.1150,137.6107377,17.73277732,1271.151486
3.1200,137.2214544,17.99232695,1271.309666
3.1250,136.8264878,18.25050084,1271.470356
3.1300,136.4266054,18.50723813,1271.633432
3.1350,136.0212308,18.76449882,1271.799611
3.1400,135.6108844,19.02297461,1271.968959
3.1450,135.1949571,19.28246655,1272.141758
3.1500,134.7732413,19.54318995,1272.318202
3.1550,134.3451308,19.80439979,1272.498406
3.1600,133.9119631,20.06723144,1272.682143
3.1650,133.4723041,20.33145626,1272.869882
3.1700,133.0272176,20.59708706,1273.061257
3.1750,132.5785703,20.86377765,1273.255497
3.1800,132.1276179,21.13425585,1273.452717
3.1850,131.676119,21.40826372,1273.651944
3.1900,131.2252172,21.68503158,1273.852709
3.1950,130.7767658,21.96291829,1274.05375
3.2000,130.331047,22.24150385,1274.255041
3.2050,129.8885793,22.52045428,1274.456207
3.2100,129.4493819,22.79986893,1274.657263
3.2150,129.0144653,23.07828373,1274.857479
3.2200,128.5821727,23.35397053,1275.056982
3.2250,128.1519111,23.62680808,1275.255902
3.2300,127.7246956,23.89611815,1275.453542
3.2350,127.300732,24.16245504,1275.649952
3.2400,126.8808277,24.42345033,1275.844276
3.2450,126.4640518,24.67974606,1276.036983
3.2500,126.0501822,24.93035733,1276.228004
3.2550,125.6385322,25.17578663,1276.417685
3.2600,125.2277,25.41754729,1276.607118
3.2650,124.8198205,25.65608225,1276.795612
3.2700,124.4145744,25.89119148,1276.983213
3.2750,124.0102365,26.12438609,1277.171013
3.2800,123.6077304,26.35666506,1277.359001
3.2850,123.2058042,26.58814856,1277.547768
3.2900,122.804825,26.81941146,1277.737422
3.2950,122.4033904,27.05198486,1277.928857
3.3000,122.0019123,27.28643046,1278.122064
3.3050,121.6006958,27.52406615,1278.317191
3.3100,121.201098,27.76416208,1278.513398
3.3150,120.8040985,28.00724452,1278.710489
3.3200,120.4115464,28.2540147,1278.907919
3.3250,120.0244661,28.50463932,1279.10538
3.3300,119.6442558,28.75825709,1279.302075
3.3350,119.2704545,29.01487211,1279.498106
3.3400,118.9015082,29.27327703,1279.693646
3.3450,118.5359068,29.53272748,1279.889254
3.3500,118.172784,29.79287761,1280.08525
3.3550,117.8112302,30.05454433,1280.282208
3.3600,117.4517312,30.31799467,1280.480031
3.3650,117.0930691,30.58371633,1280.679211
3.3700,116.7348074,30.8527882,1280.880339
3.3750,116.3778036,31.12488154,1281.082904
3.3800,116.0212636,31.3997966,1281.28714
3.3850,115.6639142,31.67833983,1281.493764
3.3900,115.3053665,31.9598762,1281.70269
3.3950,114.9452934,32.2438646,1281.913974
3.4000,114.5815053,32.53028603,1282.128583
3.4050,114.2138624,32.81975901,1282.346748
3.4100,113.8416124,33.11236977,1282.568685
3.4150,113.4644373,33.40866185,1282.794793
3.4200,113.0795648,33.70641368,1283.025645
3.4250,112.6886101,34.00675998,1283.26086
3.4300,112.2904016,34.30874806,1283.500556
3.4350,111.8855847,34.61157666,1283.744241
3.4400,111.4740379,34.91440161,1283.99171
3.4450,111.0561182,35.21605628,1284.242327
3.4500,110.6326559,35.51658971,1284.495708
3.4550,110.204558,35.81506298,1284.751199
3.4600,109.771418,36.11027098,1285.008582
3.4650,109.3346793,36.40123101,1285.266853
3.4700,108.8942728,36.68677391,1285.525633
3.4750,108.4493875,36.96687854,1285.785265
3.4800,108.0008986,37.23924352,1286.044712
3.4850,107.5476601,37.50336318,1286.30447
3.4900,107.0897261,37.75872644,1286.564262
3.4950,106.626175,38.0058806,1286.824839
3.5000,106.1586821,38.24479237,1287.085288
3.5050,105.6863954,38.47450389,1287.345699
3.5100,105.2106486,38.69457934,1287.605368
3.5150,104.7316579,38.90550719,1287.864406
3.5200,104.2489444,39.10703461,1288.12294
3.5250,103.7631952,39.29884898,1288.380591
3.5300,103.2726153,39.48091281,1288.638267
3.5350,102.7796264,39.654046,1288.89515
3.5400,102.2834496,39.81873781,1289.15177
3.5450,101.7852677,39.97453635,1289.407565
3.5500,101.2847958,40.12248413,1289.662967
3.5550,100.7830957,40.26260169,1289.917538
3.5600,100.280885,40.39572866,1290.171317
3.5650,99.77820739,40.5218515,1290.42439
3.5700,99.27560713,40.64299254,1290.677034
3.5750,98.77420486,40.75930693,1290.928849
3.5800,98.27504038,40.87093023,1291.179325
3.5850,97.77887979,40.97860024,1291.428348
3.5900,97.28688098,41.08203104,1291.675173
3.5950,96.79943315,41.18163814,1291.919704
3.6000,96.31896318,41.27783099,1292.160932
3.6050,95.8452902,41.37058096,1292.398962
3.6100,95.37823357,41.46081361,1292.634315
3.6150,94.91921687,41.54939757,1292.866502
3.6200,94.4680948,41.63756938,1293.095962
3.6250,94.02507532,41.72480401,1293.322378
3.6300,93.59034219,41.8121239,1293.546157
3.6350,93.16385365,41.89983074,1293.767426
3.6400,92.74675585,41.98975098,1293.986109
3.6450,92.33984535,42.08210703,1294.201872
3.6500,91.94294321,42.17802624,1294.415139
3.6550,91.55645314,42.27666414,1294.625404
3.6600,91.1786694,42.37865146,1294.833681
3.6650,90.81080779,42.48329381,1295.039166
3.6700,90.45255494,42.59040423,1295.241773
3.6750,90.10304391,42.70137523,1295.442492
3.6800,89.76229815,42.81472878,1295.640692
3.6850,89.43072415,42.93148677,1295.836552
3.6900,89.10703168,43.05145505,1296.030708
3.6950,88.79117917,43.17549879,1296.223343
3.7000,88.48344362,43.3033527,1296.414061
3.7050,88.18336262,43.4348377,1296.602949
3.7100,87.89036722,43.57082772,1296.790653
3.7150,87.60356484,43.71060151,1296.977303
3.7200,87.32303477,43.85584036,1297.16331
3.7250,87.0482588,44.00483046,1297.348333
3.7300,86.7792095,44.15808615,1297.532504
3.7350,86.516025,44.31515808,1297.715546
3.7400,86.25811665,44.47644042,1297.897879
3.7450,86.00511593,44.64220361,1298.079782
3.7500,85.75733799,44.81166493,1298.260707
3.7550,85.51382032,44.98395844,1298.440865
3.7600,85.27411759,45.15919655,1298.620604
3.7650,85.03787962,45.33587407,1298.799492
3.7700,84.80563295,45.5145849,1298.977488
3.7750,84.57587454,45.69439134,1299.155045
3.7800,84.34732996,45.87444845,1299.332483
3.7850,84.12144309,46.0537639,1299.508701
3.7900,83.89615465,46.23257001,1299.684757
3.7950,83.67206203,46.40993499,1299.859932
3.8000,83.44873759,46.58519912,1300.034206
3.8050,83.226709,46.75782248,1300.207108
3.8100,83.00469504,46.92591534,1300.378594
3.8150,82.782636,47.08904235,1300.548588
3.8200,82.56214004,47.24706167,1300.716043
3.8250,82.3413453,47.39967857,1300.88195
3.8300,82.121257,47.54613468,1301.045544
3.8350,81.90000275,47.68536756,1301.207453
3.8400,81.6783236,47.81719343,1301.367066
3.8450,81.45529314,47.94214736,1301.525209
3.8500,81.23118296,48.05875937,1301.6811
3.8550,81.00569728,48.16813784,1301.835299
3.8600,80.77902684,48.2686801,1301.986934
3.8650,80.55057666,48.36047099,1302.136429
3.8700,80.32045041,48.44270997,1302.283448
3.8750,80.0892402,48.51642507,1302.427881
3.8800,79.85625496,48.58050253,1302.56978
3.8850,79.62215504,48.63544209,1302.709101
3.8900,79.386858,48.68194439,1302.846119
3.8950,79.1511944,48.71994044,1302.980305
3.9000,78.91367829,48.74945781,1303.112651
3.9050,78.67564004,48.7717036,1303.242801
3.9100,78.4369442,48.78547978,1303.370462
3.9150,78.19715979,48.79119438,1303.495999
3.9200,77.95584854,48.78869779,1303.619677
3.9250,77.7136059,48.77916643,1303.741549
3.9300,77.47143093,48.76263776,1303.861025
3.9350,77.23007174,48.73976292,1303.977924
3.9400,76.99077679,48.71066704,1304.091583
3.9450,76.7526875,48.67633324,1304.202855
3.9500,76.51783662,48.63668993,1304.310546
3.9550,76.28572039,48.59277931,1304.415392
3.9600,76.0581766,48.5447205,1304.516466
3.9650,75.83442343,48.49373992,1304.614649
3.9700,75.61541497,48.4395493,1304.70929
3.9750,75.40213415,48.38197973,1304.799731
3.9800,75.19419851,48.32262433,1304.886951
3.9850,74.99188346,48.26054543,1304.970311
3.9900,74.79569266,48.19685776,1305.049907
3.9950,74.60580196,48.1309966,1305.125508
4.0000,74.42225146,48.0642777,1305.197529
4.0050,74.24634043,47.99763248,1305.26546
4.0100,74.07786698,47.93129288,1305.32966
4.0150,73.91706029,47.86477063,1305.389713
4.0200,73.76493182,47.79891688,1305.445376
4.0250,73.62079882,47.73416974,1305.497087
4.0300,73.48451141,47.6702828,1305.544954
4.0350,73.35574422,47.60885451,1305.589824
4.0400,73.23484985,47.54879667,1305.630957
4.0450,73.12216131,47.48958245,1305.667954
4.0500,73.0171966,47.43172959,1305.701475
4.0550,72.92028464,47.37615587,1305.731471
4.0600,72.83080021,47.32158968,1305.757963
4.0650,72.74883916,47.2690177,1305.781266
4.0700,72.6738458,47.21777457,1305.801468
4.0750,72.60566662,47.16749443,1305.818562
4.0800,72.5447572,47.11916816,1305.832729
4.0850,72.48959061,47.07260556,1305.844686
4.0900,72.44151507,47.02701147,1305.853346
4.0950,72.40046182,46.98282242,1305.858984
4.1000,72.36537431,46.93927205,1305.861984
4.1050,72.3369895,46.8961653,1305.861818
4.1100,72.31457761,46.85425933,1305.859351
4.1150,72.29711248,46.81298338,1305.85483
4.1200,72.28366933,46.77105227,1305.848485
4.1250,72.27595743,46.72807908,1305.839039
4.1300,72.27301186,46.68429334,1305.827054
4.1350,72.2754345,46.6387158,1305.8118
4.1400,72.28301759,46.59175312,1305.793664
4.1450,72.29634673,46.54271733,1305.771942
4.1500,72.31634941,46.492241,1305.74634
4.1550,72.3434211,46.43912008,1305.716199
4.1600,72.37793311,46.38390833,1305.6816
4.1650,72.4207349,46.32728006,1305.642159
4.1700,72.47127476,46.268751,1305.598182
4.1750,72.53060227,46.20690619,1305.548466
4.1800,72.59937567,46.14389512,1305.493508
4.1850,72.67820596,46.07872272,1305.432442
4.1900,72.76748562,46.01030727,1305.364714
4.1950,72.8665459,45.93895084,1305.290964
4.2000,72.97606055,45.86435468,1305.210483
4.2050,73.09648749,45.78625713,1305.122936
4.2100,73.22771625,45.70501433,1305.028562
4.2150,73.37142297,45.62008439,1304.926126
4.2200,73.52787042,45.53209648,1304.815662
4.2250,73.6964735,45.43946233,1304.697023
4.2300,73.87737355,45.34264849,1304.57026
4.2350,74.07067386,45.24135033,1304.435266
4.2400,74.27550063,45.13514563,1304.292393
4.2450,74.49234379,45.02294843,1304.140899
4.2500,74.72086758,44.90545471,1303.981403
4.2550,74.96089,44.78161844,1303.813585
4.2600,75.21078273,44.65181543,1303.63855
4.2650,75.47206425,44.51590581,1303.455335
4.2700,75.7436421,44.37359243,1303.264564
4.2750,76.02523265,44.22609607,1303.066938
4.2800,76.31725359,44.07305499,1302.862053
4.2850,76.619181,43.91554117,1302.650592
4.2900,76.9307107,43.75377565,1302.433
4.2950,77.25204649,43.58848346,1302.209412
4.3000,77.58296548,43.41900661,1301.979737
4.3050,77.92175647,43.24618663,1301.745387
4.3100,78.26800086,43.06881251,1301.506081
4.3150,78.62153915,42.88886099,1301.262617
4.3200,78.98052604,42.70448042,1301.015426
4.3250,79.34505236,42.51717083,1300.765171
4.3300,79.7132982,42.32684437,1300.512806
4.3350,80.0853675,42.13311473,1300.258013
4.3400,80.45923309,41.93702133,1300.002431
4.3450,80.83424399,41.73917822,1299.746616
4.3500,81.21082255,41.53995291,1299.490436
4.3550,81.58870689,41.33959578,1299.234185
4.3600,81.96712026,41.13762937,1298.978095
4.3650,82.3446778,40.9339733,1298.72297
4.3700,82.72062331,40.72994189,1298.469613
4.3750,83.0951407,40.52503573,1298.217695
4.3800,83.46682795,40.31919687,1297.967847
4.3850,83.83583508,40.11274498,1297.720166
4.3900,84.20037509,39.90649072,1297.475898
4.3950,84.55960108,39.69998923,1297.235284
4.4000,84.91237375,39.49418989,1296.999282
4.4050,85.25764535,39.28838847,1296.768145
4.4100,85.59578102,39.08375468,1296.541844
4.4150,85.92576781,38.88077668,1296.321212
4.4200,86.24802243,38.67986624,1296.105999
4.4250,86.5619987,38.4811506,1295.896632
4.4300,86.86653283,38.28395907,1295.693352
4.4350,87.161152,38.08928057,1295.496657
4.4400,87.44512053,37.89624942,1295.306599
4.4450,87.71830476,37.70428097,1295.122886
4.4500,87.97952445,37.51376431,1294.946326
4.4550,88.22825341,37.32320957,1294.77661
4.4600,88.46450463,37.13361534,1294.61393
4.4650,88.6881786,36.94331564,1294.457727
4.4700,88.90046641,36.75278658,1294.307489
4.4750,89.10219223,36.56301181,1294.16314
4.4800,89.29314859,36.37249398,1294.024313
4.4850,89.47327432,36.18143105,1293.891141
4.4900,89.64416505,35.99007094,1293.762793
4.4950,89.80790615,35.7988536,1293.638397
4.5000,89.96543815,35.60781699,1293.517429
4.5050,90.11723537,35.41690336,1293.399676
4.5100,90.26501069,35.22628709,1293.284257
4.5150,90.40809512,35.03591962,1293.171545
4.5200,90.5473557,34.84469329,1293.060726
4.5250,90.68274819,34.65388304,1292.952241
4.5300,90.8159455,34.46317824,1292.845042
4.5350,90.94568955,34.2726782,1292.739794
4.5400,91.07415426,34.08238692,1292.635419
4.5450,91.20204729,33.89243335,1292.531589
4.5500,91.32843207,33.70242077,1292.428487
4.5550,91.45539789,33.51306627,1292.325316
4.5600,91.5835246,33.32472075,1292.221931
4.5650,91.71284797,33.13635883,1292.117891
4.5700,91.84350809,32.94904738,1292.01358
4.5750,91.97566504,32.76121497,1291.908388
4.5800,92.10936367,32.5729184,1291.802304
4.5850,92.24419001,32.38297252,1291.695288
4.5900,92.38056401,32.19145498,1291.587012
4.5950,92.51815374,31.99787448,1291.47755
4.6000,92.6566392,31.80284589,1291.367257
4.6050,92.7973594,31.60440871,1291.254888
4.6100,92.940207,31.40388091,1291.140836
4.6150,93.08623593,31.20102122,1291.024627
4.6200,93.23549567,30.99596293,1290.90629
4.6250,93.38812596,30.78865146,1290.785725
4.6300,93.54614723,30.58004329,1290.662345
4.6350,93.70865005,30.37026881,1290.536797
4.6400,93.87659009,30.15869347,1290.408396
4.6450,94.05085133,29.94608951,1290.277095
4.6500,94.22926238,29.73187979,1290.143739
4.6550,94.41197351,29.5159602,1290.008226
4.6600,94.59824059,29.29860099,1289.870957
4.6650,94.78948534,29.0808586,1289.731447
4.6700,94.98458641,28.86131605,1289.589831
4.6750,95.18320354,28.63987143,1289.446227
4.6800,95.38534575,28.41625748,1289.300588
4.6850,95.5899053,28.19080765,1289.15345
4.6900,95.79779203,27.96316724,1289.004393
4.6950,96.00780955,27.73298032,1288.853906
4.7000,96.22045141,27.50001933,1288.701697
4.7050,96.43483556,27.26543204,1288.548538
4.7100,96.65084922,27.02903705,1288.39449
4.7150,96.86951078,26.79094831,1288.239107
4.7200,97.0903323,26.55165899,1288.082843
4.7250,97.31219978,26.3111128,1287.926087
4.7300,97.53638176,26.06903461,1287.768293
4.7350,97.76262169,25.82574873,1287.609663
4.7400,97.9916428,25.58084018,1287.449692
4.7450,98.22272019,25.3336114,1287.288702
4.7500,98.4561082,25.08377398,1287.126227
4.7550,98.6904144,24.83203104,1286.96324
4.7600,98.92600229,24.57674331,1286.799047
4.7650,99.16254881,24.31893055,1286.634174
4.7700,99.39940899,24.05784436,1286.468634
4.7750,99.63679488,23.7942586,1286.302582
4.7800,99.87602715,23.52835414,1286.135415
4.7850,100.1173176,23.26114869,1285.967339
4.7900,100.3611701,22.99253004,1285.798239
4.7950,100.6066235,22.72220112,1285.628368
4.8000,100.8546189,22.45044819,1285.457504
4.8050,101.104406,22.1770197,1285.285961
4.8100,101.3551609,21.90233116,1285.11423
4.8150,101.6076458,21.62711938,1284.942128
4.8200,101.8613061,21.35157143,1284.769977
4.8250,102.1180375,21.07629314,1284.597023
4.8300,102.376841,20.801969,1284.423955
4.8350,102.6396285,20.52881093,1284.249882
4.8400,102.9054017,20.25783033,1284.075616
4.8450,103.1744757,19.98960818,1283.901213
4.8500,103.4473982,19.72289329,1283.726116
4.8550,103.723299,19.45843228,1283.550973
4.8600,104.0028033,19.19538347,1283.37528
4.8650,104.2852826,18.93524708,1283.199809
4.8700,104.5703,18.67743724,1283.024531
4.8750,104.8577537,18.42247919,1282.849596
4.8800,105.1481662,18.17105826,1282.674927
4.8850,105.4419139,17.92270505,1282.500199
4.8900,105.7385737,17.67732977,1282.325591
4.8950,106.0380602,17.43442016,1282.150885
4.9000,106.3407496,17.19377243,1281.975987
4.9050,106.6450356,16.95526603,1281.801551
4.9100,106.9517674,16.7193088,1281.627384
4.9150,107.2588632,16.48491511,1281.454115
4.9200,107.5671093,16.25261323,1281.281595
4.9250,107.8756908,16.02256054,1281.110216
4.9300,108.1844541,15.79371962,1280.939794
4.9350,108.493209,15.56566864,1280.770189
4.9400,108.8023965,15.33946626,1280.601491
4.9450,109.1104144,15.11424237,1280.434164
4.9500,109.4184035,14.89015791,1280.267725
4.9550,109.7250097,14.66618675,1280.102493
4.9600,110.0311654,14.44256541,1279.938128
4.9650,110.3356577,14.21879477,1279.775103
4.9700,110.6390638,13.99410345,1279.612893
4.9750,110.9411433,13.76896309,1279.451742
4.9800,111.2416207,13.54297469,1279.291619
4.9850,111.5400994,13.31563928,1279.132446
4.9900,111.8362435,13.08734609,1278.974455
4.9950,112.1310452,12.8571072,1278.816953
5.0000,112.4242795,12.62567435,1278.660164
5.0050,112.7161172,12.39240485,1278.503851
5.0100,113.0061591,12.15674191,1278.348027
5.0150,113.2938907,11.91838953,1278.192784
5.0200,113.5792443,11.67765777,1278.038154
5.0250,113.8626209,11.43472333,1277.884006
5.0300,114.14419,11.18926935,1277.730055
5.0350,114.4238807,10.94121281,1277.576456
5.0400,114.700637,10.69071296,1277.423669
5.0450,114.9747867,10.4390077,1277.271727
5.0500,115.2464338,10.18606798,1277.120727
5.0550,115.5167928,9.932345472,1276.970268
5.0600,115.7861881,9.679349163,1276.820691
5.0650,116.0569829,9.427179828,1276.67115
5.0700,116.3293271,9.176797653,1276.521842
5.0750,116.6037252,8.92774277,1276.372492
5.0800,116.8798686,8.680512091,1276.223309
5.0850,117.1585656,8.4352812,1276.074003
5.0900,117.4405039,8.191766811,1275.924169
5.0950,117.7258081,7.95037293,1275.773917
5.1000,118.0140912,7.710414533,1275.623147
5.1050,118.3062959,7.471474193,1275.471423
5.1100,118.6027587,7.233604952,1275.318666
5.1150,118.90306,6.995632602,1275.16476
5.1200,119.2078044,6.757959781,1275.009559
5.1250,119.5161672,6.51983119,1274.853205
5.1300,119.8281163,6.280852433,1274.695666
5.1350,120.1431524,6.04143306,1274.537312
5.1400,120.461254,5.800755146,1274.377828
5.1450,120.7834453,5.559524307,1274.217046
5.1500,121.1096637,5.318923507,1274.055246
5.1550,121.4396415,5.078582338,1273.892391
5.1600,121.7720967,4.839150872,1273.729047
5.1650,122.1070289,4.598788679,1273.564807
5.1700,122.4443052,4.35746435,1273.399722
5.1750,122.784486,4.114372526,1273.233452
5.1800,123.1265293,3.868459797,1273.066144
5.1850,123.4707038,3.620141756,1272.897736
5.1900,123.8153688,3.368391017,1272.728673
5.1950,124.1601363,3.112690988,1272.559021
5.2000,124.5036773,2.852946933,1272.389187
5.2050,124.847348,2.590437211,1272.218911
5.2100,125.1896011,2.324566971,1272.04865
5.2150,125.5319512,2.054723021,1271.877718
5.2200,125.8739268,1.780824585,1271.706303
5.2250,126.2153714,1.502265964,1271.534362
5.2300,126.5558276,1.218676996,1271.361936
5.2350,126.8941961,0.9303074542,1271.189599
5.2400,127.2300961,0.635829493,1271.017159
5.2450,127.563949,0.3353184738,1270.844541
5.2500,127.8941875,0.02819915565,1270.672162
5.2550,128.220744,-0.2852670518,1270.500044
5.2600,128.5434365,-0.6050082386,1270.328246
5.2650,128.8611631,-0.9327350525,1270.156715
5.2700,129.1725582,-1.268814614,1269.985834
5.2750,129.4772505,-1.612499591,1269.815659
5.2800,129.7753453,-1.965029003,1269.64599
5.2850,130.0669485,-2.325538892,1269.477105
5.2900,130.3528506,-2.695330936,1269.308284
5.2950,130.6316695,-3.073483632,1269.140293
5.3000,130.9039684,-3.460652083,1268.972865
5.3050,131.1705554,-3.856378455,1268.80592
5.3100,131.4311391,-4.259880053,1268.639931
5.3150,131.6866569,-4.66979022,1268.474873
5.3200,131.9372902,-5.085064231,1268.311072
5.3250,132.1838651,-5.504321219,1268.148575
5.3300,132.4265314,-5.924807649,1267.988087
5.3350,132.6661032,-6.345535235,1267.8294
5.3400,132.9036864,-6.76421513,1267.672629
5.3450,133.1405687,-7.179504837,1267.517695
5.3500,133.3772578,-7.589333742,1267.364761
5.3550,133.6162426,-7.991306278,1267.213464
5.3600,133.8572332,-8.38420013,1267.064111
5.3650,134.1002754,-8.766505332,1266.916747
5.3700,134.3465387,-9.135827333,1266.771345
5.3750,134.5953324,-9.491552601,1266.628058
5.3800,134.8481936,-9.832807916,1266.486565
5.3850,135.1053137,-10.15939004,1266.346721
5.3900,135.3659326,-10.46992131,1266.209013
5.3950,135.6308019,-10.7653614,1266.072978
5.4000,135.8994957,-11.04539752,1265.938811
5.4050,136.1703883,-11.31006065,1265.806917
5.4100,136.4444898,-11.55999554,1265.676744
5.4150,136.719929,-11.79617289,1265.548662
5.4200,136.9968653,-12.01959268,1265.422437
5.4250,137.2745625,-12.23033805,1265.298223
5.4300,137.5513659,-12.42959546,1265.176306
5.4350,137.8268983,-12.61996374,1265.056271
5.4400,138.1006411,-12.80149156,1264.938325
5.4450,138.3712847,-12.9758658,1264.822568
5.4500,138.6385183,-13.14391412,1264.708952
5.4550,138.902085,-13.30672836,1264.597378
5.4600,139.1637054,-13.46597355,1264.487094
5.4650,139.422151,-13.62121799,1264.378484
5.4700,139.6792296,-13.77264352,1264.271018
5.4750,139.9330118,-13.92041451,1264.165165
5.4800,140.1849269,-14.06522077,1264.060376
5.4850,140.4333868,-14.20754265,1263.95704
5.4900,140.6799065,-14.34711757,1263.854649
5.4950,140.9248831,-14.48464534,1263.753008
5.5000,141.1684937,-14.62075794,1263.651888
5.5050,141.4112362,-14.75594095,1263.55115
5.5100,141.6532286,-14.89171268,1263.450463
5.5150,141.8939146,-15.02829097,1263.349842
5.5200,142.1339627,-15.16617804,1263.249015
5.5250,142.3734388,-15.30674735,1263.147712
5.5300,142.6127968,-15.45019734,1263.045812
5.5350,142.8510891,-15.59788947,1262.943319
5.5400,143.0881201,-15.74949551,1262.840368
5.5450,143.3222064,-15.90625023,1262.737122
5.5500,143.5539536,-16.06880076,1262.633378
5.5550,143.782242,-16.2375193,1262.529534
5.5600,144.0074451,-16.41227545,1262.425483
5.5650,144.2283723,-16.59281802,1262.321649
5.5700,144.4459848,-16.77826762,1262.217962
5.5750,144.6597156,-16.9701648,1262.114402
5.5800,144.8689562,-17.16668736,1262.011392
5.5850,145.0735119,-17.3679945,1261.908957
5.5900,145.2731124,-17.57253885,1261.807532
5.5950,145.4693033,-17.78016376,1261.706672
5.6000,145.6630054,-17.99035175,1261.606194
5.6050,145.8535508,-18.20166845,1261.506399
5.6100,146.0416885,-18.41397184,1261.406965
5.6150,146.2272141,-18.62706967,1261.308045
5.6200,146.4106293,-18.84070357,1261.209556
5.6250,146.5910638,-19.05429954,1261.111813
5.6300,146.7692381,-19.26746317,1261.014537
5.6350,146.9445358,-19.47925214,1260.917982
5.6400,147.1173695,-19.68908503,1260.822135
5.6450,147.2859387,-19.89631087,1260.727373
5.6500,147.4502234,-20.10100799,1260.633832
5.6550,147.6091005,-20.30285042,1260.541845
5.6600,147.7634229,-20.50212682,1260.451004
5.6650,147.9133936,-20.69786225,1260.361526
5.6700,148.0595102,-20.8903407,1260.273207
5.6750,148.2015745,-21.07929224,1260.186206
5.6800,148.3388754,-21.26372814,1260.100712
5.6850,148.4707758,-21.44316337,1260.016881
5.6900,148.5964721,-21.61776576,1259.934672
5.6950,148.7156526,-21.78618767,1259.854358
5.7000,148.8280992,-21.94945816,1259.775772
5.7050,148.9343252,-22.10690396,1259.69877
5.7100,149.0323759,-22.25980118,1259.623701
5.7150,149.1229571,-22.40680603,1259.550595
5.7200,149.2060285,-22.54913185,1259.479316
5.7250,149.282603,-22.68738389,1259.409604
5.7300,149.3531275,-22.82190951,1259.341246
5.7350,149.4172621,-22.95239195,1259.27444
5.7400,149.4746802,-23.07909746,1259.209232
5.7450,149.5259294,-23.20214917,1259.145509
5.7500,149.5701856,-23.32180056,1259.083426
5.7550,149.6086832,-23.43781636,1259.022857
5.7600,149.6399322,-23.5490012,1258.964237
5.7650,149.6654207,-23.65527025,1258.907266
5.7700,149.6859837,-23.75745034,1258.851665
5.7750,149.702153,-23.85507306,1258.797318
5.7800,149.7131576,-23.94817022,1258.744304
5.7850,149.7208923,-24.0360396,1258.692291
5.7900,149.7259953,-24.11995219,1258.640955
5.7950,149.7287442,-24.19935269,1258.590203
5.8000,149.7310539,-24.27440153,1258.539626
5.8050,149.7325617,-24.34586132,1258.489177
5.8100,149.7349792,-24.41293296,1258.438588
5.8150,149.7386425,-24.47483905,1258.388057
5.8200,149.7436488,-24.53200608,1258.337367
5.8250,149.7504352,-24.58370262,1258.286608
5.8300,149.7572302,-24.63108532,1258.235938
5.8350,149.7656507,-24.6725013,1258.185269
5.8400,149.775524,-24.70907898,1258.134544
5.8450,149.788786,-24.74120147,1258.083358
5.8500,149.8051133,-24.76964385,1258.031733
5.8550,149.8253688,-24.79476984,1257.979376
5.8600,149.8483957,-24.81725277,1257.926518
5.8650,149.8756006,-24.8378144,1257.872708
5.8700,149.9066598,-24.85710514,1257.817957
5.8750,149.9423161,-24.87435923,1257.762251
5.8800,149.9829408,-24.88977982,1257.705442
5.8850,150.0287476,-24.90437965,1257.647328
5.8900,150.0801646,-24.91868584,1257.587742
5.8950,150.136208,-24.9324431,1257.526891
5.9000,150.1964303,-24.94614229,1257.464911
5.9050,150.2614286,-24.9594841,1257.401715
5.9100,150.3305316,-24.97272448,1257.337438
5.9150,150.4041381,-24.98684453,1257.271755
5.9200,150.4822808,-25.00170485,1257.204653
5.9250,150.5651478,-25.01921189,1257.135823
5.9300,150.6519587,-25.03937137,1257.065484
5.9350,150.7433711,-25.06294565,1256.993476
5.9400,150.8383136,-25.09052279,1256.919947
5.9450,150.9387777,-25.12158596,1256.844724
5.9500,151.0444401,-25.15710449,1256.767706
5.9550,151.1557852,-25.19593413,1256.688961
5.9600,151.2713621,-25.2372759,1256.608974
5.9650,151.3904116,-25.28257729,1256.527676
5.9700,151.5111735,-25.33070028,1256.445619
5.9750,151.6335385,-25.3824478,1256.362703
5.9800,151.7556992,-25.43818127,1256.279292
5.9850,151.8779578,-25.4985494,1256.195269
5.9900,151.9978838,-25.56440249,1256.11101
5.9950,152.1143158,-25.63716352,1256.026533
6.0000,152.2259016,-25.71615291,1255.942142
6.0050,152.330948,-25.80206914,1255.858184
6.0100,152.4280936,-25.89377657,1255.775046
6.0150,152.5167964,-25.99178851,1255.692774
6.0200,152.594726,-26.09523275,1255.611905
6.0250,152.661794,-26.20396177,1255.532486
6.0300,152.7174098,-26.31777856,1255.454733
6.0350,152.760546,-26.4354604,1255.379017
6.0400,152.7909292,-26.5567176,1255.30543
6.0450,152.8062919,-26.68081411,1255.234488
6.0500,152.8076542,-26.80652439,1255.166099
6.0550,152.7946132,-26.93343915,1255.100327
6.0600,152.7676101,-27.06214671,1255.03699
6.0650,152.7257199,-27.19144521,1254.976405
6.0700,152.6682318,-27.32049983,1254.918729
6.0750,152.5952324,-27.4487715,1254.863973
6.0800,152.5088758,-27.57447094,1254.812076
6.0850,152.409787,-27.6975375,1254.762777
6.0900,152.298394,-27.81595655,1254.716271
6.0950,152.1765191,-27.92812928,1254.672421
6.1000,152.0445122,-28.03360011,1254.631181
6.1050,151.9031636,-28.13025778,1254.592537
6.1100,151.7532297,-28.21782864,1254.55638
6.1150,151.5963882,-28.29525331,1254.522476
6.1200,151.4337763,-28.36181396,1254.490809
6.1250,151.2658184,-28.41718414,1254.461173
6.1300,151.0943292,-28.46005501,1254.433425
6.1350,150.9210986,-28.49206778,1254.407017
6.1400,150.7457111,-28.51204063,1254.38222
6.1450,150.5686216,-28.52025498,1254.358821
6.1500,150.3895389,-28.51615894,1254.337058
6.1550,150.2096279,-28.50008559,1254.316646
6.1600,150.0292231,-28.47324069,1254.297344
6.1650,149.8489833,-28.43462545,1254.279257
6.1700,149.6702362,-28.38389005,1254.262142
6.1750,149.4931116,-28.32225287,1254.245849
6.1800,149.3189853,-28.25099053,1254.229955
6.1850,149.1500576,-28.16944495,1254.214182
6.1900,148.9862871,-28.07813725,1254.198525
6.1950,148.8296441,-27.97749924,1254.182581
6.2000,148.6795625,-27.86712836,1254.166495
6.2050,148.5373778,-27.74802072,1254.149867
6.2100,148.4049964,-27.62117451,1254.132207
6.2150,148.2823898,-27.48551882,1254.113659
6.2200,148.1707024,-27.34212123,1254.09385
6.2250,148.0700845,-27.18978446,1254.072994
6.2300,147.9801454,-27.03037145,1254.050845
6.2350,147.9016617,-26.86415707,1254.02732
6.2400,147.8345402,-26.69108161,1254.002383
6.2450,147.7786959,-26.51294472,1253.975768
6.2500,147.7330451,-26.33116544,1253.947484
6.2550,147.6967919,-26.14763453,1253.917412
6.2600,147.670211,-25.96427788,1253.885306
6.2650,147.6519311,-25.78116149,1253.851538
6.2700,147.6423813,-25.60076335,1253.815723
6.2750,147.6399495,-25.42267199,1253.778295
6.2800,147.6448306,-25.24839409,1253.739057
6.2850,147.654554,-25.07714086,1253.698572
6.2900,147.6695275,-24.90976119,1253.656821
6.2950,147.690263,-24.74600456,1253.613715
6.3000,147.7168832,-24.58517938,1253.569341
6.3050,147.7496712,-24.42806344,1253.523561
6.3100,147.7890748,-24.27528762,1253.476145
6.3150,147.8335206,-24.1277407,1253.427254
6.3200,147.8823544,-23.9851029,1253.377105
6.3250,147.9342015,-23.84858427,1253.325736
6.3300,147.9880826,-23.71828479,1253.273319
6.3350,148.04403,-23.59479713,1253.219814
6.3400,148.1006955,-23.47862369,1253.165463
6.3450,148.1584576,-23.36972674,1253.110216
6.3500,148.2151929,-23.26895288,1253.054465
6.3550,148.2704198,-23.1769074,1252.998183
6.3600,148.3234672,-23.09339508,1252.941595
6.3650,148.3736868,-23.01827196,1252.88481
6.3700,148.4202661,-22.95240056,1252.827857
6.3750,148.4644116,-22.89600163,1252.770519
6.3800,148.5051377,-22.84894186,1252.712769
6.3850,148.5420166,-22.81234848,1252.654659
6.3900,148.5761108,-22.78476364,1252.595958
6.3950,148.6063669,-22.76763168,1252.53664
6.4000,148.6352202,-22.75927215,1252.47634
6.4050,148.6630506,-22.76061474,1252.414862
6.4100,148.6902268,-22.77082694,1252.352208
6.4150,148.7170229,-22.79017012,1252.288082
6.4200,148.7436785,-22.81706903,1252.222639
6.4250,148.7711918,-22.85178532,1252.155632
6.4300,148.7998632,-22.89236209,1252.087263
6.4350,148.8297136,-22.93818481,1252.017618
6.4400,148.8612223,-22.98864079,1251.946574
6.4450,148.8933949,-23.04343597,1251.874448
6.4500,148.9268812,-23.10230908,1251.800991
6.4550,148.9610318,-23.16490981,1251.726425
6.4600,148.9956226,-23.22996941,1251.650889
6.4650,149.0295316,-23.29851033,1251.574351
6.4700,149.062133,-23.36996992,1251.497015
6.4750,149.0931456,-23.44311641,1251.419108
6.4800,149.1227315,-23.51745675,1251.340715
6.4850,149.1483928,-23.59332148,1251.262246
6.4900,149.1692402,-23.66984994,1251.183853
6.4950,149.1854251,-23.7473808,1251.105477
6.5000,149.1954249,-23.825923,1251.027439
6.5050,149.1988994,-23.90482065,1250.949916
6.5100,149.1951897,-23.98355476,1250.873137
6.5150,149.1854506,-24.06395184,1250.796786
6.5200,149.1684942,-24.14534684,1250.7212
6.5250,149.1455073,-24.2272526,1250.64627
6.5300,149.1175814,-24.30914197,1250.571911
6.5350,149.0839395,-24.39154691,1250.498213
6.5400,149.046286,-24.47428293,1250.425002
6.5450,149.0048665,-24.55666863,1250.35235
6.5500,148.9613878,-24.63707632,1250.280259
6.5550,148.9151655,-24.7156309,1250.208879
6.5600,148.8660086,-24.79146028,1250.138359
6.5650,148.8149215,-24.86411558,1250.068496
6.5700,148.7624327,-24.93308813,1249.99934
6.5750,148.709521,-24.9995117,1249.930484
6.5800,148.6557966,-25.0628123,1249.862039
6.5850,148.6026866,-25.12402195,1249.793765
6.5900,148.5499333,-25.18166685,1249.725742
6.5950,148.4977115,-25.23654429,1249.657894
6.6000,148.4449466,-25.28972529,1249.590325
6.6050,148.3911738,-25.34054795,1249.523158
6.6100,148.3368342,-25.38837425,1249.456398
6.6150,148.2819536,-25.43357091,1249.390016
6.6200,148.2277493,-25.47628849,1249.323722
6.6250,148.1742398,-25.51600893,1249.257667
6.6300,148.1214733,-25.55254977,1249.191818
6.6350,148.0697092,-25.58636924,1249.126091
6.6400,148.0192056,-25.61644896,1249.060536
6.6450,147.9701397,-25.64332476,1248.995086
6.6500,147.9243281,-25.66654767,1248.929437
6.6550,147.8823394,-25.68665287,1248.863509
6.6600,147.8434735,-25.70274753,1248.797452
6.6650,147.8081514,-25.71626566,1248.731098
6.6700,147.7764729,-25.72632798,1248.664471
6.6750,147.7489396,-25.7330616,1248.597502
6.6800,147.7256338,-25.73746306,1248.530081
6.6850,147.7068031,-25.73805228,1248.462297
6.6900,147.69164,-25.73679246,1248.394151
6.6950,147.6808634,-25.73203081,1248.325627
6.7000,147.6745059,-25.72562875,1248.256575
6.7050,147.6719908,-25.71572465,1248.187231
6.7100,147.6737255,-25.70317036,1248.117377
6.7150,147.6794114,-25.68841501,1248.047169
6.7200,147.6899118,-25.67095045,1247.976391
6.7250,147.7033319,-25.65124948,1247.905333
6.7300,147.7208749,-25.63053558,1247.833602
6.7350,147.741583,-25.60836515,1247.761388
6.7400,147.7664742,-25.58538737,1247.688565
6.7450,147.7960636,-25.56076924,1247.615043
6.7500,147.8301281,-25.53467158,1247.540988
6.7550,147.8686257,-25.5072704,1247.46635
6.7600,147.9132299,-25.47893699,1247.390946
6.7650,147.963571,-25.44991571,1247.314827
6.7700,148.0185787,-25.42042203,1247.23827
6.7750,148.0793718,-25.39128086,1247.161035
6.7800,148.1447541,-25.3630323,1247.083258
6.7850,148.2148464,-25.33607571,1247.004881
6.7900,148.2900029,-25.31093897,1246.92588
6.7950,148.3690758,-25.28694216,1246.846639
6.8000,148.4535735,-25.26475767,1246.766776
6.8050,148.5426986,-25.24612769,1246.686321
6.8100,148.6375933,-25.2301791,1246.605264
6.8150,148.7363735,-25.21714353,1246.523831
6.8200,148.8399189,-25.20738056,1246.441837
6.8250,148.9472445,-25.20150488,1246.359314
6.8300,149.0582611,-25.19923868,1246.276429
6.8350,149.1737218,-25.19967728,1246.19306
6.8400,149.2924625,-25.20345222,1246.109369
6.8450,149.4147725,-25.21090182,1246.0253
6.8500,149.5398959,-25.22159421,1245.940951
6.8550,149.6680867,-25.23656975,1245.856238
6.8600,149.7999453,-25.25557591,1245.771066
6.8650,149.9344281,-25.278444,1245.685652
6.8700,150.0702386,-25.30640919,1245.600101
6.8750,150.2057333,-25.33835925,1245.514809
6.8800,150.3420515,-25.3745718,1245.429599
6.8850,150.4765374,-25.41595603,1245.344737
6.8900,150.6102472,-25.46194301,1245.260161
6.8950,150.7398963,-25.51261826,1245.17638
6.9000,150.8661186,-25.5677887,1245.09317
6.9050,150.9884735,-25.62753424,1245.010557
6.9100,151.1067051,-25.69224287,1244.928605
6.9150,151.2213825,-25.76085232,1244.8472
6.9200,151.3317086,-25.83383247,1244.766489
6.9250,151.4365535,-25.90965092,1244.686687
6.9300,151.5370499,-25.98837515,1244.607707
6.9350,151.631865,-26.06903684,1244.529828
6.9400,151.7214459,-26.15335108,1244.452813
6.9450,151.8045909,-26.24055971,1244.376887
6.9500,151.8800505,-26.33132987,1244.302179
6.9550,151.9460067,-26.42503597,1244.228926
6.9600,152.0024885,-26.52288721,1244.157082
6.9650,152.0496454,-26.62472365,1244.086616
6.9700,152.0877001,-26.73075317,1244.017484
6.9750,152.1155076,-26.84081615,1243.949804
6.9800,152.1312773,-26.95520244,1243.883941
6.9850,152.1359958,-27.07412462,1243.819716
6.9900,152.1297305,-27.19630701,1243.757232
6.9950,152.1124167,-27.32258426,1243.696532
7.0000,152.0824828,-27.4525444,1243.637926
7.0050,152.0412144,-27.58767045,1243.581171
7.0100,151.9883847,-27.72631952,1243.52653
7.0150,151.924363,-27.86843136,1243.473973
7.0200,151.8484682,-28.01369258,1243.423762
7.0250,151.7623122,-28.16123294,1243.375838
7.0300,151.6660006,-28.3100291,1243.330365
7.0350,151.5595192,-28.45899838,1243.287488
7.0400,151.443349,-28.60789739,1243.247234
7.0450,151.3177194,-28.75644787,1243.209625
7.0500,151.183468,-28.90378779,1243.17468
7.0550,151.0416694,-29.04866522,1243.142455
7.0600,150.8905007,-29.18974994,1243.113394
7.0650,150.731304,-29.3267362,1243.087452
7.0700,150.5658447,-29.45889151,1243.064401
7.0750,150.3925282,-29.58463545,1243.04465
7.0800,150.2127731,-29.70352022,1243.028156
7.0850,150.0278734,-29.81456826,1243.014807
7.0900,149.8395359,-29.91789181,1243.004331
7.0950,149.6492256,-30.01313974,1242.996486
7.1000,149.4591686,-30.10005209,1242.991001
7.1050,149.2711937,-30.17744063,1242.987743
7.1100,149.0866367,-30.24618063,1242.98632
7.1150,148.9085501,-30.30508994,1242.986424
7.1200,148.7384635,-30.35478366,1242.987724
7.1250,148.5787334,-30.39580275,1242.989739
7.1300,148.4314059,-30.42820526,1242.992184
7.1350,148.2974166,-30.45267984,1242.99479
7.1400,148.1792348,-30.46951255,1242.997088
7.1450,148.0759637,-30.47959909,1242.999122
7.1500,147.98908,-30.4833642,1243.000579
7.1550,147.9194,-30.48022715,1243.001304
7.1600,147.8653941,-30.47021499,1243.001554
7.1650,147.8278424,-30.45477122,1243.000943
7.1700,147.8062329,-30.4329963,1242.999484
7.1750,147.8003454,-30.40563277,1242.997161
7.1800,147.8075154,-30.37273533,1242.994281
7.1850,147.827313,-30.33353504,1242.990851
7.1900,147.8568469,-30.28966796,1242.987101
7.1950,147.8955755,-30.24033949,1242.983141
7.2000,147.9409911,-30.18626893,1242.979275
7.2050,147.9900292,-30.12705919,1242.976075
7.2100,148.0413296,-30.06381253,1242.973529
7.2150,148.0931639,-29.99680283,1242.971992
7.2200,148.143503,-29.92683355,1242.971612
7.2250,148.1902976,-29.85482133,1242.972768
7.2300,148.2325149,-29.78204937,1242.975345
7.2350,148.2696669,-29.7090507,1242.979346
7.2400,148.3003739,-29.6365681,1242.98498
7.2450,148.3260679,-29.56505291,1242.991975
7.2500,148.3459304,-29.49489465,1243.000568
7.2550,148.360598,-29.42694549,1243.010587
7.2600,148.3717024,-29.36048984,1243.021938
7.2650,148.3792694,-29.29634029,1243.034543
7.2700,148.3828464,-29.23535591,1243.048472
7.2750,148.3834181,-29.17709604,1243.063676
7.2800,148.3816611,-29.12172827,1243.080025
7.2850,148.375832,-29.07035281,1243.097683
7.2900,148.3665972,-29.02356099,1243.116635
7.2950,148.3532564,-28.98179248,1243.136867
7.3000,148.3366968,-28.94397323,1243.158388
7.3050,148.3151792,-28.90996896,1243.181463
7.3100,148.2885891,-28.8807644,1243.206064
7.3150,148.2558504,-28.85509501,1243.232509
7.3200,148.216914,-28.83526824,1243.260533
7.3250,148.1715786,-28.82025256,1243.290315
7.3300,148.1190193,-28.80977939,1243.322052
7.3350,148.0599353,-28.80436801,1243.355625
7.3400,147.9945263,-28.80413516,1243.390961
7.3450,147.9232328,-28.80821191,1243.428169
7.3500,147.8476248,-28.81726066,1243.466932
7.3550,147.7674967,-28.83159,1243.507234
7.3600,147.6845444,-28.85189942,1243.548809
7.3650,147.6008144,-28.87740059,1243.591319
7.3700,147.5165316,-28.90874013,1243.634725
7.3750,147.4346632,-28.9468677,1243.678583
7.3800,147.3549223,-28.99091171,1243.722917
7.3850,147.2781251,-29.04128543,1243.767646
7.3900,147.2053474,-29.09648623,1243.81278
7.3950,147.1363323,-29.15731641,1243.85833
7.4000,147.071605,-29.22270039,1243.904332
7.4050,147.0116509,-29.29436285,1243.950452
7.4100,146.9564146,-29.37075733,1243.996985
7.4150,146.9064312,-29.4518736,1244.043771
7.4200,146.861921,-29.53841805,1244.090698
7.4250,146.823403,-29.62948344,1244.137849
7.4300,146.7897308,-29.72445174,1244.185388
7.4350,146.7604013,-29.82382168,1244.233388
7.4400,146.7347488,-29.92693637,1244.281925
7.4450,146.7131503,-30.03227158,1244.331076
7.4500,146.6945843,-30.13961219,1244.381097
7.4550,146.6793926,-30.24809319,1244.431964
7.4600,146.6670072,-30.35899357,1244.483555
7.4650,146.6567825,-30.47095119,1244.536148
7.4700,146.6486208,-30.58298975,1244.589849
7.4750,146.6412652,-30.69579777,1244.644661
7.4800,146.634536,-30.80779835,1244.70082
7.4850,146.6295685,-30.9200413,1244.757975
7.4900,146.6248712,-31.03112119,1244.816443
7.4950,146.6202685,-31.14152188,1244.876154
7.5000,146.6150407,-31.24969397,1244.937311
7.5050,146.6104445,-31.35652843,1244.999511
7.5100,146.604841,-31.46026046,1245.063082
7.5150,146.5976893,-31.56128943,1245.128037
7.5200,146.5873828,-31.65740008,1245.194799
7.5250,146.5743545,-31.74957653,1245.263042
7.5300,146.557526,-31.83657099,1245.333132
7.5350,146.5357838,-31.91898069,1245.405156
7.5400,146.5088273,-31.99611276,1245.479151
7.5450,146.4746523,-32.06838918,1245.555399
7.5500,146.4337651,-32.13522547,1245.633769
7.5550,146.3846385,-32.19664038,1245.714518
7.5600,146.3266481,-32.25369604,1245.797618
7.5650,146.2587573,-32.30587916,1245.883273
7.5700,146.1809866,-32.35277793,1245.971499
7.5750,146.092417,-32.39597881,1246.062399
7.5800,145.9938989,-32.43493934,1246.155865
7.5850,145.8857102,-32.46908663,1246.252037
7.5900,145.7676747,-32.49864747,1246.350877
7.5950,145.6415096,-32.52394741,1246.45217
7.6000,145.5067155,-32.54646598,1246.555924
7.6050,145.3653558,-32.56584279,1246.661849
7.6100,145.2182427,-32.58268151,1246.769698
7.6150,145.067387,-32.59783556,1246.87911
7.6200,144.9140762,-32.61063617,1246.989951
7.6250,144.7599299,-32.62216575,1247.101837
7.6300,144.6057158,-32.63343651,1247.21445
7.6350,144.4535824,-32.64557731,1247.327368
7.6400,144.3036144,-32.65878971,1247.440519
7.6450,144.1577721,-32.67356953,1247.553566
7.6500,144.016962,-32.69042473,1247.666292
7.6550,143.8818044,-32.70990308,1247.778564
7.6600,143.7537384,-32.73286018,1247.889977
7.6650,143.6322976,-32.75969839,1248.000555
7.6700,143.5196444,-32.7903997,1248.109953
7.6750,143.4150842,-32.82531155,1248.218056
7.6800,143.3196997,-32.86490803,1248.324714
7.6850,143.2346739,-32.90808385,1248.429759
7.6900,143.1592606,-32.95717645,1248.533059
7.6950,143.0939169,-33.01048089,1248.634657
7.7000,143.0395206,-33.06867398,1248.734342
7.7050,142.9951884,-33.12994485,1248.832393
7.7100,142.9605628,-33.19431554,1248.928768
7.7150,142.9347926,-33.26194865,1249.023592
7.7200,142.9175953,-33.33106596,1249.117007
7.7250,142.9083664,-33.40065859,1249.209169
7.7300,142.9079846,-33.47167853,1249.29968
7.7350,142.9167013,-33.54267727,1249.388613
7.7400,142.9344282,-33.61310924,1249.47602
7.7450,142.9602297,-33.68306665,1249.561875
7.7500,142.9935523,-33.75261769,1249.646217
7.7550,143.0331547,-33.82281237,1249.729044
7.7600,143.0801114,-33.8908996,1249.810436
7.7650,143.1332931,-33.95814708,1249.890344
7.7700,143.1926063,-34.02471708,1249.968758
7.7750,143.2577592,-34.08925589,1250.045805
7.7800,143.3275814,-34.15156886,1250.121688
7.7850,143.4016809,-34.21079808,1250.196527
7.7900,143.4800349,-34.26712387,1250.27027
7.7950,143.5627033,-34.31997689,1250.342953
7.8000,143.6497623,-34.36855805,1250.414603
7.8050,143.7390005,-34.41286209,1250.485598
7.8100,143.8303223,-34.45250537,1250.556005
7.8150,143.9235849,-34.48626286,1250.625906
7.8200,144.0195631,-34.51565627,1250.695061
7.8250,144.1187523,-34.53996333,1250.763475
7.8300,144.2197666,-34.55859644,1250.831454
7.8350,144.3233139,-34.57097627,1250.89888
7.8400,144.4291018,-34.57701492,1250.965747
7.8450,144.5372467,-34.57595052,1251.032258
7.8500,144.6481833,-34.5681594,1251.098211
7.8550,144.7630188,-34.55330951,1251.163569
7.8600,144.8803847,-34.5314603,1251.228602
7.8650,145.0029646,-34.50247502,1251.292872
7.8700,145.1294108,-34.46682225,1251.3567
7.8750,145.2608111,-34.42453868,1251.41989
7.8800,145.3966001,-34.3749514,1251.482667
7.8850,145.5372931,-34.31905577,1251.544842
7.8900,145.6836196,-34.25654661,1251.606345
7.8950,145.8357941,-34.18678312,1251.667245
7.9000,145.9936699,-34.1095066,1251.727633
7.9050,146.1573488,-34.02544146,1251.787505
7.9100,146.3277321,-33.9352519,1251.846656
7.9150,146.5040846,-33.83822572,1251.905252
7.9200,146.6871262,-33.73556186,1251.963166
7.9250,146.8753643,-33.6277576,1252.020554
7.9300,147.0702114,-33.51441646,1252.077273
7.9350,147.2700866,-33.39696076,1252.133417
7.9400,147.4754419,-33.27575768,1252.188905
7.9450,147.6856589,-33.15130577,1252.243717
7.9500,147.8990896,-33.02418469,1252.298185
7.9550,148.1165671,-32.8956362,1252.351971
7.9600,148.3369311,-32.76466797,1252.405504
7.9650,148.5604359,-32.63220693,1252.458613
7.9700,148.7857903,-32.4983926,1252.511537
7.9750,149.0137893,-32.36401608,1252.564047
7.9800,149.2446042,-32.22925327,1252.616075
7.9850,149.4758842,-32.09483831,1252.667965
7.9900,149.7082721,-31.95989676,1252.719685
7.9950,149.9417179,-31.82447209,1252.771217
8.0000,150.1750165,-31.68802507,1252.822755
8.0050,150.4083142,-31.55054628,1252.874313
8.0100,150.6418299,-31.41280939,1252.925712
8.0150,150.8758612,-31.27354856,1252.977037
8.0200,151.1099509,-31.13233278,1253.028405
8.0250,151.3426855,-30.99050081,1253.079997
8.0300,151.5739872,-30.84675648,1253.131989
8.0350,151.8029085,-30.70142142,1253.184486
8.0400,152.0288307,-30.55503183,1253.237512
8.0450,152.2523612,-30.40743044,1253.291033
8.0500,152.4728896,-30.25879477,1253.345046
8.0550,152.6901359,-30.10810425,1253.399724
8.0600,152.9031707,-29.95650138,1253.455095
8.0650,153.1115963,-29.80256371,1253.511448
8.0700,153.3151939,-29.64685602,1253.568748
8.0750,153.5142022,-29.48839127,1253.627065
8.0800,153.7085057,-29.32909561,1253.686124
8.0850,153.8972722,-29.16802747,1253.746204
8.0900,154.0808673,-29.00503055,1253.80722
8.0950,154.2581083,-28.83976697,1253.869393
8.1000,154.4276857,-28.67360922,1253.932799
8.1050,154.5919519,-28.50488951,1253.99723
8.1100,154.7501793,-28.33385935,1254.062774
8.1150,154.9025246,-28.16062214,1254.12944
8.1200,155.0497262,-27.98367472,1254.197207
8.1250,155.1907982,-27.8023054,1254.266312
8.1300,155.3258673,-27.61720172,1254.336541
8.1350,155.4550642,-27.4278315,1254.408093
8.1400,155.5785309,-27.23397892,1254.480934
8.1450,155.6960956,-27.03590203,1254.555015
8.1500,155.8076045,-26.83388619,1254.630473
8.1550,155.912609,-26.62664302,1254.707365
8.1600,156.0121594,-26.41449264,1254.785487
8.1650,156.1047424,-26.19756888,1254.86514
8.1700,156.1904882,-25.97586599,1254.946342
8.1750,156.2695786,-25.74899786,1255.029122
8.1800,156.3428423,-25.51837733,1255.113279
8.1850,156.4104428,-25.28366181,1255.198827
8.1900,156.4723781,-25.04500946,1255.285889
8.1950,156.5293611,-24.80353747,1255.374114
8.2000,156.5820783,-24.55915792,1255.463325
8.2050,156.6302804,-24.31228759,1255.553463
8.2100,156.674246,-24.06296482,1255.644465
8.2150,156.7140742,-23.81263241,1255.736151
8.2200,156.7500059,-23.56139039,1255.828409
8.2250,156.7829586,-23.31016885,1255.92102
8.2300,156.8117803,-23.05979097,1256.014087
8.2350,156.8375268,-22.80951325,1256.107525
8.2400,156.8608019,-22.55939692,1256.201164
8.2450,156.8813601,-22.31080915,1256.294884
8.2500,156.9013376,-22.06328457,1256.388181
8.2550,156.9198143,-21.81716646,1256.481201
8.2600,156.9376506,-21.57409096,1256.573343
8.2650,156.9550522,-21.33359052,1256.664696
8.2700,156.9712847,-21.09635142,1256.75523
8.2750,156.9866422,-20.86228837,1256.844891
8.2800,157.0001318,-20.63018914,1256.934041
8.2850,157.0131273,-20.40152616,1257.022196
8.2900,157.024628,-20.17528148,1257.109783
8.2950,157.0343449,-19.95216006,1257.19687
8.3000,157.0423805,-19.73283044,1257.283393
8.3050,157.0479841,-19.51637587,1257.369803
8.3100,157.0517077,-19.30226937,1257.456026
8.3150,157.0541761,-19.08885421,1257.542264
8.3200,157.0541122,-18.87568233,1257.628894
8.3250,157.0536579,-18.66078397,1257.715717
8.3300,157.0519845,-18.44341654,1257.802993
8.3350,157.050324,-18.22408109,1257.890476
8.3400,157.048441,-18.00133869,1257.978413
8.3450,157.0466192,-17.77521945,1258.066683
8.3500,157.0452506,-17.54432875,1258.155328
8.3550,157.0445572,-17.30761424,1258.244338
8.3600,157.0451098,-17.06400982,1258.333744
8.3650,157.0470832,-16.8132523,1258.423418
8.3700,157.0489006,-16.55465619,1258.513676
8.3750,157.0511157,-16.28878808,1258.604299
8.3800,157.0534046,-16.01393218,1258.695629
8.3850,157.0553846,-15.72926251,1258.787875
8.3900,157.0577012,-15.43456386,1258.880907
8.3950,157.0608719,-15.12832324,1258.974808
8.4000,157.0657044,-14.8095464,1259.069495
8.4050,157.0712884,-14.47847329,1259.165177
8.4100,157.0773605,-14.13532752,1259.261842
8.4150,157.0824315,-13.78056781,1259.359766
8.4200,157.0856041,-13.41427625,1259.459138
8.4250,157.0861242,-13.037506,1259.560102
8.4300,157.0832647,-12.65044347,1259.662925
8.4350,157.0770478,-12.25298033,1259.767632
8.4400,157.0655798,-11.84607606,1259.874583
8.4450,157.0485978,-11.43117671,1259.983761
8.4500,157.0251315,-11.00842048,1260.095421
8.4550,156.995115,-10.5801853,1260.209486
8.4600,156.9577454,-10.14588896,1260.326315
8.4650,156.9123253,-9.706033248,1260.445943
8.4700,156.860067,-9.261150001,1260.56811
8.4750,156.8011863,-8.812133967,1260.692635
8.4800,156.7345838,-8.359015193,1260.819671
8.4850,156.6597155,-7.901541762,1260.949324
8.4900,156.5765154,-7.441811702,1261.081136
8.4950,156.4838968,-6.979968764,1261.215394
8.5000,156.3807807,-6.517748957,1261.351956
8.5050,156.2671021,-6.056982952,1261.490502
8.5100,156.1411498,-5.597946948,1261.631347
8.5150,156.0024886,-5.142952213,1261.774207
8.5200,155.8500887,-4.692099138,1261.919205
8.5250,155.6828048,-4.246427391,1262.066367
8.5300,155.502318,-3.807230647,1262.215197
8.5350,155.3071341,-3.375266437,1262.365899
8.5400,155.0968749,-2.950496197,1262.518769
8.5450,154.8721024,-2.533217746,1262.673665
8.5500,154.6305605,-2.123967185,1262.831124
8.5550,154.3733515,-1.722346778,1262.991096
8.5600,154.1007889,-1.327639201,1263.153821
8.5650,153.8118704,-0.9391424079,1263.319866
8.5700,153.5074392,-0.5556853744,1263.489361
8.5750,153.1879064,-0.1772863579,1263.662397
8.5800,152.8538288,0.1956522228,1263.838857
8.5850,152.5065973,0.5650518742,1264.018884
8.5900,152.1455884,0.9303334054,1264.202462
8.5950,151.7722366,1.292628316,1264.389524
8.6000,151.3860698,1.652687115,1264.580292
8.6050,150.9885062,2.012216312,1264.774666
8.6100,150.5803746,2.374031136,1264.973077
8.6150,150.161554,2.738198176,1265.175463
8.6200,149.7337743,3.105713407,1265.38151
8.6250,149.2983005,3.477866422,1265.591006
8.6300,148.8560584,3.85557433,1265.803757
8.6350,148.4076603,4.241496332,1266.020062
8.6400,147.9550888,4.634454942,1266.239051
8.6450,147.4992095,5.03500815,1266.460638
8.6500,147.0400228,5.442192499,1266.684603
8.6550,146.5783501,5.855970957,1266.910821
8.6600,146.1140671,6.276176195,1267.139202
8.6650,145.6473595,6.702100199,1267.369574
8.6700,145.1794778,7.133497842,1267.601677
8.6750,144.7103238,7.571179875,1267.835746
8.6800,144.2406416,8.014955349,1268.071525
8.6850,143.7709597,8.464886308,1268.309004
8.6900,143.3012778,8.921767285,1268.548351
8.6950,142.8335548,9.38322261,1268.788566
8.7000,142.3686298,9.848808404,1269.029402
8.7050,141.9065341,10.31643278,1269.270365
8.7100,141.4483053,10.78538929,1269.511132
8.7150,140.9946142,11.25459612,1269.751228
8.7200,140.5448714,11.72197211,1269.990498
8.7250,140.0985253,12.18676552,1270.228823
8.7300,139.6553125,12.64791913,1270.466168
8.7350,139.215944,13.10398013,1270.701973
8.7400,138.7813076,13.55506698,1270.93599
8.7450,138.351773,14.00062243,1271.16787
8.7500,137.9263862,14.43901503,1271.397531
8.7550,137.5051582,14.86976632,1271.624679
8.7600,137.0876834,15.29197689,1271.8492
8.7650,136.6741708,15.70544857,1272.070886
8.7700,136.2643349,16.11068758,1272.289964
8.7750,135.8570175,16.50656054,1272.506419
8.7800,135.4525477,16.89163037,1272.719837
8.7850,135.0516389,17.26458791,1272.929742
8.7900,134.6525734,17.62492743,1273.136559
8.7950,134.2544664,17.97268996,1273.340404
8.8000,133.8575241,18.30951333,1273.541708
8.8050,133.4609108,18.63590297,1273.740891
8.8100,133.0653575,18.95276108,1273.937897
8.8150,132.6719484,19.26066369,1274.132409
8.8200,132.2789018,19.56008915,1274.325269
8.8250,131.8882146,19.85342648,1274.516473
8.8300,131.4983118,20.14135746,1274.706612
8.8350,131.1110724,20.42478691,1274.89539
8.8400,130.7252209,20.70346899,1275.083018
8.8450,130.341196,20.97883484,1275.269758
8.8500,129.9589264,21.25177996,1275.455819
8.8550,129.5793782,21.52347479,1275.641214
8.8600,129.2011408,21.79423852,1275.826589
8.8650,128.8249818,22.06444551,1276.011641
8.8700,128.449863,22.33423403,1276.196737
8.8750,128.0763264,22.60419396,1276.381863
8.8800,127.7045186,22.87518472,1276.567285
8.8850,127.3319046,23.14617829,1276.75362
8.8900,126.96134,23.41931666,1276.940585
8.8950,126.5916547,23.69534452,1277.12872
8.9000,126.2243298,23.97685262,1277.318308
8.9050,125.8600139,24.26388634,1277.509207
8.9100,125.4982331,24.55544909,1277.701259
8.9150,125.1396039,24.85269324,1277.894648
8.9200,124.7852916,25.15543279,1278.088882
8.9250,124.4349004,25.46249051,1278.28388
8.9300,124.0892334,25.77343697,1278.479293
8.9350,123.7477957,26.08736211,1278.67507
8.9400,123.4089964,26.40367006,1278.871633
8.9450,123.0710554,26.72247928,1279.069591
8.9500,122.734667,27.04412154,1279.268781
8.9550,122.399618,27.36915656,1279.469334
8.9600,122.067029,27.69659354,1279.67059
8.9650,121.7381834,28.02696224,1279.872222
8.9700,121.4139673,28.35991713,1280.073835
8.9750,121.0945493,28.69431578,1280.2749
8.9800,120.7812297,29.03110717,1280.475244
8.9850,120.4743763,29.36848745,1280.674151
8.9900,120.172808,29.7045878,1280.871512
8.9950,119.8754427,30.04009838,1281.06784
9.0000,119.5818996,30.3742804,1281.262984
9.0050,119.2921051,30.70681864,1281.456745
9.0100,119.0053554,31.03588581,1281.648924
9.0150,118.7200759,31.35910127,1281.839467
9.0200,118.4359129,31.67505023,1282.027906
9.0250,118.1526124,31.98366172,1282.214313
9.0300,117.870831,32.28360487,1282.397905
9.0350,117.5884568,32.5745539,1282.579357
9.0400,117.3052073,32.85636831,1282.75883
9.0450,117.0205541,33.12869502,1282.93634
9.0500,116.7352949,33.39152864,1283.11147
9.0550,116.4488222,33.64581602,1283.284846
9.0600,116.1611743,33.89071225,1283.456068
9.0650,115.87201,34.12670077,1283.625499
9.0700,115.5800018,34.35282357,1283.793383
9.0750,115.2857761,34.57008224,1283.959805
9.0800,114.9881066,34.77893634,1284.125229
9.0850,114.6870081,34.9806739,1284.290045
9.0900,114.3834937,35.17634999,1284.453997
9.0950,114.0786259,35.36705988,1284.61715
9.1000,113.7724903,35.55206334,1284.779235
9.1050,113.4660171,35.73218192,1284.940055
9.1100,113.1589439,35.90794989,1285.099919
9.1150,112.8511923,36.07992337,1285.259145
9.1200,112.54419,36.24872305,1285.417228
9.1250,112.2369307,36.41441495,1285.574621
9.1300,111.9298611,36.5783373,1285.731545
9.1350,111.6224612,36.74057246,1285.888192
9.1400,111.3155465,36.90179285,1286.044416
9.1450,111.0083894,37.06167594,1286.200553
9.1500,110.701829,37.22029298,1286.356193
9.1550,110.3938332,37.37761847,1286.512304
9.1600,110.0854837,37.53309324,1286.668207
9.1650,109.7753714,37.68648099,1286.824513
9.1700,109.4640058,37.8366506,1286.980807
9.1750,109.1484675,37.98549613,1287.139028
9.1800,108.8287361,38.13318567,1287.299114
9.1850,108.5059684,38.28292232,1287.461663
9.1900,108.1789129,38.43537936,1287.627475
9.1950,107.8481017,38.59097994,1287.796474
9.2000,107.5129515,38.7496993,1287.968767
9.2050,107.1732316,38.91184507,1288.144586
9.2100,106.8286861,39.07802305,1288.324367
9.2150,106.4789652,39.24733462,1288.507913
9.2200,106.12353,39.41920977,1288.69532
9.2250,105.7618728,39.59462957,1288.887148
9.2300,105.3933021,39.77339188,1289.083737
9.2350,105.0178574,39.95542335,1289.284879
9.2400,104.6356524,40.14222737,1289.491066
9.2450,104.2482018,40.33320591,1289.701459
9.2500,103.8568512,40.52794411,1289.915386
9.2550,103.4613529,40.72473414,1290.132487
9.2600,103.0612007,40.92338697,1290.353037
9.2650,102.6552674,41.1237044,1290.577592
9.2700,102.2433702,41.32600411,1290.806373
9.2750,101.8263883,41.53049716,1291.039155
9.2800,101.4039051,41.73659405,1291.275915
9.2850,100.9765073,41.94384751,1291.516312
9.2900,100.5453633,42.15258838,1291.760059
9.2950,100.1097253,42.36289011,1292.007634
9.3000,99.67011271,42.57324571,1292.258372
9.3050,99.2254942,42.78396098,1292.513053
9.3100,98.77689937,42.9956639,1292.771234
9.3150,98.32483582,43.20996788,1293.033185
9.3200,97.8712566,43.4277381,1293.298303
9.3250,97.41651851,43.64744938,1293.565916
9.3300,96.96061311,43.86938747,1293.836178
9.3350,96.50464906,44.0925402,1294.108271
9.3400,96.04903333,44.31581048,1294.381584
9.3450,95.59406178,44.53944319,1294.65601
9.3500,95.14030163,44.76377591,1294.93143
9.3550,94.68885463,44.9875087,1295.206663
9.3600,94.24010866,45.21202353,1295.482037
9.3650,93.79513838,45.43586783,1295.75649
9.3700,93.35433586,45.6588778,1296.029586
9.3750,92.91689078,45.88089889,1296.301677
9.3800,92.48466434,46.10139574,1296.571724
9.3850,92.05809275,46.3197443,1296.839181
9.3900,91.63706308,46.53548304,1297.104032
9.3950,91.2219231,46.74813926,1297.365844
9.4000,90.81210653,46.9579589,1297.624922
9.4050,90.40840686,47.16511767,1297.880828
9.4100,90.01137033,47.36943217,1298.13315
9.4150,89.62045947,47.57054323,1298.382071
9.4200,89.23567681,47.76853698,1298.627548
9.4250,88.85749575,47.96299997,1298.869142
9.4300,88.48654049,48.15341167,1299.106224
9.4350,88.12246662,48.33978376,1299.338867
9.4400,87.76458626,48.52166815,1299.567271
9.4450,87.41253499,48.69950531,1299.791634
9.4500,87.06533627,48.87307703,1300.012426
9.4550,86.72373776,49.04165758,1300.228838
9.4600,86.38569236,49.20564301,1300.442079
9.4650,86.05232363,49.36575125,1300.651807
9.4700,85.72297406,49.52224429,1300.85845
9.4750,85.39731141,49.67492131,1301.062048
9.4800,85.07448923,49.82453056,1301.263464
9.4850,84.75249943,49.96954783,1301.463108
9.4900,84.43063397,50.11006651,1301.66136
9.4950,84.10920702,50.24617437,1301.858125
9.5000,83.78794789,50.37784881,1302.053644
9.5050,83.46627449,50.50440617,1302.247894
9.5100,83.14333823,50.62585722,1302.441289
9.5150,82.81922398,50.74257999,1302.633978
9.5200,82.49254755,50.85498476,1302.826875
9.5250,82.1629583,50.96213925,1303.019933
9.5300,81.83009215,51.06509763,1303.213572
9.5350,81.49396715,51.16300981,1303.407613
9.5400,81.15445511,51.25524782,1303.601845
9.5450,80.81142349,51.34137928,1303.796158
9.5500,80.46386979,51.4225394,1303.99162
9.5550,80.11107879,51.49884664,1304.188781
9.5600,79.75397027,51.56988897,1304.386891
9.5650,79.39265722,51.6362806,1304.585993
9.5700,79.02768178,51.69796423,1304.785786
9.5750,78.65970762,51.75598028,1304.986345
9.5800,78.28987807,51.80956925,1305.186925
9.5850,77.91691437,51.85956606,1305.38851
9.5900,77.54136029,51.90610218,1305.590891
9.5950,77.16406975,51.94934009,1305.793596
9.6000,76.78453639,51.9902797,1305.997471
9.6050,76.40372667,52.0290993,1306.201868
9.6100,76.02051761,52.06607084,1306.407814
9.6150,75.63678499,52.10136987,1306.61426
9.6200,75.25096258,52.13510731,1306.82235
9.6250,74.86416094,52.16871367,1307.031923
9.6300,74.47667142,52.20351666,1307.243353
9.6350,74.08924059,52.23924176,1307.456065
9.6400,73.70215153,52.27687806,1307.67023
9.6450,73.31663479,52.31677748,1307.885346
9.6500,72.93164926,52.35803804,1308.101706
9.6550,72.54847583,52.40157143,1308.318967
9.6600,72.16675242,52.44524195,1308.536486
9.6650,71.78669851,52.49017881,1308.75443
9.6700,71.40880789,52.53605988,1308.9724
9.6750,71.0329871,52.58243052,1309.19036
9.6800,70.65898062,52.62891107,1309.40821
9.6850,70.28670672,52.67644699,1309.626366
9.6900,69.91695605,52.72505041,1309.844333
9.6950,69.54964878,52.77440032,1310.062114
9.7000,69.18603462,52.82449747,1310.278879
9.7050,68.82641492,52.87537083,1310.494476
9.7100,68.4717267,52.92658097,1310.708111
9.7150,68.12199286,52.97894816,1310.919946
9.7200,67.77676742,53.0321386,1311.1302
9.7250,67.43648588,53.08630571,1311.338571
9.7300,67.09937181,53.1409663,1311.546053
9.7350,66.76445555,53.19579944,1311.753221
9.7400,66.43206652,53.25045472,1311.959635
9.7450,66.10205562,53.30429319,1312.165179
9.7500,65.77535387,53.35805533,1312.369517
9.7550,65.45050045,53.41230863,1312.573816
9.7600,65.12970708,53.46813842,1312.777059
9.7650,64.81180186,53.52484148,1312.979726
9.7700,64.49627936,53.58477482,1313.183045
9.7750,64.18316561,53.64753754,1313.386888
9.7800,63.87248819,53.7136052,1313.591394
9.7850,63.5653591,53.78371286,1313.796174
9.7900,63.26073671,53.85841735,1314.002212
9.7950,62.95771895,53.93854452,1314.210473
9.8000,62.65543981,54.02407877,1314.421497
9.8050,62.35308382,54.11665841,1314.636501
9.8100,62.05016769,54.21614621,1314.855733
9.8150,61.74527058,54.32240047,1315.080105
9.8200,61.43934465,54.43573873,1315.309245
9.8250,61.13145285,54.55575927,1315.543547
9.8300,60.82056235,54.68178354,1315.783551
9.8350,60.50590097,54.81375786,1316.029707
9.8400,60.18779208,54.951292,1316.281689
9.8450,59.86522057,55.0934728,1316.539883
9.8500,59.53767758,55.23845388,1316.803835
9.8550,59.20504678,55.38585088,1317.073432
9.8600,58.86739305,55.53532709,1317.348454
9.8650,58.52416326,55.68539486,1317.628945
9.8700,58.17437518,55.83482826,1317.914878
9.8750,57.81817875,55.9825183,1318.205755
9.8800,57.4544276,56.12656176,1318.501467
9.8850,57.08390754,56.2668151,1318.801396
9.8900,56.70676038,56.40299679,1319.10541
9.8950,56.32299151,56.53339882,1319.41286
9.9000,55.93337661,56.65780839,1319.722941
9.9050,55.53859618,56.7754156,1320.035029
9.9100,55.14057377,56.88569479,1320.347353
9.9150,54.73810959,56.98887584,1320.660889
9.9200,54.33250286,57.08394744,1320.974266
9.9250,53.92475859,57.17053048,1321.286749
9.9300,53.51616434,57.24773911,1321.596989
9.9350,53.10683581,57.31609097,1321.905124
9.9400,52.69835586,57.37446221,1322.209577
9.9450,52.29011868,57.42259402,1322.510575
9.9500,51.88398693,57.46088524,1322.806789
9.9550,51.47930405,57.48866129,1323.098484
9.9600,51.07750433,57.50640072,1323.384772
9.9650,50.6791472,57.51287448,1323.664655
9.9700,50.28468481,57.50815348,1323.937858
9.9750,49.89442853,57.4920367,1324.203897
9.9800,49.50985344,57.46497126,1324.461876
9.9850,49.13159957,57.42685361,1324.711305
9.9900,48.7594496,57.37635001,1324.951527
9.9950,48.39439724,57.31366475,1325.181849
10.0000,48.03666709,57.23855795,1325.401929
10.0050,47.68634692,57.15122409,1325.611768
10.0100,47.3434249,57.05164814,1325.811499
10.0150,47.00880033,56.93994262,1326.000444
10.0200,46.68321582,56.81702882,1326.17836
10.0250,46.36633025,56.68283013,1326.345478
10.0300,46.0601831,56.53887927,1326.500876
10.0350,45.76545013,56.38557667,1326.644172
10.0400,45.48254919,56.22396531,1326.775502
10.0450,45.21062213,56.05484233,1326.895977
10.0500,44.94992824,55.87774513,1327.005163
10.0550,44.70111712,55.69437994,1327.103326
10.0600,44.46287603,55.50417257,1327.191256
10.0650,44.23542644,55.30864959,1327.269497
10.0700,44.01991596,55.10762365,1327.337103
10.0750,43.81642666,54.90253272,1327.394467
10.0800,43.62451642,54.6938857,1327.44236
10.0850,43.44444569,54.48291426,1327.481088
10.0900,43.27607585,54.27038491,1327.511023
10.0950,43.1195255,54.05742195,1327.532554
10.1000,42.97415037,53.84443347,1327.546383
10.1050,42.84064476,53.63176546,1327.552143
10.1100,42.71866766,53.42047821,1327.550505
10.1150,42.608873,53.21116411,1327.541204
10.1200,42.51105779,53.00390497,1327.524363
10.1250,42.42474408,52.80027128,1327.501043
10.1300,42.35071318,52.60025824,1327.470626
10.1350,42.28856001,52.40446808,1327.433757
10.1400,42.23762452,52.21289553,1327.390961
10.1450,42.1981653,52.02663442,1327.342417
10.1500,42.1710151,51.8461387,1327.287721
10.1550,42.15600405,51.67128811,1327.226822
10.1600,42.15158352,51.50214593,1327.161171
10.1650,42.15829076,51.33818041,1327.089912
10.1700,42.17651241,51.18067423,1327.013431
10.1750,42.20525805,51.02913731,1326.932312
10.1800,42.24370182,50.88466555,1326.847624
10.1850,42.29177624,50.74711078,1326.759338
10.1900,42.34848897,50.61538392,1326.66771
10.1950,42.41318229,50.49056343,1326.573718
10.2000,42.48560458,50.37178683,1326.477343
10.2050,42.56508314,50.25996874,1326.379395
10.2100,42.65059782,50.15448928,1326.280478
10.2150,42.74146249,50.05413306,1326.180618
10.2200,42.83778532,49.95953267,1326.079893
10.2250,42.93813773,49.86985316,1325.979058
10.2300,43.04107646,49.78427431,1325.878925
10.2350,43.1462178,49.70240501,1325.779595
10.2400,43.25257048,49.62479748,1325.681955
10.2450,43.35981939,49.55091554,1325.586087
10.2500,43.46790733,49.4804755,1325.491983
10.2550,43.57593133,49.41311897,1325.400008
10.2600,43.6838006,49.34788801,1325.309802
10.2650,43.79083439,49.28493903,1325.221999
10.2700,43.89751186,49.22308115,1325.135629
10.2750,44.00442661,49.16264913,1325.050281
10.2800,44.11063173,49.10249273,1324.966045
10.2850,44.21569232,49.04087204,1324.882563
10.2900,44.32078571,48.97874796,1324.79926
10.2950,44.42456953,48.91484338,1324.716463
10.3000,44.5275106,48.84917321,1324.633882
10.3050,44.62978522,48.78079605,1324.550911
10.3100,44.73059415,48.711025,1324.468562
10.3150,44.83076025,48.63981353,1324.386156
10.3200,44.92983249,48.5664835,1324.303759
10.3250,45.02892712,48.49152037,1324.220681
10.3300,45.12656051,48.41383839,1324.137576
10.3350,45.22372351,48.33402888,1324.053814
10.3400,45.32008875,48.25279988,1323.97006
10.3450,45.41712288,48.16992189,1323.885057
10.3500,45.51346578,48.08552646,1323.799959
10.3550,45.60960152,48.00006652,1323.714568
10.3600,45.70570201,47.91390981,1323.628862
10.3650,45.8028272,47.82832006,1323.542527
10.3700,45.89951691,47.74273028,1323.456368
10.3750,45.9969575,47.65791871,1323.370007
10.3800,46.09500486,47.57351489,1323.283145
10.3850,46.19258933,47.48877471,1323.196398
10.3900,46.29092344,47.40452843,1323.109218
10.3950,46.38925573,47.31990003,1323.021825
10.4000,46.48830819,47.23561704,1322.934016
10.4050,46.58637563,47.15068679,1322.846701
10.4100,46.68415961,47.06512128,1322.759459
10.4150,46.78159478,46.97928927,1322.672466
10.4200,46.87699796,46.89364458,1322.587282
10.4250,46.97200648,46.80763006,1322.502383
10.4300,47.06654504,46.72175749,1322.418106
10.4350,47.16021777,46.6358866,1322.334732
10.4400,47.25386524,46.55082561,1322.251967
10.4450,47.34779313,46.46660578,1322.169715
10.4500,47.44040491,46.38246031,1322.088745
10.4550,47.53239077,46.29873524,1322.008794
10.4600,47.62386982,46.2151783,1321.929594
10.4650,47.71433835,46.13303529,1321.852169
10.4700,47.80312618,46.05139015,1321.776563
10.4750,47.89022167,45.97032467,1321.702754
10.4800,47.97639983,45.89026438,1321.630447
10.4850,48.06060768,45.81075596,1321.560233
10.4900,48.14394286,45.7328282,1321.491693
10.4950,48.22752405,45.6561075,1321.423753
10.5000,48.3109353,45.58162395,1321.35703
10.5050,48.39407303,45.50872189,1321.291388
10.5100,48.47698245,45.43793558,1321.22695
10.5150,48.56117998,45.37002142,1321.162913
10.5200,48.64597094,45.30441803,1321.099602
10.5250,48.73156283,45.24067634,1321.036626
10.5300,48.81879859,45.1797476,1320.973701
10.5350,48.90721096,45.12039076,1320.910709
10.5400,48.99678039,45.06120251,1320.847183
10.5450,49.08792558,45.0028846,1320.783019
10.5500,49.18029979,44.94510831,1320.718253
10.5550,49.27448445,44.88819217,1320.652656
10.5600,49.36987073,44.83227614,1320.586658
10.5650,49.46718418,44.77767993,1320.519891
10.5700,49.56646995,44.72518081,1320.452642
10.5750,49.66799582,44.67368296,1320.384175
10.5800,49.77323209,44.62478666,1320.314205
10.5850,49.88251358,44.5785985,1320.242477
10.5900,49.9952572,44.53409238,1320.169005
10.5950,50.11260912,44.49189752,1320.093243
10.6000,50.23396961,44.45103397,1320.015182
10.6050,50.35895586,44.41214516,1319.935366
10.6100,50.48855689,44.37313434,1319.852121
10.6150,50.62114639,44.33448693,1319.766707
10.6200,50.75761524,44.29644853,1319.678568
10.6250,50.89753146,44.25836199,1319.587762
10.6300,51.04182534,44.22012684,1319.493596
10.6350,51.1904882,44.18146535,1319.396013
10.6400,51.34410075,44.14195579,1319.294293
10.6450,51.50244648,44.10252046,1319.188934
10.6500,51.66603475,44.06256464,1319.079338
10.6550,51.83393758,44.02118447,1318.965884
10.6600,52.00624547,43.97796039,1318.848419
10.6650,52.18162646,43.93147397,1318.727328
10.6700,52.36133008,43.88141246,1318.601723
10.6750,52.54375905,43.82650419,1318.472295
10.6800,52.72912206,43.76790494,1318.339355
10.6850,52.91765293,43.70653841,1318.203148
10.6900,53.1092979,43.64096195,1318.063251
10.6950,53.30396253,43.57236134,1317.920239
10.7000,53.50094117,43.50106566,1317.774684
10.7050,53.70175579,43.42798828,1317.625971
10.7100,53.90621794,43.3528045,1317.474121
10.7150,54.11306007,43.27505865,1317.320013
10.7200,54.32428978,43.19409082,1317.161873
10.7250,54.53870646,43.11028743,1317.000927
10.7300,54.75584064,43.02238628,1316.83684
10.7350,54.97604753,42.92990646,1316.669156
10.7400,55.19891287,42.83231475,1316.497931
10.7450,55.42347089,42.72956328,1316.323863
10.7500,55.65121838,42.62131715,1316.145722
10.7550,55.88107982,42.50822253,1315.96455
10.7600,56.11392308,42.39038102,1315.779828
10.7650,56.35029463,42.26867742,1315.591389
10.7700,56.59097929,42.14278563,1315.398777
10.7750,56.83589046,42.01295041,1315.202177
10.7800,57.08526633,41.87946244,1315.001489
10.7850,57.34004226,41.74326579,1314.796656
10.7900,57.60035596,41.60423545,1314.587496
10.7950,57.86492717,41.46287017,1314.375166
10.8000,58.1350746,41.32010166,1314.15919
10.8050,58.41098304,41.17561397,1313.939319
10.8100,58.69325747,41.03047374,1313.715675
10.8150,58.98085995,40.88474629,1313.488992
10.8200,59.27357658,40.73889719,1313.25963
10.8250,59.57208576,40.59402138,1313.027578
10.8300,59.87587565,40.44964355,1312.793135
10.8350,60.18429576,40.30726316,1312.557371
10.8400,60.49790639,40.16807447,1312.320237
10.8450,60.81670387,40.03072233,1312.081388
10.8500,61.1400431,39.8960929,1311.84167
10.8550,61.46848052,39.7636304,1311.600412
10.8600,61.80225343,39.63373941,1311.357752
10.8650,62.14008105,39.50488608,1311.113944
10.8700,62.4827089,39.377497,1310.868632
10.8750,62.82955846,39.25152386,1310.622185
10.8800,63.17899679,39.1265983,1310.375434
10.8850,63.52997732,39.00261283,1310.12894
10.8900,63.88303248,38.87988237,1309.882551
10.8950,64.23692238,38.75754221,1309.636695
10.9000,64.59204117,38.6366073,1309.391396
10.9050,64.94831702,38.51503304,1309.145898
10.9100,65.30512254,38.39408643,1308.901149
10.9150,65.66272165,38.27258256,1308.656513
10.9200,66.02088506,38.15001826,1308.411891
10.9250,66.37913756,38.02641632,1308.167619
10.9300,66.73746924,37.90198978,1307.923685
10.9350,67.09448549,37.776898,1307.681047
10.9400,67.44966658,37.65044026,1307.439842
10.9450,67.80286577,37.52176319,1307.199767
10.9500,68.15441529,37.39164825,1306.960921
10.9550,68.50490503,37.25814401,1306.722217
10.9600,68.85281364,37.12241175,1306.485043
10.9650,69.1985665,36.9832911,1306.248686
10.9700,69.5404321,36.84178934,1306.014622
10.9750,69.87924529,36.6974749,1305.782054
10.9800,70.21534289,36.5500061,1305.550737
10.9850,70.54806208,36.39845172,1305.320667
10.9900,70.8777207,36.2435993,1305.091864
10.9950,71.2046201,36.08536118,1304.86406
11.0000,71.5283997,35.92296636,1304.637266
11.0050,71.8491189,35.75566217,1304.411096
11.0100,72.16633509,35.58445253,1304.186168
11.0150,72.48169969,35.40981911,1303.961574
11.0200,72.79435882,35.23263119,1303.738215
11.0250,73.10425086,35.05219885,1303.515691
11.0300,73.41205198,34.86897913,1303.293871
11.0350,73.71778279,34.68365793,1303.073035
11.0400,74.02118975,34.49563827,1302.853091
11.0450,74.32391617,34.30529625,1302.633125
11.0500,74.62513021,34.11368138,1302.414087
11.0550,74.92612186,33.92087029,1302.19514
11.0600,75.22644716,33.72679849,1301.97655
11.0650,75.52712372,33.53088424,1301.757672
11.0700,75.8277763,33.33433093,1301.538993
11.0750,76.12864252,33.13753433,1301.320539
11.0800,76.4296685,32.9408458,1301.102479
11.0850,76.73241077,32.74561283,1300.884385
11.0900,77.03643181,32.55200287,1300.666605
11.0950,77.34333055,32.36041585,1300.448412
11.1000,77.65166882,32.17062042,1300.230635
11.1050,77.96291491,31.98328306,1300.012628
11.1100,78.27629778,31.79848985,1299.794882
11.1150,78.59330073,31.61629159,1299.576589
11.1200,78.9143905,31.43685259,1299.357557
11.1250,79.23868463,31.26030634,1299.138453
11.1300,79.56680422,31.08611599,1298.918586
11.1350,79.8998435,30.91397694,1298.697264
11.1400,80.2359175,30.74269679,1298.475162
11.1450,80.57589747,30.57347932,1298.25215
11.1500,80.91938016,30.40507353,1298.028034
11.1550,81.26559167,30.23699832,1297.803124
11.1600,81.61433868,30.06947492,1297.577515
11.1650,81.96509384,29.90265759,1297.351568
11.1700,82.31733247,29.73588654,1297.125359
11.1750,82.67151651,29.56931225,1296.898805
11.1800,83.02738537,29.40246776,1296.671882
11.1850,83.38602697,29.2355514,1296.444195
11.1900,83.74693746,29.06911132,1296.216097
11.1950,84.10988113,28.90230447,1295.987504
11.2000,84.47521424,28.73595512,1295.758452
11.2050,84.84207275,28.57069394,1295.529691
11.2100,85.20994922,28.40634093,1295.301357
11.2150,85.57869237,28.24207402,1295.073302
11.2200,85.94732303,28.07713153,1294.845767
11.2250,86.31600049,27.91168559,1294.618636
11.2300,86.68370781,27.74591144,1294.392609
11.2350,87.05148732,27.57880023,1294.166587
11.2400,87.41882154,27.41057895,1293.940937
11.2450,87.78538209,27.240947,1293.715646
11.2500,88.15108691,27.06958898,1293.490697
11.2550,88.51545205,26.89621998,1293.266192
11.2600,88.87916135,26.71978353,1293.041433
11.2650,89.24115633,26.54103416,1292.817343
11.2700,89.60277237,26.35883635,1292.592752
11.2750,89.96316627,26.17287951,1292.368085
11.2800,90.32118425,25.98241333,1292.143647
11.2850,90.67759076,25.78760128,1291.919169
11.2900,91.03105997,25.58782069,1291.695087
11.2950,91.38116133,25.38235565,1291.471457
11.3000,91.72924815,25.1713362,1291.2476
11.3050,92.07534614,24.95533148,1291.023695
11.3100,92.4205188,24.73503256,1290.79947
11.3150,92.76427261,24.50982321,1290.575107
11.3200,93.10684936,24.28003648,1290.350578
11.3250,93.44974927,24.04613415,1290.125375
11.3300,93.79299739,23.80734505,1289.899259
11.3350,94.13726814,23.56507916,1289.672358
11.3400,94.48321107,23.31981321,1289.444517
11.3450,94.83018249,23.07068007,1289.215729
11.3500,95.1787195,22.81851363,1288.986028
11.3550,95.52981416,22.56249225,1288.754781
11.3600,95.88445583,22.30286225,1288.521453
11.3650,96.24238187,22.03977523,1288.286179
11.3700,96.60324972,21.77287011,1288.049047
11.3750,96.96804098,21.50180245,1287.809522
11.3800,97.33641075,21.22654518,1287.567778
11.3850,97.70731269,20.94543633,1287.32374
11.3900,98.08098514,20.65924357,1287.077578
11.3950,98.45628177,20.36777407,1286.829784
11.4000,98.83382761,20.07091173,1286.579988
11.4050,99.21251104,19.76932346,1286.329074
11.4100,99.59258594,19.46233273,1286.076699
11.4150,99.97326899,19.1503935,1285.823337
11.4200,100.3547797,18.83471754,1285.569347
11.4250,100.7369331,18.51486894,1285.314653
11.4300,101.1192534,18.19229062,1285.059956
11.4350,101.5016599,17.8669291,1284.805263
11.4400,101.8860105,17.54045022,1284.550287
11.4450,102.2706721,17.21202428,1284.295538
11.4500,102.6574049,16.88230748,1284.040523
11.4550,103.0456194,16.55301124,1283.78604
11.4600,103.4361529,16.22346009,1283.53152
11.4650,103.8294308,15.89311286,1283.276729
11.4700,104.2258242,15.56362661,1283.021817
11.4750,104.6245859,15.23463051,1282.767109
11.4800,105.0259449,14.90543869,1282.512228
11.4850,105.4300841,14.57610871,1282.257033
11.4900,105.8357703,14.2461202,1282.001834
11.4950,106.2438698,13.91609971,1281.746465
11.5000,106.6535375,13.58419081,1281.490739
11.5050,107.0653152,13.25100595,1281.234448
11.5100,107.4789983,12.91538924,1280.977447
11.5150,107.8947518,12.57917655,1280.720123
11.5200,108.311906,12.24154601,1280.462567
11.5250,108.7307008,11.90341873,1280.204923
11.5300,109.1506057,11.56318446,1279.946949
11.5350,109.5709677,11.22197264,1279.689373
11.5400,109.9928372,10.87853929,1279.431408
11.5450,110.4157752,10.53321234,1279.173419
11.5500,110.8388364,10.18633246,1278.915873
11.5550,111.262584,9.83822922,1278.658594
11.5600,111.686623,9.488830373,1278.401687
11.5650,112.1107318,9.138008304,1278.145133
11.5700,112.5347928,8.785411469,1277.888988
11.5750,112.9586885,8.432570919,1277.633616
11.5800,113.3827991,8.079381764,1277.378989
11.5850,113.8072683,7.726810988,1277.125243
11.5900,114.2319651,7.375612653,1276.872669
11.5950,114.6577681,7.026584688,1276.62112
11.6000,115.0843067,6.680242327,1276.37099
11.6050,115.5111697,6.337741284,1276.12269
11.6100,115.9378635,5.997929867,1275.876094
11.6150,116.3650877,5.661807632,1275.63108
11.6200,116.7928795,5.330317782,1275.38775
11.6250,117.2212618,5.0033337,1275.145942
11.6300,117.650226,4.682819306,1274.906054
11.6350,118.0791337,4.368303643,1274.668034
11.6400,118.5077324,4.059997374,1274.431923
11.6450,118.9365246,3.758690567,1274.197684
11.6500,119.3650456,3.462354775,1273.964925
11.6550,119.7905834,3.17125206,1273.7346
11.6600,120.2113185,2.885036053,1273.507277
11.6650,120.6255003,2.603061293,1273.283274
11.6700,121.032916,2.32633792,1273.062769
11.6750,121.4323212,2.054981723,1272.846243
11.6800,121.8236159,1.788216979,1272.63355
11.6850,122.20584,1.526517178,1272.424909
11.6900,122.5772725,1.270819959,1272.221124
11.6950,122.9372404,1.02198755,1272.02246
11.7000,123.2862004,0.7807018956,1271.828841
11.7050,123.6238885,0.5477382984,1271.640404
11.7100,123.9502138,0.3233806932,1271.457189
11.7150,124.2648315,0.1086729285,1271.279609
11.7200,124.567196,-0.09701233217,1271.107712
11.7250,124.8583498,-0.2930228867,1270.941389
11.7300,125.1376724,-0.479867759,1270.78079
11.7350,125.4051778,-0.6559078645,1270.626191
11.7400,125.6594292,-0.8221491311,1270.477819
11.7450,125.9011303,-0.9784197109,1270.335391
11.7500,126.130351,-1.124770198,1270.198869
11.7550,126.3476047,-1.263220844,1270.067689
11.7600,126.5536185,-1.393095911,1269.94182
11.7650,126.7501993,-1.51371313,1269.820857
11.7700,126.9373648,-1.627218284,1269.704425
11.7750,127.1165728,-1.733621851,1269.591989
11.7800,127.2884105,-1.833160256,1269.483464
11.7850,127.4539555,-1.927694737,1269.378138
11.7900,127.6135165,-2.016218798,1269.276285
11.7950,127.7669696,-2.100165399,1269.177616
11.8000,127.9152747,-2.179074326,1269.081973
11.8050,128.0588312,-2.253259532,1268.98919
11.8100,128.1985607,-2.324042458,1268.898706
11.8150,128.3346993,-2.393136766,1268.810135
11.8200,128.4689733,-2.458731059,1268.723239
11.8250,128.6008154,-2.523215438,1268.637663
11.8300,128.7308645,-2.585939103,1268.553195
11.8350,128.8597385,-2.648646234,1268.469285
11.8400,128.9866656,-2.710051756,1268.386317
11.8450,129.1116885,-2.77134866,1268.303936
11.8500,129.2352662,-2.833210222,1268.221754
11.8550,129.3570994,-2.895345032,1268.139966
11.8600,129.4772177,-2.957543783,1268.058546
11.8650,129.5971838,-3.021328063,1267.976801
11.8700,129.715809,-3.08579738,1267.895186
11.8750,129.8333156,-3.154329272,1267.812961
11.8800,129.949086,-3.227256874,1267.730182
11.8850,130.0634243,-3.30479754,1267.646792
11.8900,130.1768835,-3.387798995,1267.562396
11.8950,130.2890019,-3.476541471,1267.477071
11.9000,130.3994776,-3.571622257,1267.390814
11.9050,130.5086726,-3.673818031,1267.303318
11.9100,130.6162838,-3.781456616,1267.214919
11.9150,130.7212357,-3.895216524,1267.125647
11.9200,130.8239885,-4.013832721,1267.035547
11.9250,130.9242683,-4.137163492,1266.944728
11.9300,131.0211442,-4.265131664,1266.853368
11.9350,131.1151165,-4.397281303,1266.76139
11.9400,131.2056877,-4.533709016,1266.668854
11.9450,131.2914204,-4.672740612,1266.576424
11.9500,131.3737147,-4.812291081,1266.484044
11.9550,131.4544435,-4.951766341,1266.391285
11.9600,131.5348396,-5.089878664,1266.298148
11.9650,131.6148997,-5.225666216,1266.204773
11.9700,131.6954864,-5.358401562,1266.111138
11.9750,131.7762544,-5.486699884,1266.017598
11.9800,131.8577625,-5.609195772,1265.924273
11.9850,131.9408335,-5.723980714,1265.831536
11.9900,132.0265984,-5.831800886,1265.738813
11.9950,132.1153088,-5.932798288,1265.646201
12.0000,132.2060429,-6.027091802,1265.554058
12.0050,132.2988373,-6.116050515,1265.462066
12.0100,132.3931756,-6.199628262,1265.370427
12.0150,132.4883649,-6.278980244,1265.279196
12.0200,132.5852998,-6.354305914,1265.188169
12.0250,132.6841298,-6.425983329,1265.097188
12.0300,132.7850268,-6.494534957,1265.006153
12.0350,132.8881519,-6.561190595,1264.914853
12.0400,132.9953476,-6.625501475,1264.822845
12.0450,133.1073435,-6.68828152,1264.729881
12.0500,133.2235678,-6.749023683,1264.6361
12.0550,133.3446124,-6.807743472,1264.541266
12.0600,133.4701433,-6.865808136,1264.445215
12.0650,133.6002795,-6.923730438,1264.347737
12.0700,133.7350281,-6.981653274,1264.248801
12.0750,133.874494,-7.041322974,1264.148
12.0800,134.0177515,-7.103956604,1264.045247
12.0850,134.1636802,-7.169424853,1263.940722
12.0900,134.3125568,-7.239728609,1263.833942
12.0950,134.4638034,-7.315096516,1263.724823
12.1000,134.616851,-7.397223401,1263.613267
12.1050,134.7710344,-7.487315428,1263.499225
12.1100,134.9261513,-7.585007605,1263.38269
12.1150,135.0826332,-7.69095909,1263.263538
12.1200,135.2397699,-7.806599018,1263.14176
12.1250,135.3977517,-7.931255047,1263.017513
12.1300,135.5564506,-8.064689266,1262.890908
12.1350,135.7146652,-8.206801212,1262.762331
12.1400,135.8724701,-8.358434346,1262.63166
12.1450,136.0299223,-8.518599501,1262.499097
12.1500,136.1871764,-8.687755345,1262.364568
12.1550,136.3431198,-8.864518974,1262.228639
12.1600,136.4986396,-9.04934719,1262.091071
12.1650,136.6526994,-9.240090775,1261.952433
12.1700,136.8045668,-9.43674057,1261.812891
12.1750,136.9545934,-9.63673797,1261.672897
12.1800,137.1037396,-9.839069493,1261.532297
12.1850,137.2510072,-10.04260608,1261.391544
12.1900,137.3955453,-10.24723139,1261.250941
12.1950,137.5375879,-10.45137471,1261.110666
12.2000,137.6770832,-10.65406188,1260.970888
12.2050,137.8136265,-10.85463718,1260.831901
12.2100,137.9483686,-11.05260418,1260.693574
12.2150,138.0818552,-11.24751766,1260.555881
12.2200,138.2130512,-11.43898976,1260.419112
12.2250,138.341713,-11.62623279,1260.283479
12.2300,138.4689568,-11.80904804,1260.148738
12.2350,138.5942313,-11.98880579,1260.0148
12.2400,138.7180454,-12.16387264,1259.881869
12.2450,138.8418943,-12.33489765,1259.749516
12.2500,138.9651536,-12.50075937,1259.618149
12.2550,139.0875495,-12.66229671,1259.48776
12.2600,139.2102053,-12.81855256,1259.358206
12.2650,139.3340356,-12.96891092,1259.229605
12.2700,139.4599897,-13.11325601,1259.101719
12.2750,139.5883216,-13.25167567,1258.974537
12.2800,139.7201586,-13.38403407,1258.847796
12.2850,139.8554838,-13.51079007,1258.721401
12.2900,139.9941261,-13.63109701,1258.595544
12.2950,140.1359605,-13.7442478,1258.470299
12.3000,140.2816883,-13.8518888,1258.345135
12.3050,140.4319852,-13.9528367,1258.220084
12.3100,140.5869698,-14.04658832,1258.095275
12.3150,140.7466172,-14.13471575,1257.970365
12.3200,140.909629,-14.21777803,1257.845409
12.3250,141.0744377,-14.29611417,1257.720679
12.3300,141.2418294,-14.36977171,1257.596034
12.3350,141.4118613,-14.44008369,1257.471291
12.3400,141.5832249,-14.50708406,1257.346792
12.3450,141.7546362,-14.57237583,1257.222534
12.3500,141.9259045,-14.63557338,1257.098572
12.3550,142.09679,-14.69812552,1256.974705
12.3600,142.2671176,-14.75993674,1256.850952
12.3650,142.4360385,-14.82231902,1256.727269
12.3700,142.6023754,-14.88563844,1256.603778
12.3750,142.7664779,-14.94902424,1256.480517
12.3800,142.9284519,-15.01258543,1256.357511
12.3850,143.0877948,-15.07674356,1256.234949
12.3900,143.2449757,-15.1415716,1256.112667
12.3950,143.3997737,-15.20674914,1255.990944
12.4000,143.5524393,-15.27279697,1255.869597
12.4050,143.7012017,-15.33892814,1255.749041
12.4100,143.84594,-15.40549001,1255.629336
12.4150,143.9852151,-15.47233416,1255.510567
12.4200,144.1187099,-15.53847564,1255.392978
12.4250,144.245535,-15.60413371,1255.276607
12.4300,144.3645394,-15.66923327,1255.161702
12.4350,144.475567,-15.73428028,1255.048059
12.4400,144.5778948,-15.79839663,1254.9359
12.4450,144.6716064,-15.86247424,1254.825122
12.4500,144.7555653,-15.92638978,1254.715908
12.4550,144.8300941,-15.99126561,1254.608075
12.4600,144.8944759,-16.0564154,1254.501857
12.4650,144.9491816,-16.12276069,1254.397148
12.4700,144.9944303,-16.18978318,1254.293994
12.4750,145.0310099,-16.25632098,1254.19239
12.4800,145.0581235,-16.32211966,1254.092626
12.4850,145.0775443,-16.3880798,1253.994253
12.4900,145.0902657,-16.45247303,1253.897196
12.4950,145.0973853,-16.51564776,1253.801284
12.5000,145.0995656,-16.57652672,1253.706529
12.5050,145.0992064,-16.63447854,1253.612535
12.5100,145.0962888,-16.68909768,1253.51944
12.5150,145.0915906,-16.73982114,1253.427194
12.5200,145.0872101,-16.78744368,1253.335344
12.5250,145.0836985,-16.83157042,1253.243893
12.5300,145.0808803,-16.8723502,1253.152865
12.5350,145.0809332,-16.90827278,1253.062175
12.5400,145.0848933,-16.93995057,1252.971589
12.5450,145.0938155,-16.96771287,1252.880858
12.5500,145.1061785,-16.99248017,1252.790181
12.5550,145.1242871,-17.01369446,1252.699135
12.5600,145.1477222,-17.03268945,1252.607682
12.5650,145.1777039,-17.05001413,1252.515476
12.5700,145.2136415,-17.06605254,1252.422623
12.5750,145.2566534,-17.08191093,1252.328825
12.5800,145.3060513,-17.09791867,1252.234172
12.5850,145.3620124,-17.11533864,1252.138545
12.5900,145.4252274,-17.13623604,1252.041602
12.5950,145.496285,-17.1612801,1251.943286
12.6000,145.5759011,-17.18955035,1251.843723
12.6050,145.6634771,-17.22273942,1251.742921
12.6100,145.7593643,-17.2618877,1251.640627
12.6150,145.863573,-17.30591756,1251.537115
12.6200,145.9762405,-17.35542111,1251.432309
12.6250,146.0993235,-17.40983399,1251.326006
12.6300,146.2318163,-17.47146849,1251.217933
12.6350,146.3737368,-17.53914075,1251.10826
12.6400,146.5254822,-17.61358244,1250.99679
12.6450,146.6866075,-17.69334948,1250.883785
12.6500,146.8561895,-17.78075355,1250.769091
12.6550,147.0340468,-17.87414218,1250.652896
12.6600,147.2184538,-17.97365901,1250.535525
12.6650,147.4079788,-18.07807184,1250.41724
12.6700,147.6021596,-18.1869101,1250.298259
12.6750,147.7986947,-18.30062941,1250.178916
12.6800,147.9973337,-18.41821761,1250.05932
12.6850,148.1959011,-18.53963422,1249.939754
12.6900,148.3926076,-18.6642897,1249.820618
12.6950,148.5865154,-18.79234235,1249.701981
12.7000,148.7752165,-18.92192974,1249.584519
12.7050,148.9587757,-19.05436856,1249.468036
12.7100,149.135223,-19.18849872,1249.353007
12.7150,149.303135,-19.32344539,1249.239771
12.7200,149.4612562,-19.46031018,1249.128379
12.7250,149.6083693,-19.59870407,1249.019007
12.7300,149.7436914,-19.73895714,1248.91172
12.7350,149.8669699,-19.88032044,1248.806644
12.7400,149.9767185,-20.02305006,1248.703975
12.7450,150.0718818,-20.16694941,1248.603816
12.7500,150.1533167,-20.31086773,1248.506164
12.7550,150.2201997,-20.45429948,1248.411103
12.7600,150.2725207,-20.59803411,1248.318541
12.7650,150.3102646,-20.74144058,1248.228372
12.7700,150.334661,-20.88388455,1248.140531
12.7750,150.3455202,-21.02531451,1248.055018
12.7800,150.3434962,-21.164649,1247.971841
12.7850,150.3291094,-21.30171644,1247.890879
12.7900,150.3037557,-21.43644275,1247.812028
12.7950,150.2672267,-21.56822905,1247.735346
12.8000,150.2216742,-21.69707437,1247.660549
12.8050,150.1667245,-21.82347615,1247.587587
12.8100,150.1044724,-21.94812103,1247.516001
12.8150,150.0363809,-22.06972621,1247.445837
12.8200,149.9627597,-22.18895333,1247.37696
12.8250,149.8845508,-22.30568526,1247.309226
12.8300,149.8043011,-22.4205268,1247.242247
12.8350,149.7220211,-22.53376875,1247.176037
12.8400,149.6386038,-22.64577924,1247.110426
12.8450,149.5541147,-22.7574369,1247.045319
12.8500,149.4715064,-22.86898221,1246.980336
12.8550,149.3901016,-22.98086498,1246.91561
12.8600,149.3118834,-23.09173882,1246.850999
12.8650,149.2370347,-23.20294885,1246.786383
12.8700,149.166842,-23.31514798,1246.721531
12.8750,149.1018645,-23.42714296,1246.656477
12.8800,149.0431903,-23.54007026,1246.590959
12.8850,148.9915192,-23.65357876,1246.524901
12.8900,148.9479695,-23.7667664,1246.458239
12.8950,148.913696,-23.881203,1246.390655
12.9000,148.8877337,-23.99657284,1246.322256
12.9050,148.8699053,-24.11336278,1246.252897
12.9100,148.8596721,-24.23020587,1246.182842
12.9150,148.8573221,-24.34814627,1246.11186
12.9200,148.8630107,-24.46674862,1246.039977
12.9250,148.8749522,-24.58641581,1245.967361
12.9300,148.8930446,-24.70577188,1245.894217
12.9350,148.9161826,-24.8258152,1245.82053
12.9400,148.9422409,-24.9470273,1245.74654
12.9450,148.9713912,-25.06890397,1245.672118
12.9500,149.0018394,-25.19089064,1245.597663
12.9550,149.0332917,-25.31233864,1245.523304
12.9600,149.0640441,-25.43409604,1245.449056
12.9650,149.0938423,-25.55639737,1245.375078
12.9700,149.1212739,-25.67910852,1245.301483
12.9750,149.1456399,-25.80152191,1245.228467
12.9800,149.1654721,-25.92331727,1245.15639
12.9850,149.1800749,-26.04435619,1245.085305
12.9900,149.1894689,-26.16386748,1245.015353
12.9950,149.193024,-26.28158135,1244.946623
13.0000,149.1901857,-26.39780145,1244.879308
13.0050,149.1804689,-26.51155918,1244.813536
13.0100,149.1641371,-26.62312456,1244.749295
13.0150,149.1408442,-26.73202125,1244.686748
13.0200,149.1108715,-26.83823593,1244.625847
13.0250,149.0744435,-26.94048082,1244.566815
13.0300,149.0319319,-27.04014368,1244.509418
13.0350,148.9835501,-27.13579793,1244.45376
13.0400,148.9302372,-27.22830141,1244.399754
13.0450,148.872573,-27.31669487,1244.347519
13.0500,148.8107586,-27.40088208,1244.297105
13.0550,148.7451092,-27.48204465,1244.24847
13.0600,148.6768333,-27.55809987,1244.201802
13.0650,148.6059307,-27.62980098,1244.157113
13.0700,148.5319193,-27.6969388,1244.114594
13.0750,148.4549975,-27.75973218,1244.074263
13.0800,148.3761472,-27.81883477,1244.035961
13.0850,148.2948987,-27.87247816,1244.00005
13.0900,148.2109477,-27.92093085,1243.966492
13.0950,148.1244649,-27.96480059,1243.935336
13.1000,148.0351391,-28.00286469,1243.906725
13.1050,147.9435241,-28.03431619,1243.880819
13.1100,147.8486202,-28.05943859,1243.857741
13.1150,147.7498858,-28.07752083,1243.837653
13.1200,147.6484788,-28.08872645,1243.82039
13.1250,147.5451848,-28.09229974,1243.805807
13.1300,147.4388317,-28.08823187,1243.794118
13.1350,147.3314659,-28.07638481,1243.784962
13.1400,147.2227708,-28.05782566,1243.778212
13.1450,147.1151163,-28.03105124,1243.773696
13.1500,147.0088453,-27.99655808,1243.771281
13.1550,146.9061736,-27.95545561,1243.770431
13.1600,146.8078548,-27.9090752,1243.770917
13.1650,146.71502,-27.85754811,1243.772478
13.1700,146.629045,-27.80124622,1243.774896
13.1750,146.5510041,-27.7414827,1243.777828
13.1800,146.4815288,-27.67731209,1243.781304
13.1850,146.422599,-27.6101196,1243.784854
13.1900,146.3736082,-27.54056026,1243.788526
13.1950,146.3359677,-27.46807471,1243.792044
13.2000,146.3103113,-27.39420381,1243.795312
13.2050,146.2981637,-27.31743776,1243.798248
13.2100,146.2980316,-27.2407842,1243.800821
13.2150,146.3107508,-27.16372913,1243.802981
13.2200,146.3348467,-27.08659195,1243.804961
13.2250,146.3702415,-27.01082942,1243.806649
13.2300,146.4152135,-26.93572651,1243.808316
13.2350,146.4694087,-26.86116034,1243.810089
13.2400,146.5317473,-26.78832702,1243.811981
13.2450,146.6007511,-26.7170614,1243.814262
13.2500,146.6753766,-26.64852025,1243.816895
13.2550,146.753024,-26.58398297,1243.82013
13.2600,146.8326317,-26.52220819,1243.824325
13.2650,146.9128072,-26.46333899,1243.829577
13.2700,146.9932302,-26.40780262,1243.835963
13.2750,147.0727017,-26.35571051,1243.843594
13.2800,147.1503574,-26.30773082,1243.852518
13.2850,147.2272748,-26.26323286,1243.862744
13.2900,147.3015748,-26.22333574,1243.874371
13.2950,147.3738719,-26.18754646,1243.887512
13.3000,147.4443433,-26.15711012,1243.901902
13.3050,147.5137158,-26.13086394,1243.917581
13.3100,147.580418,-26.10877865,1243.934921
13.3150,147.6457992,-26.09192266,1243.953623
13.3200,147.7082434,-26.0787457,1243.974065
13.3250,147.7682092,-26.07073289,1243.995993
13.3300,147.8257567,-26.06610837,1244.01966
13.3350,147.8800997,-26.06509431,1244.045255
13.3400,147.931508,-26.06651537,1244.072764
13.3450,147.979944,-26.07059209,1244.102186
13.3500,148.0236177,-26.07811121,1244.133668
13.3550,148.0628751,-26.0875118,1244.167283
13.3600,148.0954462,-26.10010079,1244.203115
13.3650,148.1209014,-26.11382919,1244.241514
13.3700,148.1389619,-26.12956014,1244.282234
13.3750,148.1481244,-26.14679953,1244.325607
13.3800,148.148128,-26.1648596,1244.371774
13.3850,148.1386281,-26.18475051,1244.42059
13.3900,148.1184947,-26.20487747,1244.472505
13.3950,148.0881097,-26.22570235,1244.52733
13.4000,148.0479573,-26.24798884,1244.584918
13.4050,147.9977098,-26.27169058,1244.645289
13.4100,147.9384944,-26.29570428,1244.708346
13.4150,147.8711321,-26.32133045,1244.77385
13.4200,147.7955445,-26.34754862,1244.841885
13.4250,147.7115933,-26.37494269,1244.912491
13.4300,147.6224685,-26.40306148,1244.985287
13.4350,147.5286164,-26.43243579,1245.060058
13.4400,147.4312065,-26.46136904,1245.136883
13.4450,147.3307475,-26.49070335,1245.215671
13.4500,147.2284526,-26.52083868,1245.296079
13.4550,147.124671,-26.55073859,1245.378198
13.4600,147.0199291,-26.57969334,1245.461896
13.4650,146.9152895,-26.60656941,1245.547143
13.4700,146.8116657,-26.63169646,1245.633674
13.4750,146.7096818,-26.65496203,1245.721345
13.4800,146.6097292,-26.67612955,1245.810091
13.4850,146.5121578,-26.6957637,1245.899707
13.4900,146.4178695,-26.7134062,1245.99006
13.4950,146.3267343,-26.73007023,1246.081042
13.5000,146.2385034,-26.74431491,1246.172769
13.5050,146.1528279,-26.75828208,1246.265106
13.5100,146.071104,-26.7714252,1246.357825
13.5150,145.9922236,-26.783456,1246.451112
13.5200,145.9176238,-26.79443579,1246.544657
13.5250,145.8482766,-26.80417831,1246.638313
13.5300,145.7860532,-26.81340941,1246.731701
13.5350,145.7301317,-26.82334351,1246.824751
13.5400,145.6819109,-26.83270298,1246.91736
13.5450,145.6423422,-26.84308303,1247.009181
13.5500,145.6122375,-26.85273185,1247.100214
13.5550,145.591544,-26.86175288,1247.190442
13.5600,145.5818807,-26.87057495,1247.27943
13.5650,145.5840499,-26.87971407,1247.367069
13.5700,145.5983372,-26.88840411,1247.453269
13.5750,145.624229,-26.89680653,1247.538024
13.5800,145.6621891,-26.90586057,1247.621103
13.5850,145.7111951,-26.91507657,1247.702598
13.5900,145.7710733,-26.92445884,1247.782553
13.5950,145.841297,-26.9343494,1247.860915
13.6000,145.9203833,-26.94350924,1247.937995
13.6050,146.0074452,-26.95374029,1248.013774
13.6100,146.103811,-26.96487724,1248.087886
13.6150,146.2069263,-26.97604546,1248.160825
13.6200,146.317354,-26.98696113,1248.232592
13.6250,146.4332023,-26.99768946,1248.30353
13.6300,146.5538684,-27.00802587,1248.373698
13.6350,146.6800942,-27.01828516,1248.442988
13.6400,146.8106035,-27.02886634,1248.511609
13.6450,146.9455665,-27.03949586,1248.579599
13.6500,147.0846301,-27.04863994,1248.64719
13.6550,147.2273268,-27.05759075,1248.714301
13.6600,147.3738125,-27.06488876,1248.781053
13.6650,147.5246573,-27.07188131,1248.847196
13.6700,147.6793535,-27.07801422,1248.912983
13.6750,147.8392594,-27.08229467,1248.978246
13.6800,148.002742,-27.08544995,1249.043121
13.6850,148.1691483,-27.08805481,1249.107581
13.6900,148.3395859,-27.0906102,1249.171435
13.6950,148.5126743,-27.09295034,1249.234831
13.7000,148.6879797,-27.0947127,1249.297957
13.7050,148.8648274,-27.09616662,1249.360902
13.7100,149.042808,-27.09639154,1249.423926
13.7150,149.2212675,-27.0955949,1249.487102
13.7200,149.4003174,-27.09509119,1249.550337
13.7250,149.5799711,-27.09441953,1249.61374
13.7300,149.7575915,-27.09354335,1249.677716
13.7350,149.9327671,-27.0930143,1249.742332
13.7400,150.1060334,-27.09196637,1249.80759
13.7450,150.2760662,-27.09106543,1249.873538
13.7500,150.4430874,-27.08891298,1249.940222
13.7550,150.6069303,-27.08641762,1250.007534
