type,name,time_units,begin_time,frequency,count,units
signal_3d,"Noraxon MyoMotion-Trajectories-Medial humeral epicondyle RT","s",0.0000,200,5088,"mm"

time,x,y,z
0.0000,171.4041748,10.22212573,1239.02357
0.0050,171.3855157,10.20970658,1239.020516
0.0100,171.3668549,10.1972894,1239.017463
0.0150,171.3481924,10.18487418,1239.014412
0.0200,171.3265964,10.17174235,1239.01164
0.0250,171.3020379,10.15795637,1239.009237
0.0300,171.2745992,10.14354709,1239.007276
0.0350,171.2444868,10.12850686,1239.005805
0.0400,171.2120351,10.11278799,1239.004849
0.0450,171.1777058,10.09630725,1239.004401
0.0500,171.1420826,10.07895394,1239.004429
0.0550,171.1058512,10.06059682,1239.004877
0.0600,171.0697666,10.04108893,1239.005663
0.0650,171.0346204,10.02027416,1239.006687
0.0700,171.0012155,9.997994728,1239.007836
0.0750,170.9703411,9.974098103,1239.008986
0.0800,170.9427447,9.948445327,1239.010006
0.0850,170.9191034,9.920922182,1239.010767
0.0900,170.9000046,9.891453239,1239.011146
0.0950,170.8859306,9.860014327,1239.011028
0.1000,170.8772443,9.826638299,1239.010317
0.1050,170.874175,9.791417416,1239.008932
0.1100,170.876809,9.75450606,1239.006816
0.1150,170.8850854,9.716119582,1239.003933
0.1200,170.8987986,9.676527034,1239.000273
0.1250,170.9176068,9.636043694,1238.99585
0.1300,170.9410469,9.595027615,1238.990699
0.1350,170.9685581,9.553875322,1238.984878
0.1400,170.9995069,9.513009995,1238.978462
0.1450,171.0332082,9.472861296,1238.97154
0.1500,171.0689462,9.433840381,1238.964208
0.1550,171.1134245,9.354591935,1238.948961
0.1600,171.1578493,9.276629335,1238.933669
0.1650,171.2017985,9.201156994,1238.918545
0.1700,171.2456179,9.127867527,1238.903545
0.1750,171.2874578,9.056064326,1238.888609
0.1800,171.3273552,8.986744844,1238.874001
0.1850,171.3657247,8.918978071,1238.859469
0.1900,171.4017835,8.853282206,1238.84523
0.1950,171.434522,8.789647183,1238.83142
0.2000,171.4656141,8.7274868,1238.817741
0.2050,171.4954354,8.667583618,1238.804417
0.2100,171.5236731,8.608833898,1238.79119
0.2150,171.5487231,8.5521147,1238.778475
0.2200,171.5725656,8.497178399,1238.766066
0.2250,171.5942432,8.443214781,1238.753994
0.2300,171.6147902,8.391008662,1238.742253
0.2350,171.6330167,8.339411749,1238.730824
0.2400,171.6502145,8.288650168,1238.719567
0.2450,171.6662452,8.238552091,1238.708592
0.2500,171.6820343,8.189349693,1238.697752
0.2550,171.6976071,8.140365986,1238.686966
0.2600,171.7133777,8.092454735,1238.676424
0.2650,171.72927,8.044474867,1238.665799
0.2700,171.7449094,7.99680835,1238.65537
0.2750,171.7604882,7.948397901,1238.644894
0.2800,171.7750692,7.900109081,1238.634656
0.2850,171.7894385,7.851714756,1238.624484
0.2900,171.8039273,7.80367003,1238.614619
0.2950,171.8193462,7.756285602,1238.605024
0.3000,171.8353377,7.709481364,1238.595806
0.3050,171.8517325,7.663225726,1238.586928
0.3100,171.8686218,7.616473226,1238.578222
0.3150,171.8863349,7.570207487,1238.569931
0.3200,171.9056862,7.52437239,1238.56191
0.3250,171.9262148,7.478604936,1238.554217
0.3300,171.9474197,7.433443675,1238.546966
0.3350,171.9700411,7.387976085,1238.539946
0.3400,171.9936407,7.343272298,1238.533346
0.3450,172.0198572,7.298829977,1238.526946
0.3500,172.046725,7.254346218,1238.520833
0.3550,172.0752367,7.209894353,1238.514818
0.3600,172.105371,7.166130585,1238.509159
0.3650,172.1375741,7.122947353,1238.503755
0.3700,172.1713184,7.080593236,1238.49863
0.3750,172.2068982,7.039177072,1238.493825
0.3800,172.2440161,6.998763127,1238.489376
0.3850,172.2826507,6.959480206,1238.485244
0.3900,172.3225395,6.922043564,1238.481725
0.3950,172.3632956,6.886161966,1238.478685
0.4000,172.4035392,6.851556888,1238.476265
0.4050,172.4429995,6.819403011,1238.474736
0.4100,172.4814818,6.788950219,1238.473935
0.4150,172.5195784,6.759988783,1238.473884
0.4200,172.5571564,6.734253661,1238.474891
0.4250,172.5932595,6.710406206,1238.476831
0.4300,172.6268571,6.689755449,1238.479894
0.4350,172.6585497,6.670905611,1238.483805
0.4400,172.6877002,6.654068897,1238.488663
0.4450,172.7140245,6.640644518,1238.494778
0.4500,172.7368371,6.629214899,1238.501871
0.4550,172.756727,6.61913295,1238.509699
0.4600,172.7727146,6.611855606,1238.51861
0.4650,172.7858981,6.606258527,1238.528213
0.4700,172.7952647,6.603245842,1238.538776
0.4750,172.8021872,6.601596125,1238.550008
0.4800,172.8057289,6.60225554,1238.562065
0.4850,172.8058782,6.60497094,1238.574934
0.4900,172.8030401,6.609293982,1238.588468
0.4950,172.7971794,6.614595597,1238.602608
0.5000,172.7884302,6.621134967,1238.617431
0.5050,172.7748513,6.628540255,1238.633002
0.5100,172.7579351,6.636009502,1238.649155
0.5150,172.7378914,6.642991639,1238.665735
0.5200,172.713275,6.649290477,1238.682799
0.5250,172.6855649,6.655681991,1238.700422
0.5300,172.6550149,6.660321373,1238.718243
0.5350,172.6211011,6.6639867,1238.736538
0.5400,172.5840276,6.665346303,1238.755067
0.5450,172.5446049,6.665611293,1238.774031
0.5500,172.5024588,6.663499488,1238.793187
0.5550,172.4577795,6.658409953,1238.812428
0.5600,172.4119739,6.650475116,1238.831761
0.5650,172.3648469,6.639652886,1238.851213
0.5700,172.316895,6.626221832,1238.870737
0.5750,172.2684055,6.609494774,1238.890224
0.5800,172.2199753,6.588835342,1238.90944
0.5850,172.1712421,6.564364518,1238.928603
0.5900,172.1226378,6.535938995,1238.947487
0.5950,172.0732225,6.503130417,1238.966034
0.6000,172.0231116,6.465370666,1238.984168
0.6050,171.9731472,6.423116059,1239.001947
0.6100,171.9229572,6.376437747,1239.019321
0.6150,171.8725034,6.32484009,1239.036304
0.6200,171.8214851,6.268419116,1239.052931
0.6250,171.7705999,6.206671182,1239.069047
0.6300,171.72016,6.140108083,1239.084731
0.6350,171.6701013,6.068824986,1239.100074
0.6400,171.6204572,5.992247791,1239.114994
0.6450,171.5708291,5.911014518,1239.129661
0.6500,171.5227089,5.82469686,1239.143884
0.6550,171.4747362,5.733898905,1239.157938
0.6600,171.4285089,5.638205007,1239.171534
0.6650,171.3834739,5.537923185,1239.18484
0.6700,171.3396796,5.432625124,1239.197803
0.6750,171.2967153,5.32203211,1239.210381
0.6800,171.2549617,5.206802261,1239.222625
0.6850,171.2141398,5.086513601,1239.234543
0.6900,171.1744586,4.960256278,1239.245864
0.6950,171.1363175,4.829632124,1239.256959
0.7000,171.1004253,4.694139335,1239.267576
0.7050,171.0659284,4.553957092,1239.27782
0.7100,171.0333237,4.409062477,1239.287664
0.7150,171.0006652,4.260559714,1239.297492
0.7200,170.9669446,4.107415223,1239.307341
0.7250,170.9337242,3.949162925,1239.316802
0.7300,170.9001064,3.785850637,1239.326104
0.7350,170.8653791,3.618416773,1239.335538
0.7400,170.8298627,3.447295388,1239.345149
0.7450,170.7931599,3.27157308,1239.354799
0.7500,170.7566901,3.091573879,1239.364507
0.7550,170.71948,2.907346619,1239.374433
0.7600,170.6813127,2.717794816,1239.384426
0.7650,170.6417591,2.523388339,1239.394715
0.7700,170.6018015,2.322455314,1239.404865
0.7750,170.5606427,2.116477458,1239.415331
0.7800,170.5198658,1.904719808,1239.425856
0.7850,170.479077,1.686173059,1239.436268
0.7900,170.4401103,1.461056151,1239.446547
0.7950,170.4017109,1.229180333,1239.456776
0.8000,170.3646059,0.9903834371,1239.466885
0.8050,170.3304958,0.7442950914,1239.476609
0.8100,170.2997329,0.4927155121,1239.486274
0.8150,170.2721502,0.2349187142,1239.49581
0.8200,170.2485731,-0.02926535693,1239.505098
0.8250,170.2295664,-0.3010044186,1239.51388
0.8300,170.2151219,-0.5794402128,1239.522383
0.8350,170.2063446,-0.8641351917,1239.530514
0.8400,170.2032464,-1.156211846,1239.5381
0.8450,170.2058113,-1.455763854,1239.545094
0.8500,170.2146538,-1.762432719,1239.551578
0.8550,170.2298524,-2.075926649,1239.557597
0.8600,170.2514375,-2.396746007,1239.562983
0.8650,170.278873,-2.72461415,1239.567906
0.8700,170.3137703,-3.059647629,1239.57217
0.8750,170.3561058,-3.402029219,1239.57577
0.8800,170.4058431,-3.75167226,1239.578782
0.8850,170.4629615,-4.108342304,1239.581225
0.8900,170.5283641,-4.473010837,1239.582888
0.8950,170.6024682,-4.844757885,1239.583977
0.9000,170.6861143,-5.22347884,1239.584452
0.9050,170.7791828,-5.608580219,1239.584416
0.9100,170.8813564,-5.999880541,1239.584081
0.9150,170.9926596,-6.397169163,1239.58338
0.9200,171.1137321,-6.80068647,1239.582365
0.9250,171.2441077,-7.208511095,1239.581262
0.9300,171.3835675,-7.62174772,1239.580052
0.9350,171.531904,-8.038939395,1239.578857
0.9400,171.6878258,-8.459611937,1239.577983
0.9450,171.8508369,-8.884220732,1239.577284
0.9500,172.0204766,-9.311822034,1239.57699
0.9550,172.1960659,-9.741497531,1239.577229
0.9600,172.375287,-10.17328579,1239.578125
0.9650,172.5578703,-10.60692969,1239.579751
0.9700,172.7420599,-11.04104477,1239.582367
0.9750,172.9282829,-11.47595943,1239.585881
0.9800,173.1137489,-11.91042603,1239.590756
0.9850,173.2990566,-12.34431591,1239.596817
0.9900,173.4822383,-12.77698442,1239.604309
0.9950,173.6624879,-13.20891929,1239.613174
1.0000,173.8388653,-13.64013748,1239.623504
1.0050,174.0102244,-14.0692692,1239.635523
1.0100,174.1753589,-14.49688345,1239.649232
1.0150,174.3352467,-14.92318275,1239.664415
1.0200,174.4884269,-15.34882781,1239.681061
1.0250,174.6329801,-15.77301343,1239.699359
1.0300,174.7696267,-16.19558119,1239.719308
1.0350,174.8981577,-16.61672926,1239.740779
1.0400,175.0172612,-17.03732111,1239.763728
1.0450,175.1274597,-17.45762539,1239.788029
1.0500,175.2275416,-17.87647964,1239.813885
1.0550,175.3185202,-18.29474723,1239.841033
1.0600,175.4003151,-18.71221405,1239.869473
1.0650,175.4741241,-19.12825999,1239.899222
1.0700,175.5388883,-19.54258881,1239.93036
1.0750,175.5947862,-19.95543858,1239.962743
1.0800,175.6414438,-20.36690219,1239.996396
1.0850,175.6795589,-20.77607206,1240.031406
1.0900,175.707891,-21.18291635,1240.067715
1.0950,175.7283313,-21.58677539,1240.105237
1.1000,175.7402355,-21.98748256,1240.143993
1.1050,175.7447026,-22.38480173,1240.18397
1.1100,175.7413412,-22.7793548,1240.22512
1.1150,175.7316449,-23.17030797,1240.267307
1.1200,175.7163345,-23.55729598,1240.310654
1.1250,175.6951164,-23.93889379,1240.355326
1.1300,175.6681248,-24.31614461,1240.401236
1.1350,175.6363937,-24.68829216,1240.448246
1.1400,175.6010032,-25.05345825,1240.496453
1.1450,175.562623,-25.41287735,1240.545702
1.1500,175.5222986,-25.76472168,1240.596099
1.1550,175.4809308,-26.10925333,1240.647491
1.1600,175.4395986,-26.44621538,1240.699794
1.1650,175.4002469,-26.77534499,1240.752816
1.1700,175.3624377,-27.09703625,1240.806577
1.1750,175.3271251,-27.41053493,1240.860996
1.1800,175.2957932,-27.71570832,1240.915989
1.1850,175.2688774,-28.01240486,1240.971462
1.1900,175.2464766,-28.30005903,1241.027559
1.1950,175.2284088,-28.57959854,1241.084152
1.2000,175.2144505,-28.85112994,1241.141177
1.2050,175.2058876,-29.11473646,1241.198563
1.2100,175.2024042,-29.36903181,1241.25652
1.2150,175.2045972,-29.6152245,1241.314803
1.2200,175.2124449,-29.85201636,1241.373527
1.2250,175.2255707,-30.08033765,1241.432664
1.2300,175.2437292,-30.29905926,1241.492217
1.2350,175.2678927,-30.50906771,1241.552084
1.2400,175.2994056,-30.70975406,1241.612055
1.2450,175.3381916,-30.90154935,1241.672181
1.2500,175.3830403,-31.08433515,1241.732448
1.2550,175.4347712,-31.25895667,1241.792703
1.2600,175.493257,-31.42564294,1241.852906
1.2650,175.5588286,-31.5841008,1241.91295
1.2700,175.6311749,-31.73604192,1241.972684
1.2750,175.7091256,-31.88014579,1242.0323
1.2800,175.7935678,-32.0184243,1242.091382
1.2850,175.8832847,-32.1499951,1242.150233
1.2900,175.9777438,-32.27591866,1242.208787
1.2950,176.0770767,-32.39613545,1242.267075
1.3000,176.1805027,-32.51005751,1242.325102
1.3050,176.2888094,-32.61851939,1242.382856
1.3100,176.4015701,-32.72036958,1242.440452
1.3150,176.5180044,-32.81588291,1242.498011
1.3200,176.6376302,-32.9037557,1242.555646
1.3250,176.759634,-32.98415515,1242.613592
1.3300,176.8836724,-33.0566589,1242.67183
1.3350,177.0088003,-33.12081172,1242.730528
1.3400,177.1358408,-33.17618663,1242.789691
1.3450,177.264022,-33.22230518,1242.8494
1.3500,177.3927569,-33.25931392,1242.909699
1.3550,177.520829,-33.28693016,1242.970716
1.3600,177.648728,-33.3049405,1243.032408
1.3650,177.7744082,-33.31375994,1243.09484
1.3700,177.8988238,-33.3129427,1243.158013
1.3750,178.0224822,-33.30358632,1243.221701
1.3800,178.1447945,-33.28690307,1243.285777
1.3850,178.2647033,-33.26224882,1243.350438
1.3900,178.3832297,-33.23103511,1243.415616
1.3950,178.4997035,-33.19322704,1243.48131
1.4000,178.613998,-33.14980883,1243.547513
1.4050,178.7244448,-33.10074076,1243.614426
1.4100,178.8307596,-33.04701692,1243.681949
1.4150,178.9332796,-32.98808301,1243.750166
1.4200,179.0312224,-32.9246933,1243.818986
1.4250,179.1254173,-32.8571055,1243.888339
1.4300,179.2160286,-32.78401273,1243.958239
1.4350,179.3032972,-32.70638588,1244.028699
1.4400,179.3855475,-32.62483317,1244.099758
1.4450,179.462274,-32.53870726,1244.171579
1.4500,179.5339203,-32.44890985,1244.24393
1.4550,179.5991152,-32.35578915,1244.316951
1.4600,179.6576395,-32.25926666,1244.390628
1.4650,179.7086149,-32.15928523,1244.465085
1.4700,179.7519379,-32.05521299,1244.54037
1.4750,179.7875402,-31.94707584,1244.61649
1.4800,179.814982,-31.83486501,1244.69341
1.4850,179.8347598,-31.71952761,1244.771007
1.4900,179.846346,-31.60021113,1244.849406
1.4950,179.8503754,-31.47689693,1244.928605
1.5000,179.8474738,-31.34898703,1245.008694
1.5050,179.836515,-31.21750269,1245.089622
1.5100,179.8196972,-31.08292464,1245.171094
1.5150,179.7964546,-30.94515913,1245.253229
1.5200,179.7668337,-30.8047012,1245.335909
1.5250,179.730737,-30.66138986,1245.419158
1.5300,179.6883335,-30.51609163,1245.502924
1.5350,179.6392769,-30.36820153,1245.587112
1.5400,179.5830488,-30.21800319,1245.67186
1.5450,179.5195135,-30.06590192,1245.757039
1.5500,179.4495059,-29.91174688,1245.842544
1.5550,179.3720523,-29.75593826,1245.928501
1.5600,179.2878977,-29.59744006,1246.014933
1.5650,179.1973774,-29.4372304,1246.101765
1.5700,179.1003506,-29.27441091,1246.189127
1.5750,178.9961318,-29.10967396,1246.277026
1.5800,178.8846751,-28.94120651,1246.365605
1.5850,178.7664113,-28.77107507,1246.454657
1.5900,178.6421435,-28.59795757,1246.544284
1.5950,178.5103324,-28.42255615,1246.634528
1.6000,178.3721574,-28.24490072,1246.72546
1.6050,178.2274661,-28.06556388,1246.816844
1.6100,178.077006,-27.8849637,1246.908629
1.6150,177.9200576,-27.70312565,1247.000932
1.6200,177.7579044,-27.51946613,1247.093632
1.6250,177.5920487,-27.33425201,1247.186592
1.6300,177.4226514,-27.14846122,1247.27973
1.6350,177.2512535,-26.96136498,1247.372988
1.6400,177.0779578,-26.77233476,1247.466467
1.6450,176.9029522,-26.58229664,1247.560034
1.6500,176.7269083,-26.39157796,1247.653581
1.6550,176.551801,-26.19946074,1247.746931
1.6600,176.3773857,-26.0054639,1247.840248
1.6650,176.2056523,-25.8103651,1247.933211
1.6700,176.0369845,-25.61404321,1248.025693
1.6750,175.8713531,-25.41596463,1248.117823
1.6800,175.7101241,-25.21503979,1248.209666
1.6850,175.5532449,-25.01230331,1248.301009
1.6900,175.4006485,-24.80717288,1248.391827
1.6950,175.2520347,-24.60019291,1248.482145
1.7000,175.1079214,-24.39122714,1248.571834
1.7050,174.9692373,-24.17932329,1248.660817
1.7100,174.8366481,-23.96539326,1248.748925
1.7150,174.7086344,-23.74984646,1248.836386
1.7200,174.5863169,-23.53313644,1248.922999
1.7250,174.4677308,-23.31631592,1249.008875
1.7300,174.3540424,-23.09932358,1249.094015
1.7350,174.2435466,-22.88287008,1249.178448
1.7400,174.1375478,-22.66694677,1249.262161
1.7450,174.0364655,-22.45018583,1249.345104
1.7500,173.9399258,-22.23371552,1249.427277
1.7550,173.8477805,-22.01671207,1249.508811
1.7600,173.7603945,-21.79936266,1249.589647
1.7650,173.6773763,-21.58176873,1249.669775
1.7700,173.5989177,-21.3646531,1249.749032
1.7750,173.5254117,-21.14810192,1249.827334
1.7800,173.455424,-20.93200054,1249.904888
1.7850,173.3885181,-20.71649045,1249.981659
1.7900,173.3245628,-20.5027375,1250.057506
1.7950,173.2635143,-20.29034814,1250.132455
1.8000,173.2044371,-20.07961748,1250.206491
1.8050,173.1477575,-19.87068151,1250.279574
1.8100,173.0926006,-19.66412849,1250.351773
1.8150,173.0381696,-19.45914877,1250.423329
1.8200,172.983353,-19.25550747,1250.494379
1.8250,172.9279082,-19.05439113,1250.564795
1.8300,172.8721296,-18.85439359,1250.634656
1.8350,172.8149485,-18.65620612,1250.704181
1.8400,172.756078,-18.46145053,1250.773141
1.8450,172.6949008,-18.26781982,1250.841907
1.8500,172.6319182,-18.07635342,1250.910421
1.8550,172.566622,-17.88659855,1250.978794
1.8600,172.4985166,-17.69962443,1251.046962
1.8650,172.4258351,-17.51446084,1251.115352
1.8700,172.3485595,-17.33144108,1251.183985
1.8750,172.2673032,-17.150235,1251.252791
1.8800,172.1813859,-16.97207916,1251.321804
1.8850,172.0907156,-16.79478218,1251.391356
1.8900,171.9947804,-16.61941191,1251.461341
1.8950,171.8942907,-16.44513881,1251.531877
1.9000,171.7884928,-16.27168966,1251.602956
1.9050,171.6771924,-16.09819037,1251.674927
1.9100,171.5605391,-15.92441982,1251.747773
1.9150,171.4390365,-15.7494641,1251.821526
1.9200,171.3124329,-15.57394435,1251.896237
1.9250,171.1808792,-15.39711259,1251.971966
1.9300,171.0439229,-15.21807683,1252.048977
1.9350,170.902,-15.03807113,1252.126976
1.9400,170.7552641,-14.85663454,1252.206081
1.9450,170.6047296,-14.6720413,1252.286378
1.9500,170.4501085,-14.48397894,1252.368015
1.9550,170.291074,-14.29279982,1252.450977
1.9600,170.1285637,-14.09735987,1252.535231
1.9650,169.9609372,-13.89726232,1252.621034
1.9700,169.7888661,-13.69299357,1252.708193
1.9750,169.6124185,-13.48465218,1252.796731
1.9800,169.4314964,-13.27237058,1252.88659
1.9850,169.2475418,-13.05671675,1252.977468
1.9900,169.0601288,-12.83753603,1253.069531
1.9950,168.8697354,-12.61595296,1253.162541
2.0000,168.675282,-12.39140984,1253.256877
2.0050,168.4761909,-12.16559221,1253.352393
2.0100,168.272647,-11.9372315,1253.449308
2.0150,168.0640232,-11.70721687,1253.547554
2.0200,167.8512172,-11.47466939,1253.647167
2.0250,167.6345485,-11.23925161,1253.748129
2.0300,167.4140516,-11.00161223,1253.850247
2.0350,167.1909038,-10.76128311,1253.953486
2.0400,166.9649699,-10.51921082,1254.057584
2.0450,166.7355436,-10.27598613,1254.162756
2.0500,166.5029444,-10.03099711,1254.26891
2.0550,166.2684132,-9.784256471,1254.37579
2.0600,166.0312568,-9.536123774,1254.483517
2.0650,165.792401,-9.28661076,1254.591847
2.0700,165.5521438,-9.035583819,1254.700815
2.0750,165.3107785,-8.782490681,1254.8105
2.0800,165.069101,-8.528067759,1254.920627
2.0850,164.8281655,-8.271235894,1255.031249
2.0900,164.5884105,-8.011400427,1255.142322
2.0950,164.3492784,-7.748579842,1255.253959
2.1000,164.1119901,-7.48218465,1255.365995
2.1050,163.8763928,-7.213190761,1255.478335
2.1100,163.6426196,-6.942147794,1255.590821
2.1150,163.4112632,-6.669254055,1255.703257
2.1200,163.1825526,-6.395547192,1255.815395
2.1250,162.9570222,-6.120666841,1255.927238
2.1300,162.7337246,-5.845895261,1256.03877
2.1350,162.5122031,-5.571019039,1256.150139
2.1400,162.2933593,-5.296603899,1256.261075
2.1450,162.0766542,-5.022878686,1256.371721
2.1500,161.8614604,-4.750103729,1256.482079
2.1550,161.6481319,-4.478026628,1256.592145
2.1600,161.435971,-4.206799542,1256.702079
2.1650,161.2251973,-3.937600089,1256.811482
2.1700,161.0165789,-3.669592599,1256.920409
2.1750,160.8092652,-3.403546981,1257.028906
2.1800,160.6038998,-3.138529883,1257.137069
2.1850,160.4006927,-2.875108495,1257.244675
2.1900,160.1989345,-2.612425598,1257.352052
2.1950,159.9993886,-2.350433888,1257.459018
2.2000,159.8020054,-2.088622712,1257.565732
2.2050,159.6067426,-1.828043463,1257.671945
2.2100,159.411947,-1.568174166,1257.778085
2.2150,159.2182251,-1.310245531,1257.883893
2.2200,159.0268863,-1.053045135,1257.989297
2.2250,158.8369376,-0.7970764009,1258.094436
2.2300,158.6485536,-0.5423016794,1258.199152
2.2350,158.4618323,-0.2880362566,1258.303718
2.2400,158.275361,-0.0339240952,1258.408333
2.2450,158.0892462,0.2192260428,1258.512864
2.2500,157.9033922,0.4713377737,1258.61729
2.2550,157.7174514,0.7230261129,1258.721777
2.2600,157.5319788,0.9734623042,1258.826026
2.2650,157.3472233,1.222464887,1258.930048
2.2700,157.1621125,1.470598389,1259.034147
2.2750,156.9768544,1.717644035,1259.138166
2.2800,156.791337,1.964356989,1259.242351
2.2850,156.6050586,2.210568889,1259.346809
2.2900,156.4179569,2.457412352,1259.451735
2.2950,156.2300683,2.705598461,1259.557266
2.3000,156.0426432,2.954633692,1259.663088
2.3050,155.855349,3.205087148,1259.769377
2.3100,155.6679274,3.456770754,1259.876234
2.3150,155.4804615,3.710379034,1259.983768
2.3200,155.2927142,3.965415083,1260.09192
2.3250,155.104743,4.222458702,1260.200788
2.3300,154.916451,4.481044941,1260.310248
2.3350,154.7281957,4.740543845,1260.420157
2.3400,154.5397048,5.002210349,1260.530845
2.3450,154.3518813,5.265779723,1260.641924
2.3500,154.1637406,5.53038304,1260.75344
2.3550,153.9746584,5.796292638,1260.86567
2.3600,153.7854591,6.063218449,1260.978233
2.3650,153.5954939,6.33130489,1261.091388
2.3700,153.4040236,6.599282577,1261.205048
2.3750,153.2111373,6.867420569,1261.319171
2.3800,153.016845,7.1355926,1261.43375
2.3850,152.8193277,7.403499934,1261.549118
2.3900,152.6191632,7.671054048,1261.665146
2.3950,152.4171777,7.937280875,1261.781343
2.4000,152.2126057,8.202401765,1261.897939
2.4050,152.0049169,8.466759322,1262.015117
2.4100,151.793449,8.731201375,1262.133227
2.4150,151.5792548,8.994950349,1262.251931
2.4200,151.3619228,9.258790749,1262.371553
2.4250,151.1419637,9.522509468,1262.49201
2.4300,150.9195327,9.786519743,1262.613398
2.4350,150.6946533,10.05056332,1262.735636
2.4400,150.4662725,10.31624851,1262.859361
2.4450,150.2354268,10.58239246,1262.984101
2.4500,150.0012671,10.84943917,1263.110167
2.4550,149.7637513,11.11656599,1263.237329
2.4600,149.5232274,11.38432148,1263.365576
2.4650,149.2807412,11.65344974,1263.494927
2.4700,149.0349607,11.92307663,1263.625517
2.4750,148.7863647,12.19340112,1263.757306
2.4800,148.5341477,12.46405961,1263.890367
2.4850,148.2776499,12.73481142,1264.024878
2.4900,148.0174845,13.00533228,1264.16067
2.4950,147.7531205,13.27580304,1264.297945
2.5000,147.4839632,13.54630552,1264.43696
2.5050,147.2103677,13.8176837,1264.577884
2.5100,146.9340429,14.09024339,1264.720404
2.5150,146.6545621,14.36445837,1264.864728
2.5200,146.3710287,14.64027096,1265.011055
2.5250,146.0848398,14.91848051,1265.159164
2.5300,145.7956064,15.19918826,1265.309357
2.5350,145.5036926,15.48280323,1265.461353
2.5400,145.2094165,15.76894918,1265.615177
2.5450,144.9131009,16.05764293,1265.770649
2.5500,144.6150666,16.34932802,1265.927648
2.5550,144.3156776,16.64392829,1266.086209
2.5600,144.0139669,16.9399401,1266.246216
2.5650,143.7111994,17.23773411,1266.407323
2.5700,143.4070912,17.53721878,1266.569654
2.5750,143.1013009,17.83820768,1266.733266
2.5800,142.7936843,18.14036356,1266.898117
2.5850,142.4840237,18.44292867,1267.06402
2.5900,142.1726501,18.74585043,1267.230916
2.5950,141.8591117,19.04887691,1267.398893
2.6000,141.5436546,19.35075845,1267.567504
2.6050,141.2251831,19.65278503,1267.73748
2.6100,140.9043488,19.9539314,1267.908394
2.6150,140.5812517,20.25376794,1268.080141
2.6200,140.25522,20.55373317,1268.253387
2.6250,139.9265949,20.85330382,1268.427938
2.6300,139.5957545,21.15266398,1268.603798
2.6350,139.2617548,21.45300018,1268.781496
2.6400,138.9255978,21.75270197,1268.960395
2.6450,138.5877806,22.05203767,1269.140486
2.6500,138.2488877,22.35116044,1269.321662
2.6550,137.9093366,22.65016907,1269.503747
2.6600,137.5685934,22.94951659,1269.687069
2.6650,137.2275951,23.24925585,1269.871362
2.6700,136.8870998,23.54979112,1270.056475
2.6750,136.5457885,23.85051224,1270.242731
2.6800,136.2044035,24.15109475,1270.42967
2.6850,135.8650057,24.45147513,1270.616716
2.6900,135.5263452,24.7505227,1270.803817
2.6950,135.1887627,25.04915324,1270.991203
2.7000,134.8523213,25.34622648,1271.178492
2.7050,134.5168433,25.64202297,1271.365881
2.7100,134.1831623,25.93584903,1271.552776
2.7150,133.8496407,26.22778985,1271.739701
2.7200,133.5177634,26.51758815,1271.926159
2.7250,133.1865631,26.80439735,1272.112054
2.7300,132.8574742,27.0888356,1272.297149
2.7350,132.5310027,27.37058483,1272.481141
2.7400,132.2078761,27.64842346,1272.663447
2.7450,131.8873565,27.92276159,1272.844342
2.7500,131.5704227,28.19296927,1273.023325
2.7550,131.2581328,28.46095935,1273.200552
2.7600,130.9505236,28.7269017,1273.376047
2.7650,130.6481876,28.99090944,1273.549559
2.7700,130.3518781,29.25298305,1273.720731
2.7750,130.0630014,29.51354332,1273.889216
2.7800,129.7811095,29.77249047,1274.055181
2.7850,129.5063604,30.03133882,1274.219021
2.7900,129.2390741,30.28878405,1274.380124
2.7950,128.978994,30.54596247,1274.538908
2.8000,128.7265596,30.80244202,1274.6951
2.8050,128.4817922,31.05817793,1274.848601
2.8100,128.2440022,31.31317915,1274.999579
2.8150,128.0129062,31.56731235,1275.148091
2.8200,127.7869923,31.820175,1275.294556
2.8250,127.5647312,32.07162414,1275.439608
2.8300,127.3462745,32.32202939,1275.583157
2.8350,127.13027,32.57081435,1275.72572
2.8400,126.9160143,32.81782405,1275.86736
2.8450,126.7027266,33.06333084,1276.008601
2.8500,126.490374,33.3062774,1276.149155
2.8550,126.2783834,33.5467271,1276.289151
2.8600,126.0662335,33.78568283,1276.429066
2.8650,125.8527456,34.02203574,1276.56899
2.8700,125.6386736,34.25682759,1276.708971
2.8750,125.4229882,34.49043711,1276.849531
2.8800,125.2056663,34.72188762,1276.990278
2.8850,124.9863825,34.95242973,1277.131834
2.8900,124.7645737,35.18111973,1277.274129
2.8950,124.5395037,35.408165,1277.417457
2.9000,124.3113144,35.63480223,1277.562165
2.9050,124.081419,35.86048009,1277.707623
2.9100,123.8477823,36.08598527,1277.854785
2.9150,123.611962,36.31175936,1278.003252
2.9200,123.3734298,36.53665806,1278.152931
2.9250,123.1320316,36.76138021,1278.304044
2.9300,122.8877907,36.98562471,1278.456621
2.9350,122.6400028,37.20997057,1278.61123
2.9400,122.3886879,37.43491183,1278.767965
2.9450,122.1325055,37.66093768,1278.927517
2.9500,121.8716124,37.88812468,1279.08999
2.9550,121.6061161,38.11560986,1279.255097
2.9600,121.3350044,38.3441561,1279.423473
2.9650,121.0585117,38.57296201,1279.59482
2.9700,120.7767627,38.80246584,1279.769244
2.9750,120.4905797,39.03240957,1279.946299
2.9800,120.1991839,39.26235011,1280.126288
2.9850,119.9026103,39.49264697,1280.309259
2.9900,119.6014006,39.72353656,1280.4951
2.9950,119.2950343,39.95488814,1280.683996
3.0000,118.9845107,40.18543962,1280.875212
3.0050,118.6707681,40.4151376,1281.068249
3.0100,118.3531759,40.64362308,1281.263295
3.0150,118.0328321,40.87185646,1281.460206
3.0200,117.7091935,41.09920406,1281.659002
3.0250,117.383137,41.32600845,1281.859371
3.0300,117.0534783,41.55168107,1282.061664
3.0350,116.7208556,41.77613658,1282.26561
3.0400,116.3854346,42.00029076,1282.471411
3.0450,116.0471818,42.22310954,1282.67873
3.0500,115.7068783,42.44560079,1282.88763
3.0550,115.3639914,42.66606841,1283.097775
3.0600,115.0192001,42.88541194,1283.30914
3.0650,114.6715785,43.10289998,1283.521985
3.0700,114.3226213,43.31959137,1283.736041
3.0750,113.9713585,43.53535173,1283.951607
3.0800,113.6199908,43.75065341,1284.167925
3.0850,113.2686639,43.96450067,1284.38454
3.0900,112.9175748,44.17765135,1284.60169
3.0950,112.5671291,44.38870479,1284.818638
3.1000,112.218474,44.59847203,1285.035169
3.1050,111.8719021,44.80701657,1285.251188
3.1100,111.5266254,45.0141113,1285.466973
3.1150,111.183549,45.21944913,1285.681957
3.1200,110.843601,45.42333419,1285.895899
3.1250,110.507814,45.62519976,1286.107918
3.1300,110.1759218,45.82460583,1286.318068
3.1350,109.8483437,46.02183882,1286.526196
3.1400,109.5258086,46.21669307,1286.731927
3.1450,109.209142,46.40903363,1286.934715
3.1500,108.8976601,46.5998755,1287.135264
3.1550,108.5917074,46.78797987,1287.332926
3.1600,108.2905579,46.97323755,1287.527992
3.1650,107.9947572,47.15590525,1287.720315
3.1700,107.7041418,47.33493998,1287.909459
3.1750,107.4196122,47.51035524,1288.09495
3.1800,107.1406388,47.68196569,1288.276973
3.1850,106.867193,47.84982027,1288.45546
3.1900,106.5994354,48.01357011,1288.630178
3.1950,106.3377936,48.17348865,1288.801
3.2000,106.080774,48.32944152,1288.968566
3.2050,105.8289199,48.48153504,1289.132563
3.2100,105.5832123,48.62962847,1289.292603
3.2150,105.3432223,48.7731058,1289.448677
3.2200,105.1081296,48.91260689,1289.601252
3.2250,104.8781813,49.04860469,1289.750386
3.2300,104.6526125,49.18156353,1289.896621
3.2350,104.4320469,49.3115229,1290.039609
3.2400,104.2150723,49.43879071,1290.180113
3.2450,104.0027393,49.56279038,1290.317416
3.2500,103.7946845,49.68519651,1290.452231
3.2550,103.5909655,49.80649677,1290.584712
3.2600,103.3918355,49.92523542,1290.714254
3.2650,103.1969534,50.04295618,1290.841495
3.2700,103.0057851,50.1596757,1290.966685
3.2750,102.8175421,50.27591685,1291.090397
3.2800,102.6338685,50.39307631,1291.212337
3.2850,102.4530706,50.50898125,1291.332561
3.2900,102.2761314,50.62479522,1291.451057
3.2950,102.102543,50.74016664,1291.567987
3.3000,101.9311944,50.85634109,1291.68434
3.3050,101.7634059,50.97345304,1291.799509
3.3100,101.5988181,51.09146338,1291.913726
3.3150,101.4378213,51.20996497,1292.026722
3.3200,101.280496,51.3281778,1292.138092
3.3250,101.1264863,51.44750186,1292.248732
3.3300,100.9764556,51.56657049,1292.357768
3.3350,100.8301021,51.68591114,1292.465509
3.3400,100.686656,51.80473966,1292.572013
3.3450,100.5469326,51.92358222,1292.677159
3.3500,100.4097697,52.04229919,1292.781365
3.3550,100.2747881,52.16111916,1292.884962
3.3600,100.1426416,52.27898445,1292.987179
3.3650,100.0132398,52.39712375,1293.088423
3.3700,99.88568874,52.51465388,1293.188858
3.3750,99.7608665,52.63234214,1293.288307
3.3800,99.63749845,52.74917244,1293.387026
3.3850,99.51622359,52.86518306,1293.484609
3.3900,99.39654842,52.98119398,1293.581678
3.3950,99.27839494,53.09835927,1293.678745
3.4000,99.16009433,53.21547567,1293.776039
3.4050,99.04181951,53.3332267,1293.873809
3.4100,98.92430154,53.45116644,1293.971499
3.4150,98.80612901,53.56967203,1294.069973
3.4200,98.68819405,53.68818226,1294.168533
3.4250,98.56989511,53.80696362,1294.26767
3.4300,98.45191408,53.92613764,1294.367088
3.4350,98.33441046,54.04589238,1294.466802
3.4400,98.21744844,54.16578993,1294.566584
3.4450,98.09914662,54.28562785,1294.667339
3.4500,97.97949496,54.40489671,1294.768979
3.4550,97.85839959,54.52432512,1294.871795
3.4600,97.73673662,54.6435837,1294.975195
3.4650,97.61240922,54.76254122,1295.080175
3.4700,97.48612501,54.88157292,1295.186663
3.4750,97.35719644,55.00087883,1295.294971
3.4800,97.22693187,55.11996605,1295.404223
3.4850,97.09474895,55.23908714,1295.514822
3.4900,96.95974358,55.35786801,1295.626965
3.4950,96.82193353,55.47689633,1295.740886
3.5000,96.68209572,55.59599555,1295.856203
3.5050,96.53982186,55.71508778,1295.97295
3.5100,96.39454116,55.83461809,1296.091567
3.5150,96.24575389,55.95471404,1296.212338
3.5200,96.09398489,56.07557516,1296.335124
3.5250,95.94017742,56.19685858,1296.459336
3.5300,95.78270698,56.31781533,1296.585425
3.5350,95.62292029,56.43865144,1296.712776
3.5400,95.4625209,56.56024561,1296.84087
3.5450,95.30066563,56.68197372,1296.969865
3.5500,95.13750171,56.8028665,1297.099361
3.5550,94.9738068,56.92284536,1297.228881
3.5600,94.81139513,57.04204826,1297.357476
3.5650,94.64918608,57.1601909,1297.48549
3.5700,94.4883467,57.27701558,1297.612249
3.5750,94.32983344,57.39197119,1297.736954
3.5800,94.17333764,57.50462656,1297.859598
3.5850,94.02048609,57.61605855,1297.979695
3.5900,93.87092853,57.72490813,1298.096765
3.5950,93.72551183,57.83178105,1298.210614
3.6000,93.58514395,57.93627379,1298.320459
3.6050,93.44820018,58.03728457,1298.426785
3.6100,93.31544168,58.13522624,1298.529246
3.6150,93.18692987,58.23012829,1298.627844
3.6200,93.06176564,58.32249815,1298.723241
3.6250,92.93978269,58.41157834,1298.815216
3.6300,92.82075242,58.49787027,1298.903925
3.6350,92.70417811,58.58105651,1298.989521
3.6400,92.58994175,58.66151619,1299.072323
3.6450,92.47800788,58.73935993,1299.15234
3.6500,92.36847195,58.81462449,1299.229519
3.6550,92.26123677,58.88728419,1299.303944
3.6600,92.1552362,58.95825267,1299.376743
3.6650,92.04916549,59.02652792,1299.448151
3.6700,91.9425188,59.09364642,1299.519141
3.6750,91.83330138,59.15981187,1299.590937
3.6800,91.72261553,59.22682667,1299.663709
3.6850,91.60923523,59.29514283,1299.738361
3.6900,91.49357924,59.36508508,1299.814771
3.6950,91.37564947,59.43707302,1299.893188
3.7000,91.25545956,59.51160839,1299.973954
3.7050,91.13230645,59.58932683,1300.057769
3.7100,91.0051419,59.67149671,1300.145771
3.7150,90.87328061,59.75853039,1300.238667
3.7200,90.73538426,59.85184376,1300.337793
3.7250,90.59103924,59.95281093,1300.444156
3.7300,90.43917616,60.06181908,1300.558524
3.7350,90.27868312,60.17943395,1300.681978
3.7400,90.10969881,60.30671556,1300.815031
3.7450,89.93262464,60.44381864,1300.957666
3.7500,89.74807819,60.59097498,1301.1097
3.7550,89.55464865,60.74850626,1301.272232
3.7600,89.35199737,60.91705847,1301.44576
3.7650,89.14126329,61.09696556,1301.629846
3.7700,88.92067578,61.28802254,1301.825472
3.7750,88.69158152,61.48861393,1302.031391
3.7800,88.45306125,61.69975929,1302.248569
3.7850,88.20525737,61.91976564,1302.47624
3.7900,87.94972112,62.15001092,1302.714265
3.7950,87.68697387,62.38846835,1302.961401
3.8000,87.41678501,62.63535315,1303.217817
3.8050,87.14059603,62.88947129,1303.482379
3.8100,86.85957952,63.15021576,1303.754036
3.8150,86.57486509,63.41769256,1304.032223
3.8200,86.28727855,63.69007102,1304.315555
3.8250,85.99770708,63.96698737,1304.603482
3.8300,85.70787329,64.24790034,1304.894635
3.8350,85.41865288,64.53180869,1305.187911
3.8400,85.13004214,64.81693709,1305.482539
3.8450,84.84336534,65.10208089,1305.777152
3.8500,84.55898825,65.38588185,1306.070864
3.8550,84.27735521,65.66847199,1306.363309
3.8600,83.99810765,65.94841868,1306.654028
3.8650,83.72329217,66.22494025,1306.94152
3.8700,83.45290726,66.49736828,1307.225307
3.8750,83.18726588,66.76454827,1307.504564
3.8800,82.92611914,67.02540609,1307.778808
3.8850,82.67029563,67.27936289,1308.047178
3.8900,82.42049743,67.52579164,1308.308952
3.8950,82.1764274,67.76273915,1308.563209
3.9000,81.93838286,67.98989574,1308.809618
3.9050,81.70686727,68.2064069,1309.047375
3.9100,81.48239908,68.41153302,1309.275711
3.9150,81.26422069,68.60353789,1309.494128
3.9200,81.05353301,68.7835145,1309.702252
3.9250,80.85077209,68.95011063,1309.899014
3.9300,80.65645737,69.10351898,1310.084188
3.9350,80.46987518,69.24284313,1310.257748
3.9400,80.29123707,69.36825296,1310.419522
3.9450,80.12049807,69.48019288,1310.569757
3.9500,79.9572974,69.57798323,1310.708479
3.9550,79.8006587,69.66282032,1310.836751
3.9600,79.65074661,69.73412625,1310.954085
3.9650,79.50906082,69.7928832,1311.06005
3.9700,79.37569629,69.83879685,1311.154338
3.9750,79.25153927,69.87201442,1311.236415
3.9800,79.13508314,69.89269758,1311.307284
3.9850,79.02698929,69.90107496,1311.366752
3.9900,78.92644695,69.89851767,1311.415941
3.9950,78.83309007,69.88490768,1311.455042
4.0000,78.74629841,69.86246116,1311.485549
4.0050,78.66603643,69.83073654,1311.507233
4.0100,78.5914268,69.79004141,1311.520782
4.0150,78.5236684,69.74246688,1311.526382
4.0200,78.46252721,69.68766962,1311.524142
4.0250,78.40741279,69.6260064,1311.514451
4.0300,78.357386,69.55856018,1311.498528
4.0350,78.31219748,69.48551319,1311.47654
4.0400,78.27004594,69.40713363,1311.449895
4.0450,78.23001134,69.32425943,1311.419494
4.0500,78.19127317,69.23803799,1311.386494
4.0550,78.15352584,69.14917782,1311.351459
4.0600,78.11569576,69.05686938,1311.314841
4.0650,78.07788553,68.9625102,1311.27736
4.0700,78.03997143,68.86573858,1311.23889
4.0750,77.99972466,68.76885606,1311.201991
4.0800,77.95756942,68.67146666,1311.166364
4.0850,77.9129141,68.57546926,1311.133294
4.0900,77.86539063,68.48035781,1311.102795
4.0950,77.81543716,68.38751632,1311.075447
4.1000,77.76217263,68.29727649,1311.051962
4.1050,77.70535254,68.20996345,1311.032623
4.1100,77.64526603,68.1261187,1311.017647
4.1150,77.58167269,68.04586962,1311.007213
4.1200,77.51401387,67.96972915,1311.002065
4.1250,77.44265127,67.89739698,1311.001684
4.1300,77.36821515,67.82974564,1311.006183
4.1350,77.29057879,67.76705019,1311.01597
4.1400,77.20966301,67.70918932,1311.030961
4.1450,77.12628057,67.6573674,1311.051257
4.1500,77.0404405,67.61216237,1311.077115
4.1550,76.95234167,67.57224048,1311.107804
4.1600,76.86269875,67.53776214,1311.142954
4.1650,76.77088433,67.50847807,1311.182762
4.1700,76.67791529,67.48384362,1311.226428
4.1750,76.58475778,67.46413402,1311.273498
4.1800,76.49127056,67.44821051,1311.323529
4.1850,76.39833624,67.43638682,1311.376188
4.1900,76.30541649,67.42769746,1311.431334
4.1950,76.21456815,67.42203083,1311.487625
4.2000,76.12488998,67.4179956,1311.544951
4.2050,76.03701529,67.41609882,1311.603043
4.2100,75.95177232,67.41575486,1311.661176
4.2150,75.8705865,67.41699178,1311.718391
4.2200,75.7927961,67.41778326,1311.774238
4.2250,75.71942811,67.41778485,1311.827855
4.2300,75.65041325,67.41665498,1311.879119
4.2350,75.58577603,67.41464205,1311.928116
4.2400,75.52631952,67.4108303,1311.973882
4.2450,75.47233264,67.40439855,1312.015894
4.2500,75.42324801,67.39534627,1312.054298
4.2550,75.38136469,67.38249,1312.086974
4.2600,75.34599488,67.3656011,1312.114192
4.2650,75.3171967,67.34462615,1312.135928
4.2700,75.29494426,67.31969706,1312.152217
4.2750,75.27981782,67.2897115,1312.16215
4.2800,75.27115015,67.25470632,1312.16619
4.2850,75.26893818,67.21437505,1312.16406
4.2900,75.27361978,67.16808795,1312.155208
4.2950,75.2851533,67.11567426,1312.139492
4.3000,75.30348635,67.05610016,1312.116351
4.3050,75.32872361,66.98975203,1312.085822
4.3100,75.36143643,66.91645313,1312.047495
4.3150,75.40135797,66.8344349,1312.000681
4.3200,75.44781235,66.74484677,1311.946244
4.3250,75.5012316,66.64722604,1311.883788
4.3300,75.56168302,66.54173882,1311.813294
4.3350,75.62847942,66.42890778,1311.735457
4.3400,75.70246475,66.30930259,1311.649851
4.3450,75.78426979,66.18374114,1311.556663
4.3500,75.87299232,66.05103944,1311.455776
4.3550,75.96883867,65.91193034,1311.347492
4.3600,76.07207404,65.76828644,1311.232508
4.3650,76.18192633,65.62010422,1311.111235
4.3700,76.29806698,65.46779871,1310.984173
4.3750,76.4216657,65.31168838,1310.850732
4.3800,76.55104432,65.15195374,1310.712078
4.3850,76.68697707,64.98854792,1310.567747
4.3900,76.82781024,64.82213297,1310.419193
4.3950,76.97231222,64.65272444,1310.26712
4.4000,77.12136075,64.48061419,1310.111214
4.4050,77.27389844,64.30580882,1309.952133
4.4100,77.42872287,64.12861058,1309.790719
4.4150,77.58635519,63.94886792,1309.626644
4.4200,77.74725112,63.76715651,1309.459869
4.4250,77.90996984,63.58378154,1309.291521
4.4300,78.07488551,63.39875234,1309.121349
4.4350,78.24167389,63.21140736,1308.949282
4.4400,78.40972759,63.02248199,1308.776023
4.4450,78.57841871,62.83127575,1308.601583
4.4500,78.74765559,62.63769535,1308.425909
4.4550,78.91688407,62.44242998,1308.249795
4.4600,79.08552741,62.24624859,1308.073843
4.4650,79.25348061,62.04841788,1307.897838
4.4700,79.42033421,61.84851072,1307.721862
4.4750,79.58619281,61.64650122,1307.545811
4.4800,79.75088997,61.44287901,1307.369973
4.4850,79.91414595,61.23732721,1307.194345
4.4900,80.07670843,61.03037993,1307.018671
4.4950,80.23771779,60.82177726,1306.843301
4.5000,80.3983525,60.61203192,1306.667898
4.5050,80.55844401,60.40118185,1306.492568
4.5100,80.717049,60.18834399,1306.317522
4.5150,80.87456015,59.97393531,1306.142772
4.5200,81.0314745,59.7581886,1305.968087
4.5250,81.18626533,59.54150448,1305.794612
4.5300,81.33959299,59.32315795,1305.621682
4.5350,81.49234638,59.10347856,1305.448866
4.5400,81.64503107,58.88301908,1305.276082
4.5450,81.79689951,58.66214846,1305.103784
4.5500,81.94874591,58.44143673,1304.931898
4.5550,82.10059147,58.22100276,1304.760564
4.5600,82.25367337,58.0016492,1304.589398
4.5650,82.40805144,57.78314199,1304.418269
4.5700,82.56349502,57.56562103,1304.247307
4.5750,82.71971459,57.35070096,1304.077451
4.5800,82.87766112,57.13727752,1303.907595
4.5850,83.03757746,56.92571893,1303.737854
4.5900,83.19856532,56.71721449,1303.569297
4.5950,83.36150324,56.51125415,1303.401154
4.6000,83.52671149,56.30797906,1303.233355
4.6050,83.69373942,56.10693553,1303.06597
4.6100,83.86389719,55.9099282,1302.898975
4.6150,84.03583108,55.71642351,1302.733041
4.6200,84.21032142,55.52614777,1302.567516
4.6250,84.38738701,55.33962519,1302.402725
4.6300,84.56812016,55.1562515,1302.237725
4.6350,84.75227367,54.97568786,1302.072466
4.6400,84.93958708,54.79710417,1301.906935
4.6450,85.13026681,54.62056691,1301.740947
4.6500,85.32361019,54.44667869,1301.575124
4.6550,85.51991162,54.27535787,1301.40932
4.6600,85.71866286,54.10579892,1301.243277
4.6650,85.92012167,53.93766125,1301.076814
4.6700,86.12425407,53.77166012,1300.910121
4.6750,86.32981233,53.60597435,1300.743152
4.6800,86.53797949,53.44129953,1300.575509
4.6850,86.74723752,53.27688076,1300.407582
4.6900,86.9577151,53.11231693,1300.239136
4.6950,87.17046756,52.9481219,1300.069847
4.7000,87.38444867,52.78358781,1299.899927
4.7050,87.59978825,52.61917105,1299.729511
4.7100,87.81662026,52.45446175,1299.558447
4.7150,88.03340138,52.28948858,1299.387566
4.7200,88.2501452,52.12397551,1299.216777
4.7250,88.46653457,51.95794957,1299.046286
4.7300,88.68263568,51.79121878,1298.876074
4.7350,88.89845848,51.62420252,1298.706145
4.7400,89.11493175,51.45699534,1298.536055
4.7450,89.33180496,51.28979936,1298.366
4.7500,89.54922299,51.12263711,1298.195894
4.7550,89.767357,50.95444266,1298.025196
4.7600,89.98646984,50.78527091,1297.853788
4.7650,90.20613354,50.61448814,1297.681718
4.7700,90.42610269,50.44409325,1297.50988
4.7750,90.64670758,50.27327075,1297.337802
4.7800,90.86775283,50.1032233,1297.16618
4.7850,91.0892555,49.93270351,1296.994492
4.7900,91.3104242,49.76211782,1296.823457
4.7950,91.531989,49.59232974,1296.653086
4.8000,91.75463849,49.42301079,1296.48275
4.8050,91.97863459,49.25440019,1296.312525
4.8100,92.20378862,49.08629244,1296.142298
4.8150,92.42994642,48.91777261,1295.971873
4.8200,92.65654153,48.74841195,1295.801397
4.8250,92.88447726,48.57850465,1295.630626
4.8300,93.11294958,48.40802744,1295.459864
4.8350,93.34246076,48.23671344,1295.288855
4.8400,93.57225942,48.06525024,1295.118166
4.8450,93.80457911,47.8944913,1294.947045
4.8500,94.03860003,47.72438124,1294.775828
4.8550,94.27436756,47.55550333,1294.604679
4.8600,94.5121124,47.38757518,1294.433477
4.8650,94.75197054,47.22166622,1294.262534
4.8700,94.99451929,47.05748636,1294.091539
4.8750,95.23978472,46.89453949,1293.920152
4.8800,95.4880801,46.73361298,1293.748586
4.8850,95.73890938,46.57515093,1293.577158
4.8900,95.9932067,46.41649072,1293.404331
4.8950,96.25000082,46.25933957,1293.2312
4.9000,96.50947211,46.10264549,1293.057209
4.9050,96.7713134,45.94657234,1292.882551
4.9100,97.03543191,45.78882593,1292.706401
4.9150,97.30207743,45.63059776,1292.528938
4.9200,97.57209031,45.47178147,1292.349932
4.9250,97.84382616,45.31166651,1292.169691
4.9300,98.11631547,45.14997744,1291.98875
4.9350,98.39091786,44.98703916,1291.806666
4.9400,98.66705732,44.82313723,1291.623711
4.9450,98.94443791,44.65788641,1291.440009
4.9500,99.22348529,44.49143627,1291.255449
4.9550,99.50353659,44.32265785,1291.069827
4.9600,99.78509436,44.15131707,1290.883083
4.9650,100.0664844,43.97627416,1290.695501
4.9700,100.3480891,43.7968938,1290.506793
4.9750,100.630371,43.61409538,1290.316955
4.9800,100.9126251,43.42817649,1290.126369
4.9850,101.1960967,43.23974634,1289.93475
4.9900,101.4817754,43.04889695,1289.741582
4.9950,101.769555,42.85481056,1289.546533
5.0000,102.0599638,42.65783133,1289.349672
5.0050,102.352822,42.45853426,1289.151254
5.0100,102.6480882,42.25537008,1288.950749
5.0150,102.9465989,42.04914518,1288.748135
5.0200,103.2477983,41.83922631,1288.543428
5.0250,103.5519186,41.6256174,1288.336475
5.0300,103.85874,41.40780741,1288.127051
5.0350,104.1664814,41.18558895,1287.915884
5.0400,104.4758759,40.95920052,1287.702817
5.0450,104.7865973,40.7285933,1287.48801
5.0500,105.0996242,40.49289369,1287.27089
5.0550,105.4159639,40.25220195,1287.050949
5.0600,105.735304,40.00633403,1286.828355
5.0650,106.0577285,39.75625918,1286.603323
5.0700,106.3829806,39.501003,1286.375597
5.0750,106.7104013,39.24113963,1286.145797
5.0800,107.0412829,38.97611049,1285.913173
5.0850,107.3747611,38.70578689,1285.678139
5.0900,107.7115813,38.43107415,1285.440662
5.0950,108.0497143,38.15042217,1285.201224
5.1000,108.3894343,37.86610863,1284.960454
5.1050,108.7300538,37.57707301,1284.718311
5.1100,109.0737332,37.28531534,1284.474588
5.1150,109.4187008,36.99159361,1284.230186
5.1200,109.7664634,36.69618774,1283.984585
5.1250,110.1172928,36.3994553,1283.737685
5.1300,110.4703109,36.10048278,1283.489581
5.1350,110.8253119,35.79933939,1283.240414
5.1400,111.1822289,35.4962845,1282.99033
5.1450,111.5390657,35.19067847,1282.740047
5.1500,111.8973687,34.88212173,1282.488869
5.1550,112.2570285,34.57112811,1282.236998
5.1600,112.6172796,34.25862352,1281.985056
5.1650,112.977129,33.94385288,1281.733212
5.1700,113.3372223,33.62723112,1281.481364
5.1750,113.6973643,33.30838714,1281.229546
5.1800,114.0578922,32.98810872,1280.977784
5.1850,114.4195335,32.66698118,1280.72608
5.1900,114.7827602,32.34657037,1280.47478
5.1950,115.1478731,32.0261806,1280.223587
5.2000,115.5146656,31.70619512,1279.972823
5.2050,115.8846522,31.38674617,1279.721969
5.2100,116.2569875,31.0690988,1279.471709
5.2150,116.6320409,30.75245322,1279.221728
5.2200,117.0072963,30.43607496,1278.972535
5.2250,117.3846993,30.12000517,1278.723519
5.2300,117.7630259,29.80424004,1278.474989
5.2350,118.1417908,29.48753115,1278.226606
5.2400,118.5210765,29.16892001,1277.978019
5.2450,118.9005876,28.84796208,1277.729015
5.2500,119.2813009,28.52436071,1277.479091
5.2550,119.6637721,28.19801216,1277.228066
5.2600,120.0469315,27.86926692,1276.976273
5.2650,120.4320151,27.53790084,1276.723239
5.2700,120.819003,27.20384187,1276.468974
5.2750,121.2075571,26.8664644,1276.213485
5.2800,121.5980527,26.52548199,1275.956701
5.2850,121.9906885,26.18021983,1275.698459
5.2900,122.3862642,25.82999377,1275.438356
5.2950,122.783954,25.47566554,1275.176992
5.3000,123.1853145,25.11693631,1274.913596
5.3050,123.5897403,24.75239844,1274.648108
5.3100,123.9981067,24.38366875,1274.380585
5.3150,124.410409,24.00900467,1274.110514
5.3200,124.8275002,23.62867898,1273.837774
5.3250,125.2493892,23.242336,1273.562288
5.3300,125.6761179,22.84942288,1273.284131
5.3350,126.107901,22.44966529,1273.003227
5.3400,126.5427221,22.04196722,1272.719877
5.3450,126.9803772,21.62660269,1272.43431
5.3500,127.4190026,21.20417718,1272.147135
5.3550,127.8559055,20.77635406,1271.859761
5.3600,128.2891093,20.34284212,1271.572799
5.3650,128.7189058,19.90508957,1271.286566
5.3700,129.1458268,19.46340649,1271.001067
5.3750,129.5685878,19.01894035,1270.71698
5.3800,129.9860674,18.57264874,1270.434916
5.3850,130.3982235,18.12669612,1270.155453
5.3900,130.8041079,17.68199599,1269.879201
5.3950,131.204114,17.23965521,1269.606375
5.4000,131.5973206,16.79983062,1269.33739
5.4050,131.983634,16.364518,1269.072918
5.4100,132.3624003,15.93379899,1268.813326
5.4150,132.7348568,15.50872791,1268.558599
5.4200,133.1001372,15.09083124,1268.309344
5.4250,133.4571761,14.68154511,1268.066346
5.4300,133.806656,14.28289181,1267.829961
5.4350,134.14879,13.89637008,1267.600403
5.4400,134.4844109,13.52276928,1267.377704
5.4450,134.8139034,13.16226936,1267.161662
5.4500,135.1375844,12.81614455,1266.952454
5.4550,135.4548665,12.48462381,1266.750182
5.4600,135.7661968,12.16756431,1266.554442
5.4650,136.0714602,11.86419319,1266.364873
5.4700,136.3695271,11.57408402,1266.181434
5.4750,136.6592043,11.29670316,1266.004218
5.4800,136.9397293,11.03098885,1265.832984
5.4850,137.2104576,10.77584721,1265.667521
5.4900,137.470554,10.53040707,1265.507684
5.4950,137.7197929,10.29329564,1265.352995
5.5000,137.9581441,10.06410721,1265.203294
5.5050,138.1847898,9.842833085,1265.058735
5.5100,138.3992299,9.628002791,1264.919073
5.5150,138.6014799,9.419250887,1264.784166
5.5200,138.7945315,9.217296651,1264.653448
5.5250,138.9772515,9.021286349,1264.527023
5.5300,139.1514216,8.830799849,1264.404322
5.5350,139.3174377,8.646196997,1264.285402
5.5400,139.4759066,8.46806311,1264.170229
5.5450,139.6274932,8.295333063,1264.058422
5.5500,139.7711941,8.126618813,1263.949916
5.5550,139.9083197,7.961499319,1263.844075
5.5600,140.0393638,7.797088364,1263.740102
5.5650,140.1648342,7.633938501,1263.637888
5.5700,140.2856953,7.471711853,1263.536904
5.5750,140.4024028,7.30980737,1263.43684
5.5800,140.5151953,7.146729564,1263.337116
5.5850,140.6247091,6.982544627,1263.237452
5.5900,140.7302962,6.816538869,1263.137879
5.5950,140.8333304,6.64724205,1263.037643
5.6000,140.9333856,6.474391035,1262.936815
5.6050,141.0319355,6.296913294,1262.834659
5.6100,141.1286568,6.11423685,1262.731239
5.6150,141.2234347,5.925980745,1262.626371
5.6200,141.3147399,5.730839437,1262.520133
5.6250,141.4036094,5.527959941,1262.412068
5.6300,141.4887624,5.317188666,1262.302421
5.6350,141.5715207,5.097258762,1262.19048
5.6400,141.6513364,4.869455124,1262.076809
5.6450,141.7288239,4.633773318,1261.961264
5.6500,141.8059667,4.390045737,1261.843505
5.6550,141.8825383,4.138539234,1261.723847
5.6600,141.9597721,3.879542732,1261.602118
5.6650,142.0378103,3.613197428,1261.478478
5.6700,142.1161761,3.340257284,1261.353246
5.6750,142.1948593,3.06182961,1261.226945
5.6800,142.2747489,2.778035672,1261.099376
5.6850,142.3549017,2.490440423,1260.97122
5.6900,142.4363629,2.198892278,1260.842238
5.6950,142.520713,1.906149197,1260.712589
5.7000,142.6068799,1.612406793,1260.582535
5.7050,142.6958463,1.318295516,1260.451964
5.7100,142.7869421,1.025752943,1260.321404
5.7150,142.8804512,0.7355445847,1260.191016
5.7200,142.9755648,0.448825437,1260.061298
5.7250,143.0729477,0.1662811811,1259.932157
5.7300,143.1731474,-0.1097658155,1259.804022
5.7350,143.2758449,-0.378816524,1259.677063
5.7400,143.3801566,-0.6404864741,1259.551619
5.7450,143.4856204,-0.894682718,1259.427817
5.7500,143.5918824,-1.139769489,1259.305983
5.7550,143.6985214,-1.375933286,1259.186168
5.7600,143.8052235,-1.603021787,1259.068481
5.7650,143.9127591,-1.81899357,1258.953066
5.7700,144.0206203,-2.024243668,1258.839937
5.7750,144.1296079,-2.217476174,1258.729117
5.7800,144.2396931,-2.398753198,1258.620503
5.7850,144.3504717,-2.568709637,1258.513921
5.7900,144.4616467,-2.726412451,1258.409635
5.7950,144.5719418,-2.871742887,1258.308022
5.8000,144.6815995,-3.004733875,1258.209036
5.8050,144.7895728,-3.126047354,1258.112794
5.8100,144.8972823,-3.234306375,1258.019292
5.8150,145.0043747,-3.330028643,1257.928391
5.8200,145.1094596,-3.41481637,1257.840137
5.8250,145.2133963,-3.487837759,1257.754466
5.8300,145.3168124,-3.550201564,1257.670983
5.8350,145.4181137,-3.602482879,1257.589808
5.8400,145.5167964,-3.647239645,1257.510464
5.8450,145.6120122,-3.685156871,1257.432805
5.8500,145.7035933,-3.71734055,1257.356626
5.8550,145.7891618,-3.745642191,1257.28201
5.8600,145.8690451,-3.769136597,1257.208996
5.8650,145.9430829,-3.790204058,1257.137094
5.8700,146.0100096,-3.810904573,1257.066305
5.8750,146.0704967,-3.831140811,1256.996511
5.8800,146.1251806,-3.852224691,1256.927313
5.8850,146.1743491,-3.875118875,1256.858515
5.8900,146.217808,-3.90016925,1256.789976
5.8950,146.2554709,-3.928662352,1256.721553
5.9000,146.2867613,-3.961395192,1256.653117
5.9050,146.3098419,-3.99828151,1256.585139
5.9100,146.3252616,-4.040695783,1256.517167
5.9150,146.3331282,-4.088180191,1256.449391
5.9200,146.3350075,-4.141403794,1256.381321
5.9250,146.3296951,-4.201294109,1256.313068
5.9300,146.3183816,-4.267182993,1256.244545
5.9350,146.2997781,-4.339533939,1256.176086
5.9400,146.2759236,-4.419083616,1256.107153
5.9450,146.2473126,-4.50644531,1256.037604
5.9500,146.213245,-4.600724544,1255.967638
5.9550,146.1739253,-4.702636111,1255.897004
5.9600,146.1298157,-4.810857564,1255.825812
5.9650,146.0801983,-4.925432435,1255.754229
5.9700,146.0248367,-5.046366799,1255.682386
5.9750,145.963874,-5.173448116,1255.610144
5.9800,145.8968492,-5.30552438,1255.53799
5.9850,145.8249424,-5.442531579,1255.465628
5.9900,145.7470835,-5.583744812,1255.393408
5.9950,145.6632821,-5.729558762,1255.321325
6.0000,145.574485,-5.878690247,1255.249564
6.0050,145.4802493,-6.029551931,1255.17836
6.0100,145.3797808,-6.183376147,1255.107704
6.0150,145.273186,-6.338357576,1255.037839
6.0200,145.1605543,-6.493668382,1254.969049
6.0250,145.0422471,-6.647953947,1254.90147
6.0300,144.9179145,-6.801971117,1254.83504
6.0350,144.7882693,-6.954815137,1254.769814
6.0400,144.652254,-7.106000192,1254.706098
6.0450,144.510153,-7.253650441,1254.644184
6.0500,144.361794,-7.399115581,1254.583992
6.0550,144.2074976,-7.540344017,1254.525854
6.0600,144.0475581,-7.677341752,1254.469743
6.0650,143.8822431,-7.809892967,1254.415758
6.0700,143.7122559,-7.93785201,1254.363766
6.0750,143.5382612,-8.060354496,1254.313796
6.0800,143.3605766,-8.176213657,1254.266149
6.0850,143.1791745,-8.284301136,1254.221016
6.0900,142.9951777,-8.385114824,1254.178039
6.0950,142.8103047,-8.477848577,1254.137052
6.1000,142.6243891,-8.561332664,1254.098171
6.1050,142.4391417,-8.635184497,1254.06109
6.1100,142.2534457,-8.701030749,1254.025745
6.1150,142.0672139,-8.75728243,1253.992447
6.1200,141.8810531,-8.804982507,1253.960748
6.1250,141.6941772,-8.845225231,1253.930571
6.1300,141.5057895,-8.87750689,1253.902116
6.1350,141.3156534,-8.902352159,1253.875269
6.1400,141.1240752,-8.919695138,1253.849925
6.1450,140.9306114,-8.929513518,1253.826149
6.1500,140.7355587,-8.932495913,1253.80365
6.1550,140.5396768,-8.928279991,1253.782473
6.1600,140.3434073,-8.917700743,1253.762381
6.1650,140.1468141,-8.901590813,1253.743323
6.1700,139.9503631,-8.878701196,1253.725441
6.1750,139.7542659,-8.851014273,1253.708251
6.1800,139.5586755,-8.817629764,1253.691941
6.1850,139.3634164,-8.7794438,1253.676423
6.1900,139.1686347,-8.736012743,1253.661689
6.1950,138.9746133,-8.687801914,1253.647575
6.2000,138.78269,-8.634006331,1253.634016
6.2050,138.5942927,-8.575477192,1253.620534
6.2100,138.4088553,-8.511628449,1253.607347
6.2150,138.2271455,-8.443243243,1253.594098
6.2200,138.0497464,-8.369839512,1253.580728
6.2250,137.8770328,-8.290917094,1253.567231
6.2300,137.7099647,-8.207480525,1253.553164
6.2350,137.5496738,-8.119061066,1253.53842
6.2400,137.3965488,-8.026614657,1253.52263
6.2450,137.2492052,-7.929480418,1253.506082
6.2500,137.1069766,-7.828278393,1253.488862
6.2550,136.9706723,-7.72320787,1253.470676
6.2600,136.8400463,-7.615356613,1253.451402
6.2650,136.7149342,-7.504832149,1253.43099
6.2700,136.5941814,-7.392092848,1253.409408
6.2750,136.4785952,-7.278788337,1253.38631
6.2800,136.3676492,-7.165565442,1253.361471
6.2850,136.2611187,-7.052803253,1253.334949
6.2900,136.1600965,-6.940870472,1253.306382
6.2950,136.0628806,-6.830711335,1253.275987
6.3000,135.9701387,-6.722955141,1253.243318
6.3050,135.8819051,-6.617991878,1253.208564
6.3100,135.799252,-6.514326896,1253.171746
6.3150,135.7222473,-6.413353805,1253.132727
6.3200,135.6520466,-6.314338362,1253.091362
6.3250,135.5884698,-6.21783308,1253.047693
6.3300,135.5323785,-6.12322976,1253.001689
6.3350,135.4834448,-6.030593342,1252.953418
6.3400,135.4434223,-5.940033139,1252.90247
6.3450,135.4122758,-5.851142107,1252.848933
6.3500,135.3887668,-5.76445072,1252.792959
6.3550,135.3733055,-5.681906748,1252.734057
6.3600,135.3655527,-5.603185732,1252.672361
6.3650,135.3635639,-5.529640682,1252.608071
6.3700,135.3672251,-5.46038327,1252.54142
6.3750,135.3756136,-5.397844209,1252.472165
6.3800,135.3878588,-5.342795249,1252.400286
6.3850,135.4038157,-5.295507267,1252.325884
6.3900,135.4211395,-5.255907645,1252.249532
6.3950,135.4391116,-5.225121041,1252.171171
6.4000,135.4574748,-5.203390813,1252.090828
6.4050,135.4750831,-5.190896118,1252.008829
6.4100,135.4920066,-5.187560571,1251.925136
6.4150,135.5079509,-5.193905664,1251.839844
6.4200,135.5219057,-5.209158109,1251.753305
6.4250,135.5340648,-5.233818943,1251.66538
6.4300,135.5435922,-5.268079431,1251.57636
6.4350,135.5515036,-5.31227762,1251.485989
6.4400,135.5573725,-5.36592593,1251.394568
6.4450,135.5619899,-5.429410905,1251.301923
6.4500,135.5660949,-5.50251351,1251.208039
6.4550,135.5700521,-5.585344051,1251.112847
6.4600,135.573628,-5.677804901,1251.016373
6.4650,135.5767606,-5.77889443,1250.918857
6.4700,135.5800459,-5.889977332,1250.819881
6.4750,135.5836581,-6.009588565,1250.71981
6.4800,135.5872281,-6.138081254,1250.618579
6.4850,135.5897866,-6.275524294,1250.516481
6.4900,135.5923122,-6.423197209,1250.413114
6.4950,135.5940911,-6.579915527,1250.308986
6.5000,135.5944972,-6.746307068,1250.204151
6.5050,135.5929701,-6.921768921,1250.09887
6.5100,135.59125,-7.107327481,1249.992651
6.5150,135.5885199,-7.302531005,1249.88592
6.5200,135.5851258,-7.507368263,1249.778557
6.5250,135.5806619,-7.721678817,1249.670725
6.5300,135.5745246,-7.944036936,1249.562857
6.5350,135.5669133,-8.17436555,1249.454888
6.5400,135.5569962,-8.411575475,1249.347293
6.5450,135.5458645,-8.655918644,1249.239888
6.5500,135.5345635,-8.90707644,1249.132525
6.5550,135.5222244,-9.163830412,1249.025649
6.5600,135.509072,-9.426708423,1248.919095
6.5650,135.4959943,-9.695734413,1248.81258
6.5700,135.4842982,-9.970666097,1248.705924
6.5750,135.4718516,-10.25218529,1248.599375
6.5800,135.4593641,-10.53935486,1248.49303
6.5850,135.4455753,-10.83283035,1248.386965
6.5900,135.4288714,-11.13233518,1248.281704
6.5950,135.4100524,-11.43692547,1248.177064
6.6000,135.3883441,-11.7464405,1248.073346
6.6050,135.3637053,-12.06109916,1247.970453
6.6100,135.3348518,-12.38079794,1247.868683
6.6150,135.3023253,-12.70384839,1247.768162
6.6200,135.2658514,-13.03008934,1247.668998
6.6250,135.2251274,-13.35873272,1247.571448
6.6300,135.1802998,-13.68886369,1247.475516
6.6350,135.1313971,-14.020304,1247.381258
6.6400,135.0772041,-14.35213192,1247.289026
6.6450,135.0191785,-14.68505257,1247.198446
6.6500,134.958176,-15.0175789,1247.109551
6.6550,134.893988,-15.34962893,1247.022348
6.6600,134.8271929,-15.68074025,1246.936784
6.6650,134.7589242,-16.01021482,1246.852741
6.6700,134.6899533,-16.33794205,1246.769975
6.6750,134.6195437,-16.66231629,1246.68879
6.6800,134.5491435,-16.98353311,1246.608885
6.6850,134.4787372,-17.301317,1246.530175
6.6900,134.4088618,-17.61560241,1246.452471
6.6950,134.3385388,-17.92519722,1246.376096
6.7000,134.2666706,-18.23052985,1246.3011
6.7050,134.1930588,-18.53142216,1246.227456
6.7100,134.1172147,-18.82623171,1246.155476
6.7150,134.0399925,-19.11612797,1246.084612
6.7200,133.9606457,-19.4012384,1246.014979
6.7250,133.8793988,-19.67926181,1245.946808
6.7300,133.796171,-19.95114729,1245.879813
6.7350,133.7108728,-20.21595507,1245.814082
6.7400,133.623049,-20.47472439,1245.749532
6.7450,133.5323532,-20.72663402,1245.686314
6.7500,133.4384829,-20.97087435,1245.624517
6.7550,133.3421061,-21.20803066,1245.563932
6.7600,133.2433897,-21.43796541,1245.504516
6.7650,133.1428945,-21.66112356,1245.446034
6.7700,133.0409406,-21.87654639,1245.388562
6.7750,132.9375062,-22.08547697,1245.331943
6.7800,132.8329133,-22.2881588,1245.276175
6.7850,132.7284657,-22.48495313,1245.220825
6.7900,132.6231178,-22.67652325,1245.166028
6.7950,132.5173119,-22.86394445,1245.111551
6.8000,132.4112581,-23.04774545,1245.057268
6.8050,132.3046452,-23.22871115,1245.00319
6.8100,132.1972221,-23.40687254,1244.949457
6.8150,132.0886756,-23.58390048,1244.895947
6.8200,131.9782158,-23.75839543,1244.843028
6.8250,131.8664785,-23.93205927,1244.790489
6.8300,131.7527458,-24.10504519,1244.738513
6.8350,131.6366054,-24.27852585,1244.687166
6.8400,131.5183429,-24.45324519,1244.636341
6.8450,131.3973817,-24.62948672,1244.586256
6.8500,131.2730426,-24.80801444,1244.53699
6.8550,131.1472938,-24.9913956,1244.48795
6.8600,131.0200606,-25.17887015,1244.439369
6.8650,130.8916726,-25.37131859,1244.391194
6.8700,130.7615478,-25.57014081,1244.343579
6.8750,130.6319548,-25.77422579,1244.296213
6.8800,130.502761,-25.98569282,1244.249003
6.8850,130.3738206,-26.20450648,1244.202017
6.8900,130.2461315,-26.43101657,1244.155049
6.8950,130.1189374,-26.66534829,1244.108383
6.9000,129.9923945,-26.90916519,1244.061873
6.9050,129.8656772,-27.16086898,1244.015986
6.9100,129.741858,-27.42051187,1243.970155
6.9150,129.6192188,-27.68788427,1243.924787
6.9200,129.4981228,-27.96335172,1243.879833
6.9250,129.3795401,-28.24601635,1243.835169
6.9300,129.262739,-28.53480966,1243.791186
6.9350,129.1488847,-28.8280861,1243.747833
6.9400,129.0397543,-29.12536696,1243.704818
6.9450,128.9344713,-29.42556195,1243.66239
6.9500,128.8342983,-29.72738245,1243.620414
6.9550,128.7397237,-30.02928139,1243.578969
6.9600,128.6513751,-30.33111104,1243.537914
6.9650,128.5709659,-30.63152704,1243.496889
6.9700,128.4974019,-30.93027249,1243.456124
6.9750,128.433658,-31.22668351,1243.415063
6.9800,128.3791528,-31.52027999,1243.373713
6.9850,128.3342928,-31.81084093,1243.331987
6.9900,128.2998818,-32.09877783,1243.289608
6.9950,128.2762405,-32.38382149,1243.246335
7.0000,128.2647029,-32.66634542,1243.201913
7.0050,128.2641307,-32.94657004,1243.156393
7.0100,128.2740254,-33.22520651,1243.109697
7.0150,128.2931808,-33.50132325,1243.062148
7.0200,128.3213723,-33.77499873,1243.013692
7.0250,128.3568887,-34.04774623,1242.96447
7.0300,128.399091,-34.31770022,1242.914706
7.0350,128.4475724,-34.58523369,1242.864451
7.0400,128.5011227,-34.84901606,1242.813922
7.0450,128.559822,-35.10939879,1242.762987
7.0500,128.6224475,-35.36634637,1242.711843
7.0550,128.6879558,-35.61883398,1242.66065
7.0600,128.7553073,-35.86626192,1242.609681
7.0650,128.8246773,-36.10728692,1242.558949
7.0700,128.895206,-36.34189033,1242.508636
7.0750,128.96724,-36.56933913,1242.458675
7.0800,129.0396521,-36.7897199,1242.409257
7.0850,129.1128052,-37.00284585,1242.360373
7.0900,129.1875892,-37.20757435,1242.311918
7.0950,129.2645267,-37.40393427,1242.263745
7.1000,129.3426686,-37.59210188,1242.216108
7.1050,129.4239616,-37.77197836,1242.168647
7.1100,129.5061044,-37.9449725,1242.121807
7.1150,129.59072,-38.10972187,1242.075299
7.1200,129.6769283,-38.26843673,1242.029311
7.1250,129.7651772,-38.42140053,1241.983717
7.1300,129.8559373,-38.56929197,1241.938413
7.1350,129.9484727,-38.71141953,1241.893681
7.1400,130.0420959,-38.84911065,1241.849642
7.1450,130.1371272,-38.9827836,1241.806201
7.1500,130.2335198,-39.1115731,1241.763491
7.1550,130.3305768,-39.23556793,1241.721618
7.1600,130.4269068,-39.35520076,1241.680887
7.1650,130.5226292,-39.47058378,1241.641309
7.1700,130.6178224,-39.58064245,1241.602975
7.1750,130.7105913,-39.68539844,1241.5664
7.1800,130.8018131,-39.78567628,1241.531315
7.1850,130.891135,-39.88049347,1241.49798
7.1900,130.9796925,-39.97074327,1241.46609
7.1950,131.0682395,-40.05694598,1241.435451
7.2000,131.1570007,-40.13761279,1241.406231
7.2050,131.2468073,-40.21418448,1241.378145
7.2100,131.3367155,-40.28629756,1241.351443
7.2150,131.4272372,-40.35414127,1241.326153
7.2200,131.5189843,-40.41783342,1241.302253
7.2250,131.6129488,-40.47774271,1241.279498
7.2300,131.7099956,-40.53406579,1241.257801
7.2350,131.8106949,-40.58825735,1241.237019
7.2400,131.9151966,-40.64071988,1241.217139
7.2450,132.0243207,-40.69201052,1241.198088
7.2500,132.1387686,-40.74300413,1241.179714
7.2550,132.2595081,-40.79369703,1241.161841
7.2600,132.3857348,-40.84448013,1241.144591
7.2650,132.5179378,-40.89733277,1241.127827
7.2700,132.6568345,-40.9515716,1241.111541
7.2750,132.8017106,-41.0091749,1241.095737
7.2800,132.9526366,-41.06997938,1241.080421
7.2850,133.1090056,-41.13448446,1241.065724
7.2900,133.2707849,-41.20147089,1241.051702
7.2950,133.4376781,-41.2716459,1241.038453
7.3000,133.6094919,-41.34531189,1241.02582
7.3050,133.7853355,-41.42211616,1241.014106
7.3100,133.9652249,-41.50266224,1241.003254
7.3150,134.1482767,-41.58710714,1240.993366
7.3200,134.334016,-41.67431221,1240.984635
7.3250,134.5213653,-41.76484277,1240.977139
7.3300,134.7094228,-41.8585598,1240.971122
7.3350,134.8971202,-41.95579364,1240.966728
7.3400,135.0848428,-42.05563415,1240.963866
7.3450,135.2717003,-42.15876869,1240.962718
7.3500,135.4556139,-42.26380701,1240.963824
7.3550,135.6379553,-42.37025834,1240.966892
7.3600,135.8177986,-42.47776103,1240.972082
7.3650,135.9951209,-42.58691036,1240.979417
7.3700,136.1689941,-42.69692545,1240.989033
7.3750,136.3394146,-42.80787797,1241.000924
7.3800,136.5059761,-42.91933867,1241.01519
7.3850,136.6687259,-43.03011776,1241.031852
7.3900,136.8273032,-43.1408833,1241.050907
7.3950,136.9807173,-43.25090999,1241.072518
7.4000,137.1292083,-43.36030282,1241.096636
7.4050,137.2714922,-43.46880305,1241.12346
7.4100,137.4086409,-43.57600918,1241.152743
7.4150,137.5390512,-43.68167826,1241.184791
7.4200,137.6628646,-43.78499954,1241.219475
7.4250,137.7789212,-43.88419955,1241.257177
7.4300,137.8866147,-43.98105383,1241.297753
7.4350,137.9864094,-44.07471345,1241.34103
7.4400,138.0782683,-44.16387978,1241.38706
7.4450,138.1623554,-44.24851734,1241.435821
7.4500,138.2381492,-44.32993098,1241.487311
7.4550,138.306295,-44.40702942,1241.541431
7.4600,138.3669404,-44.47877377,1241.598153
7.4650,138.4204418,-44.54666475,1241.657291
7.4700,138.4671467,-44.60963208,1241.718854
7.4750,138.5075442,-44.66920938,1241.782505
7.4800,138.5420948,-44.72394468,1241.848252
7.4850,138.5724921,-44.77517921,1241.91577
7.4900,138.5973905,-44.8226793,1241.985279
7.4950,138.6184478,-44.86639777,1242.05651
7.5000,138.6368579,-44.90535105,1242.129319
7.5050,138.6532932,-44.94076343,1242.203441
7.5100,138.6677675,-44.97185241,1242.278941
7.5150,138.6824068,-44.99912508,1242.355341
7.5200,138.6971365,-45.02288021,1242.432534
7.5250,138.7114985,-45.04338564,1242.510678
7.5300,138.7274096,-45.06127235,1242.589254
7.5350,138.7442067,-45.07636728,1242.668347
7.5400,138.7626046,-45.08873479,1242.747762
7.5450,138.7829078,-45.09904666,1242.827464
7.5500,138.8062187,-45.10690415,1242.907121
7.5550,138.8314251,-45.11417181,1242.98688
7.5600,138.8614617,-45.11993536,1243.066183
7.5650,138.8939262,-45.12407336,1243.145486
7.5700,138.930458,-45.12828613,1243.22424
7.5750,138.9704529,-45.13138662,1243.302555
7.5800,139.0136758,-45.13515459,1243.380435
7.5850,139.0616022,-45.13924838,1243.457486
7.5900,139.1137696,-45.14501075,1243.533783
7.5950,139.1700887,-45.15282338,1243.609173
7.6000,139.2305127,-45.16189611,1243.683823
7.6050,139.2949378,-45.1729564,1243.757507
7.6100,139.3642558,-45.18559303,1243.83014
7.6150,139.4384081,-45.20034499,1243.901631
7.6200,139.5172851,-45.21738687,1243.971986
7.6250,139.6003617,-45.23567323,1244.041406
7.6300,139.6885133,-45.25688545,1244.109534
7.6350,139.7812462,-45.27953702,1244.176484
7.6400,139.8794074,-45.30428952,1244.242096
7.6450,139.9813697,-45.32968167,1244.306646
7.6500,140.088542,-45.35740318,1244.369714
7.6550,140.1989097,-45.38681779,1244.431735
7.6600,140.3135056,-45.41776668,1244.492548
7.6650,140.4310295,-45.4498918,1244.552293
7.6700,140.5525727,-45.48488178,1244.610693
7.6750,140.6765033,-45.52093682,1244.668109
7.6800,140.8041608,-45.55842209,1244.724275
7.6850,140.9335451,-45.59781015,1244.779441
7.6900,141.0655623,-45.63830566,1244.833623
7.6950,141.1996876,-45.68035282,1244.886898
7.7000,141.3361659,-45.723632,1244.939216
7.7050,141.4748155,-45.76848303,1244.990586
7.7100,141.6148097,-45.81328105,1245.041181
7.7150,141.7564219,-45.85870632,1245.090997
7.7200,141.8999202,-45.90441017,1245.139963
7.7250,142.0440422,-45.95013027,1245.188287
7.7300,142.1884226,-45.99557253,1245.236197
7.7350,142.332894,-46.04041458,1245.283744
7.7400,142.4775907,-46.08477009,1245.330855
7.7450,142.6206384,-46.12864408,1245.377874
7.7500,142.7622474,-46.17119192,1245.424849
7.7550,142.9010028,-46.21209165,1245.472002
7.7600,143.0382651,-46.25253221,1245.519072
7.7650,143.1720522,-46.29131313,1245.566553
7.7700,143.3021034,-46.32900092,1245.61445
7.7750,143.4281202,-46.36526057,1245.662842
7.7800,143.5498694,-46.3997939,1245.711859
7.7850,143.6661517,-46.43303839,1245.761629
7.7900,143.7787133,-46.4640241,1245.811947
7.7950,143.8870195,-46.49263887,1245.86294
7.8000,143.9891088,-46.52080782,1245.914855
7.8050,144.0864346,-46.54702508,1245.967553
7.8100,144.1792229,-46.57301062,1246.020934
7.8150,144.2664928,-46.59803916,1246.075205
7.8200,144.3493523,-46.62152791,1246.13029
7.8250,144.4291744,-46.64486497,1246.185824
7.8300,144.5042928,-46.66686531,1246.242232
7.8350,144.5770431,-46.68824878,1246.299093
7.8400,144.6467022,-46.70909324,1246.356554
7.8450,144.7143791,-46.72822846,1246.414293
7.8500,144.7788414,-46.74691361,1246.472556
7.8550,144.8409628,-46.7637524,1246.531231
7.8600,144.8989401,-46.78030562,1246.590574
7.8650,144.9549112,-46.7951823,1246.650176
7.8700,145.0065373,-46.80781267,1246.710671
7.8750,145.0562216,-46.81822692,1246.771452
7.8800,145.1039208,-46.82510604,1246.832707
7.8850,145.1482263,-46.82923164,1246.89462
7.8900,145.1896049,-46.83071599,1246.95699
7.8950,145.2279794,-46.82861367,1247.020062
7.9000,145.2634568,-46.82357822,1247.083731
7.9050,145.2977072,-46.81460696,1247.147706
7.9100,145.3293085,-46.80289495,1247.212253
7.9150,145.3597562,-46.78607366,1247.277232
7.9200,145.3892946,-46.76566547,1247.342515
7.9250,145.4191378,-46.74083009,1247.407885
7.9300,145.4494944,-46.71085742,1247.473381
7.9350,145.481486,-46.67706632,1247.538733
7.9400,145.5155771,-46.63847319,1247.603947
7.9450,145.5523332,-46.59598303,1247.668935
7.9500,145.5927651,-46.54830183,1247.733489
7.9550,145.6375281,-46.49673828,1247.797469
7.9600,145.6868999,-46.44107163,1247.860805
7.9650,145.7419308,-46.38205816,1247.923247
7.9700,145.8029833,-46.31865716,1247.984831
7.9750,145.8708111,-46.25320909,1248.045241
7.9800,145.9455871,-46.18526063,1248.104417
7.9850,146.0278234,-46.1154179,1248.16226
7.9900,146.1166163,-46.04479525,1248.21872
7.9950,146.2121568,-45.97386591,1248.273718
8.0000,146.314228,-45.90331039,1248.327178
8.0050,146.4226937,-45.83248809,1248.379194
8.0100,146.5379019,-45.7622337,1248.4297
8.0150,146.6586852,-45.69290982,1248.478868
8.0200,146.7843962,-45.6250024,1248.526784
8.0250,146.9158056,-45.5595578,1248.573231
8.0300,147.0523864,-45.49633542,1248.618294
8.0350,147.1938129,-45.4349818,1248.662104
8.0400,147.3395461,-45.37615143,1248.704684
8.0450,147.4899648,-45.3196348,1248.746045
8.0500,147.6450569,-45.26552573,1248.786135
8.0550,147.8052119,-45.21412133,1248.824901
8.0600,147.9690615,-45.16495201,1248.862549
8.0650,148.1381012,-45.11708837,1248.898842
8.0700,148.310785,-45.07156479,1248.934012
8.0750,148.4884145,-45.02705423,1248.967958
8.0800,148.6696674,-44.98351015,1249.000841
8.0850,148.8549373,-44.94111967,1249.03251
8.0900,149.0435806,-44.9002207,1249.06304
8.0950,149.2346093,-44.86110673,1249.092689
8.1000,149.4293385,-44.82333014,1249.121178
8.1050,149.6267135,-44.78783261,1249.148575
8.1100,149.8265424,-44.7537626,1249.175042
8.1150,150.0281635,-44.721545,1249.200726
8.1200,150.2318695,-44.69095514,1249.225556
8.1250,150.4357918,-44.66160525,1249.249894
8.1300,150.6413101,-44.63356112,1249.27356
8.1350,150.8456276,-44.60651096,1249.297165
8.1400,151.0496588,-44.579345,1249.320615
8.1450,151.2528706,-44.55259955,1249.343993
8.1500,151.4549885,-44.52600457,1249.367551
8.1550,151.6560252,-44.49864984,1249.391251
8.1600,151.8551875,-44.47063069,1249.415344
8.1650,152.0523699,-44.44303714,1249.439686
8.1700,152.2477731,-44.41588424,1249.464272
8.1750,152.4396574,-44.38909352,1249.489482
8.1800,152.6278632,-44.36312961,1249.515223
8.1850,152.8126751,-44.33767918,1249.541479
8.1900,152.9951016,-44.31164918,1249.568205
8.1950,153.1751073,-44.28604443,1249.59528
8.2000,153.3518097,-44.26008984,1249.622947
8.2050,153.5254364,-44.2347444,1249.651231
8.2100,153.6958995,-44.20865907,1249.68008
8.2150,153.8622198,-44.18343355,1249.709721
8.2200,154.0251697,-44.15726432,1249.740042
8.2250,154.1851618,-44.13110879,1249.770893
8.2300,154.3424093,-44.10471755,1249.802251
8.2350,154.4970524,-44.07758532,1249.834155
8.2400,154.648689,-44.05027371,1249.866645
8.2450,154.7982014,-44.02276377,1249.899503
8.2500,154.9465002,-43.99482124,1249.932684
8.2550,155.0934477,-43.96584983,1249.966324
8.2600,155.2395333,-43.93672234,1250.000227
8.2650,155.3836079,-43.90547664,1250.034815
8.2700,155.5265306,-43.87294887,1250.069805
8.2750,155.6690774,-43.8375418,1250.10518
8.2800,155.81119,-43.80072694,1250.140862
8.2850,155.9530143,-43.76145685,1250.176801
8.2900,156.0950043,-43.719341,1250.212995
8.2950,156.2372121,-43.6745568,1250.249278
8.3000,156.3797171,-43.62760316,1250.285588
8.3050,156.5217143,-43.57835491,1250.321947
8.3100,156.6632244,-43.52731566,1250.35836
8.3150,156.8038285,-43.47421658,1250.39475
8.3200,156.9425884,-43.41966671,1250.431342
8.3250,157.0796408,-43.36276416,1250.468119
8.3300,157.2144571,-43.30306078,1250.505128
8.3350,157.3474594,-43.24142866,1250.542229
8.3400,157.4780959,-43.17594361,1250.579599
8.3450,157.606476,-43.10650337,1250.617117
8.3500,157.7325709,-43.03289998,1250.654794
8.3550,157.8558453,-42.95448207,1250.692828
8.3600,157.9769883,-42.87103262,1250.731095
8.3650,158.0946426,-42.78297763,1250.769745
8.3700,158.2100206,-42.68940938,1250.808604
8.3750,158.3219005,-42.5911496,1250.847799
8.3800,158.42948,-42.48861023,1250.88748
8.3850,158.5336126,-42.38123261,1250.927682
8.3900,158.6336653,-42.26823114,1250.968599
8.3950,158.7299649,-42.15012791,1251.010074
8.4000,158.8228249,-42.02518014,1251.052182
8.4050,158.9116598,-41.8925792,1251.095172
8.4100,158.9957684,-41.75224196,1251.139009
8.4150,159.0774114,-41.60399729,1251.183372
8.4200,159.1548522,-41.44745211,1251.228449
8.4250,159.2301469,-41.28205031,1251.27393
8.4300,159.3015139,-41.10893014,1251.320013
8.4350,159.3697909,-40.92682748,1251.36655
8.4400,159.4344261,-40.73709258,1251.413626
8.4450,159.494502,-40.53917548,1251.461558
8.4500,159.5505568,-40.33304552,1251.510134
8.4550,159.603134,-40.12002122,1251.559272
8.4600,159.6522956,-39.8987037,1251.609043
8.4650,159.6977522,-39.66957288,1251.659746
8.4700,159.7404596,-39.43118845,1251.711164
8.4750,159.7803694,-39.18513484,1251.763422
8.4800,159.8186115,-38.93021909,1251.816376
8.4850,159.8556727,-38.66663563,1251.870026
8.4900,159.8901518,-38.39609916,1251.924519
8.4950,159.9229975,-38.11947732,1251.979623
8.5000,159.9546983,-37.83628562,1252.035372
8.5050,159.9851887,-37.54721297,1252.091756
8.5100,160.0145812,-37.25335652,1252.148739
8.5150,160.0434486,-36.95521874,1252.206185
8.5200,160.0714953,-36.653795,1252.26413
8.5250,160.0988412,-36.34963277,1252.322528
8.5300,160.1244332,-36.04376083,1252.381496
8.5350,160.1494198,-35.7349488,1252.440828
8.5400,160.1732121,-35.42405252,1252.500544
8.5450,160.1956139,-35.11085855,1252.560706
8.5500,160.2149904,-34.7962377,1252.621549
8.5550,160.2319657,-34.48030377,1252.682788
8.5600,160.2462383,-34.1630763,1252.74456
8.5650,160.2580289,-33.84567003,1252.806592
8.5700,160.2674078,-33.52810523,1252.868891
8.5750,160.271552,-33.21020606,1252.932058
8.5800,160.2710013,-32.89190892,1252.995969
8.5850,160.2658752,-32.57421228,1253.060492
8.5900,160.2553496,-32.2565519,1253.125928
8.5950,160.2385155,-31.93947032,1253.192378
8.6000,160.2150055,-31.6224003,1253.260041
8.6050,160.1836138,-31.30582629,1253.329164
8.6100,160.1442043,-30.98876201,1253.399751
8.6150,160.0964749,-30.67112311,1253.471912
8.6200,160.0406871,-30.35236019,1253.545539
8.6250,159.9775711,-30.03322122,1253.620375
8.6300,159.9068855,-29.71271568,1253.69662
8.6350,159.8278534,-29.39084067,1253.774416
8.6400,159.7412537,-29.06831433,1253.853479
8.6450,159.645897,-28.74463041,1253.934107
8.6500,159.5413836,-28.42063291,1254.016368
8.6550,159.4273052,-28.09664964,1254.100204
8.6600,159.3020579,-27.77216778,1254.186006
8.6650,159.1660859,-27.44782855,1254.273692
8.6700,159.0186821,-27.12348382,1254.363362
8.6750,158.8602071,-26.79884441,1254.454986
8.6800,158.691214,-26.4725085,1254.548641
8.6850,158.5107666,-26.14391298,1254.644479
8.6900,158.3191481,-25.81319086,1254.74249
8.6950,158.1171946,-25.47954022,1254.8426
8.7000,157.9039739,-25.14261706,1254.945028
8.7050,157.6811131,-24.80235809,1255.049491
8.7100,157.4486536,-24.45825633,1255.156169
8.7150,157.2062844,-24.10993667,1255.265148
8.7200,156.9547694,-23.75768172,1255.376552
8.7250,156.6931149,-23.40019675,1255.490842
8.7300,156.4232149,-23.03673552,1255.60775
8.7350,156.1454101,-22.66825954,1255.727171
8.7400,155.8595986,-22.29351607,1255.849304
8.7450,155.567057,-21.91236221,1255.973952
8.7500,155.2685705,-21.52394044,1256.101125
8.7550,154.9649346,-21.12733635,1256.230874
8.7600,154.6573642,-20.72360527,1256.362927
8.7650,154.3467256,-20.31307844,1256.497023
8.7700,154.0344316,-19.89712426,1256.63286
8.7750,153.7210561,-19.47536287,1256.770384
8.7800,153.4058836,-19.04996264,1256.909593
8.7850,153.0902236,-18.62163484,1257.050102
8.7900,152.7739879,-18.19021544,1257.192033
8.7950,152.4583436,-17.75471502,1257.335366
8.8000,152.1443045,-17.31746331,1257.479477
8.8050,151.832628,-16.87794619,1257.624139
8.8100,151.5245792,-16.43654999,1257.769103
8.8150,151.2205712,-15.99425096,1257.914076
8.8200,150.922063,-15.55051769,1258.058784
8.8250,150.6301715,-15.10674636,1258.202698
8.8300,150.346412,-14.66273345,1258.345541
8.8350,150.0715192,-14.21954028,1258.48698
8.8400,149.8062204,-13.77697568,1258.626814
8.8450,149.5523997,-13.33589854,1258.764469
8.8500,149.3119089,-12.89648249,1258.899324
8.8550,149.0843588,-12.46001492,1259.0313
8.8600,148.8697451,-12.02741953,1259.160227
8.8650,148.6680903,-11.59908296,1259.286033
8.8700,148.477697,-11.17559182,1259.408944
8.8750,148.301898,-10.75885398,1259.527695
8.8800,148.138948,-10.34844366,1259.642789
8.8850,147.9883209,-9.945455245,1259.754151
8.8900,147.8497953,-9.551261124,1259.861455
8.8950,147.7229137,-9.165717689,1259.964934
8.9000,147.6063251,-8.789980645,1260.064664
8.9050,147.4994675,-8.424191463,1260.160672
8.9100,147.4011279,-8.06907202,1260.253221
8.9150,147.3101848,-7.724353277,1260.342637
8.9200,147.2257966,-7.390208755,1260.429055
8.9250,147.1456685,-7.065812141,1260.513202
8.9300,147.0697413,-6.75071445,1260.595063
8.9350,146.9960933,-6.444771057,1260.675044
8.9400,146.923867,-6.146077946,1260.753625
8.9450,146.8526569,-5.854516432,1260.830902
8.9500,146.7818429,-5.569019579,1260.907091
8.9550,146.7101077,-5.28811978,1260.982801
8.9600,146.6376507,-5.011677937,1261.058011
8.9650,146.5639782,-4.736925026,1261.133218
8.9700,146.4888881,-4.463804883,1261.208463
8.9750,146.4126572,-4.191043317,1261.283866
8.9800,146.334582,-3.918416759,1261.359679
8.9850,146.2542077,-3.644539873,1261.43613
8.9900,146.1713104,-3.370322288,1261.513213
8.9950,146.0855672,-3.094339384,1261.591293
9.0000,145.9963459,-2.817817179,1261.67041
9.0050,145.9023648,-2.539399581,1261.751178
9.0100,145.8042029,-2.258267292,1261.83362
9.0150,145.7007083,-1.975234471,1261.91778
9.0200,145.5913959,-1.68986388,1262.00388
9.0250,145.4760923,-1.40278761,1262.091833
9.0300,145.353884,-1.114187001,1262.181959
9.0350,145.2242492,-0.8229442445,1262.27456
9.0400,145.0873735,-0.5309902786,1262.369322
9.0450,144.9434469,-0.2370895821,1262.466451
9.0500,144.7909088,0.05835554588,1262.566364
9.0550,144.6291572,0.3550841163,1262.66926
9.0600,144.458322,0.652293161,1262.774909
9.0650,144.2775818,0.9514740264,1262.883848
9.0700,144.0863605,1.25174168,1262.996052
9.0750,143.88429,1.553337394,1263.1118
9.0800,143.671709,1.856363498,1263.231012
9.0850,143.4484808,2.160854276,1263.353832
9.0900,143.2166784,2.466850181,1263.479746
9.0950,142.9758309,2.773303587,1263.608556
9.1000,142.7267571,3.081095176,1263.740191
9.1050,142.4697041,3.390516932,1263.874778
9.1100,142.2057502,3.702422907,1264.012071
9.1150,141.93637,4.015785656,1264.151426
9.1200,141.6616793,4.330136118,1264.292785
9.1250,141.381385,4.645853773,1264.436308
9.1300,141.0966261,4.962551517,1264.581571
9.1350,140.8061051,5.279505297,1264.728917
9.1400,140.5116902,5.596164131,1264.877723
9.1450,140.2131234,5.913224844,1265.028159
9.1500,139.9095497,6.230122092,1265.180471
9.1550,139.6025822,6.547868229,1265.334358
9.1600,139.2929251,6.866484804,1265.489628
9.1650,138.9821339,7.184650124,1265.645576
9.1700,138.6706276,7.50381855,1265.802498
9.1750,138.3579402,7.822882155,1265.960364
9.1800,138.0441486,8.142362124,1266.119294
9.1850,137.7298371,8.461781209,1266.279105
9.1900,137.413922,8.781477237,1266.440313
9.1950,137.0980687,9.101138027,1266.602357
9.2000,136.7819225,9.421683085,1266.765599
9.2050,136.4668895,9.74328321,1266.929705
9.2100,136.1517165,10.06507374,1267.094732
9.2150,135.8378852,10.38716414,1267.260245
9.2200,135.5257371,10.71094719,1267.426477
9.2250,135.2147919,11.03571679,1267.593383
9.2300,134.9062554,11.361822,1267.760665
9.2350,134.6015988,11.68950325,1267.927904
9.2400,134.2996277,12.01850351,1268.09547
9.2450,134.0007925,12.34864367,1268.263049
9.2500,133.7045167,12.6815749,1268.431202
9.2550,133.412149,13.01665308,1268.599327
9.2600,133.1233667,13.35453412,1268.767639
9.2650,132.8373165,13.69480484,1268.93631
9.2700,132.5542235,14.03764378,1269.105357
9.2750,132.2733735,14.38381142,1269.275341
9.2800,131.9963922,14.73271533,1269.445516
9.2850,131.7233491,15.08287358,1269.615691
9.2900,131.4530376,15.43553551,1269.786485
9.2950,131.183653,15.79064044,1269.958577
9.3000,130.9156805,16.14834146,1270.131786
9.3050,130.6487734,16.5081962,1270.306163
9.3100,130.3815684,16.86839872,1270.481706
9.3150,130.1139313,17.23017377,1270.658931
9.3200,129.8456946,17.59205428,1270.83733
9.3250,129.5764827,17.95480157,1271.017262
9.3300,129.3058288,18.31719149,1271.198529
9.3350,129.0341885,18.67866275,1271.380956
9.3400,128.7602329,19.03966753,1271.565056
9.3450,128.4833039,19.39890256,1271.750793
9.3500,128.2043711,19.75653395,1271.937755
9.3550,127.9225928,20.11129146,1272.125718
9.3600,127.6366158,20.46388549,1272.315326
9.3650,127.3472804,20.81256895,1272.505781
9.3700,127.0551208,21.15785861,1272.696995
9.3750,126.7605995,21.49910221,1272.888412
9.3800,126.4652416,21.83650938,1273.079481
9.3850,126.1694232,22.16874846,1273.269645
9.3900,125.8715974,22.4951434,1273.459162
9.3950,125.5723905,22.81547687,1273.647715
9.4000,125.2721885,23.12893803,1273.835002
9.4050,124.9712369,23.4344275,1274.020559
9.4100,124.6705894,23.73067282,1274.203686
9.4150,124.3688084,24.01840533,1274.385141
9.4200,124.0664509,24.29746488,1274.564633
9.4250,123.7646177,24.56867895,1274.742085
9.4300,123.4631983,24.83238443,1274.917639
9.4350,123.1635223,25.08900066,1275.090951
9.4400,122.8654128,25.33879003,1275.261989
9.4450,122.5692825,25.58163863,1275.430673
9.4500,122.2764779,25.81793909,1275.596558
9.4550,121.9871496,26.04661428,1275.759293
9.4600,121.7012737,26.26785992,1275.918929
9.4650,121.4194798,26.48351337,1276.075743
9.4700,121.1421353,26.69140388,1276.228889
9.4750,120.8683238,26.8932128,1276.379201
9.4800,120.599166,27.08813674,1276.525894
9.4850,120.3352145,27.27774129,1276.66913
9.4900,120.077284,27.46181425,1276.808563
9.4950,119.8253338,27.64047503,1276.944258
9.5000,119.5800921,27.81376636,1277.075896
9.5050,119.3418794,27.9818398,1277.20344
9.5100,119.1111792,28.14522027,1277.326878
9.5150,118.8877841,28.30358559,1277.446231
9.5200,118.6710886,28.45695526,1277.561716
9.5250,118.4617792,28.60571749,1277.673126
9.5300,118.2588797,28.74998317,1277.780881
9.5350,118.0620435,28.88997268,1277.885109
9.5400,117.871615,29.02574842,1277.985707
9.5450,117.687481,29.15746602,1278.082821
9.5500,117.5107779,29.28478332,1278.175798
9.5550,117.3400061,29.40842188,1278.265461
9.5600,117.1757951,29.52856054,1278.351603
9.5650,117.0181381,29.64468825,1278.43405
9.5700,116.8678624,29.75824969,1278.512789
9.5750,116.7243462,29.86842209,1278.587841
9.5800,116.5860241,29.97503094,1278.659812
9.5850,116.4529713,30.07913367,1278.728851
9.5900,116.3255729,30.1807121,1278.794812
9.5950,116.2034449,30.2794538,1278.857725
9.6000,116.0867387,30.37616032,1278.917821
9.6050,115.9757292,30.46995352,1278.974676
9.6100,115.8702345,30.56184082,1279.028801
9.6150,115.7696192,30.65104955,1279.080174
9.6200,115.673213,30.73899955,1279.129651
9.6250,115.5799714,30.82464932,1279.177423
9.6300,115.4898366,30.90996724,1279.224124
9.6350,115.4013938,30.99347782,1279.269801
9.6400,115.3137957,31.07658257,1279.315338
9.6450,115.2260723,31.15844762,1279.360928
9.6500,115.1367106,31.23880311,1279.407083
9.6550,115.0457123,31.31907416,1279.454176
9.6600,114.9534406,31.39875747,1279.50196
9.6650,114.8599907,31.47910807,1279.550784
9.6700,114.763738,31.55932828,1279.601189
9.6750,114.6635955,31.63994352,1279.653702
9.6800,114.5592158,31.72072051,1279.708459
9.6850,114.4497143,31.80403629,1279.766373
9.6900,114.3356619,31.88926157,1279.82711
9.6950,114.2176827,31.97714634,1279.890486
9.7000,114.0971796,32.06880948,1279.956276
9.7050,113.9742921,32.1644252,1280.02442
9.7100,113.8494379,32.26451817,1280.094843
9.7150,113.72385,32.36904277,1280.16698
9.7200,113.5975487,32.47733715,1280.240585
9.7250,113.4708229,32.58940882,1280.315529
9.7300,113.3447414,32.70490354,1280.391343
9.7350,113.2203262,32.82401222,1280.467632
9.7400,113.0985211,32.94680768,1280.544116
9.7450,112.9804243,33.07333075,1280.620261
9.7500,112.8664977,33.2036471,1280.695994
9.7550,112.7563221,33.33704449,1280.771277
9.7600,112.6495398,33.47354847,1280.846323
9.7650,112.5456734,33.61195647,1280.921062
9.7700,112.4454725,33.75358685,1280.995552
9.7750,112.3503221,33.89738145,1281.06882
9.7800,112.2602058,34.04449618,1281.141294
9.7850,112.176154,34.19391621,1281.212147
9.7900,112.0982565,34.34491912,1281.281032
9.7950,112.0271788,34.49833263,1281.347955
9.8000,111.9629369,34.65289417,1281.412446
9.8050,111.9049515,34.80854034,1281.474719
9.8100,111.8554,34.96484466,1281.533774
9.8150,111.8146571,35.12259431,1281.589606
9.8200,111.7846359,35.28070003,1281.641116
9.8250,111.7670498,35.44053914,1281.687892
9.8300,111.7635333,35.60180599,1281.7292
9.8350,111.7733901,35.76341146,1281.764977
9.8400,111.7977425,35.92376701,1281.794345
9.8450,111.8365779,36.08372982,1281.817467
9.8500,111.8884258,36.24192844,1281.834603
9.8550,111.9545718,36.39746329,1281.844955
9.8600,112.0346342,36.54864245,1281.848133
9.8650,112.1284039,36.69581425,1281.84442
9.8700,112.2336939,36.83733735,1281.83438
9.8750,112.3503733,36.97279328,1281.817884
9.8800,112.4762893,37.10227133,1281.795987
9.8850,112.6103655,37.22606109,1281.76937
9.8900,112.7506131,37.34447389,1281.738999
9.8950,112.8961698,37.45643729,1281.704965
9.9000,113.0456293,37.56301351,1281.668214
9.9050,113.1968554,37.66480691,1281.629987
9.9100,113.3490832,37.76215797,1281.590508
9.9150,113.5018251,37.85668341,1281.550561
9.9200,113.6536416,37.94868945,1281.510779
9.9250,113.8033635,38.03952566,1281.471979
9.9300,113.9491818,38.12792657,1281.434536
9.9350,114.0910006,38.2151172,1281.39897
9.9400,114.2282119,38.30169086,1281.365588
9.9450,114.3605932,38.38775763,1281.33461
9.9500,114.4877887,38.47346832,1281.306228
9.9550,114.6091565,38.558797,1281.280812
9.9600,114.7246174,38.64347482,1281.25826
9.9650,114.8327168,38.72702813,1281.238954
9.9700,114.9344381,38.809062,1281.222285
9.9750,115.0303935,38.88896961,1281.207832
9.9800,115.1193576,38.9656161,1281.195696
9.9850,115.2005485,39.03751603,1281.185796
9.9900,115.2750091,39.10421606,1281.177376
9.9950,115.3423022,39.16489945,1281.170515
10.0000,115.4004006,39.21761265,1281.165358
10.0050,115.4500499,39.26159774,1281.161436
10.0100,115.4906057,39.29602814,1281.158798
10.0150,115.5223007,39.32153568,1281.157481
10.0200,115.545985,39.33828327,1281.15724
10.0250,115.5634311,39.34597201,1281.157219
10.0300,115.5742817,39.34452517,1281.157479
10.0350,115.5787596,39.33361032,1281.157858
10.0400,115.5766629,39.31321247,1281.158499
10.0450,115.568544,39.2839727,1281.159411
10.0500,115.5542639,39.24557942,1281.160421
10.0550,115.5361513,39.20009424,1281.161208
10.0600,115.5152991,39.14733638,1281.161231
10.0650,115.4936963,39.08821245,1281.159942
10.0700,115.4712341,39.02257672,1281.15732
10.0750,115.4485382,38.95102309,1281.153386
10.0800,115.4273098,38.87354027,1281.147492
10.0850,115.406882,38.79064975,1281.140249
10.0900,115.388599,38.70328128,1281.131314
10.0950,115.3729564,38.61173012,1281.120525
10.1000,115.3627516,38.51764559,1281.107242
10.1050,115.3590599,38.42124314,1281.090968
10.1100,115.3617936,38.32322733,1281.071946
10.1150,115.372925,38.22340295,1281.049239
10.1200,115.3919426,38.12138176,1281.022856
10.1250,115.4186591,38.01627951,1280.992664
10.1300,115.4531754,37.90751636,1280.958407
10.1350,115.4975063,37.79588419,1280.919509
10.1400,115.5514465,37.68155928,1280.875939
10.1450,115.6161712,37.56458838,1280.827279
10.1500,115.6932483,37.44475336,1280.772971
10.1550,115.7813612,37.32182507,1280.713487
10.1600,115.8803789,37.19667913,1280.649116
10.1650,115.9906657,37.06814902,1280.579507
10.1700,116.1124013,36.9363826,1280.504568
10.1750,116.2447098,36.80210351,1280.424884
10.1800,116.3887211,36.66482699,1280.33986
10.1850,116.5444319,36.52375657,1280.249221
10.1900,116.7109439,36.37771011,1280.152953
10.1950,116.8877419,36.22831172,1280.051783
10.2000,117.0734556,36.07362225,1279.945715
10.2050,117.2671414,35.9140587,1279.835095
10.2100,117.4672592,35.74971283,1279.720689
10.2150,117.672582,35.57906091,1279.602639
10.2200,117.8818129,35.40204806,1279.481458
10.2250,118.0943445,35.21754407,1279.357141
10.2300,118.3105939,35.02715929,1279.22998
10.2350,118.5278511,34.83102712,1279.101116
10.2400,118.747788,34.62950702,1278.969927
10.2450,118.9685204,34.42310594,1278.837162
10.2500,119.1900179,34.21205545,1278.703015
10.2550,119.4122211,33.99626785,1278.567393
10.2600,119.6347713,33.77674742,1278.430625
10.2650,119.8570105,33.55335319,1278.293001
10.2700,120.0788875,33.32665748,1278.154616
10.2750,120.2998139,33.09618319,1278.015525
10.2800,120.5187186,32.86262737,1277.876451
10.2850,120.7364782,32.62487089,1277.736662
10.2900,120.9514961,32.38390122,1277.597197
10.2950,121.1636248,32.13940317,1277.457926
10.3000,121.3729839,31.89157118,1277.318985
10.3050,121.5799026,31.6402627,1277.180121
10.3100,121.7834958,31.38628924,1277.041975
10.3150,121.9831723,31.12936706,1276.904773
10.3200,122.178393,30.86961357,1276.768704
10.3250,122.367383,30.60720614,1276.634502
10.3300,122.551469,30.34303116,1276.501886
10.3350,122.730024,30.07690201,1276.370998
10.3400,122.9025836,29.80968883,1276.242232
10.3450,123.0695954,29.54164353,1276.115581
10.3500,123.231234,29.27281163,1275.990962
10.3550,123.3863522,29.00350875,1275.868958
10.3600,123.5363989,28.73484746,1275.749212
10.3650,123.6806333,28.46700642,1275.631907
10.3700,123.8212157,28.19965568,1275.516206
10.3750,123.9579103,27.93384161,1275.402481
10.3800,124.0903845,27.66825065,1275.290431
10.3850,124.2205156,27.40458689,1275.179783
10.3900,124.3493045,27.14349335,1275.070349
10.3950,124.4763557,26.88398684,1274.961936
10.4000,124.6010753,26.62682175,1274.855043
10.4050,124.7246365,26.3716321,1274.749232
10.4100,124.8473566,26.11974352,1274.644697
10.4150,124.9681425,25.86987613,1274.54157
10.4200,125.0875049,25.62285371,1274.439947
10.4250,125.2057774,25.37804122,1274.339601
10.4300,125.3228347,25.13586998,1274.240687
10.4350,125.4377836,24.89557629,1274.143383
10.4400,125.5510831,24.65802518,1274.047897
10.4450,125.6624936,24.42187027,1273.953892
10.4500,125.7717912,24.18746408,1273.861513
10.4550,125.8799834,23.95437381,1273.770228
10.4600,125.9869925,23.72383937,1273.680517
10.4650,126.0924351,23.49528841,1273.592229
10.4700,126.1962116,23.26971961,1273.505654
10.4750,126.2987266,23.04642345,1273.420495
10.4800,126.4007173,22.82597485,1273.33646
10.4850,126.5010754,22.60885658,1273.254173
10.4900,126.6012526,22.39533409,1273.17317
10.4950,126.7016904,22.18505859,1273.093144
10.5000,126.803411,21.97866658,1273.013785
10.5050,126.905771,21.77609597,1272.93546
10.5100,127.0097075,21.57746791,1272.857797
10.5150,127.1153698,21.3831997,1272.780841
10.5200,127.2234714,21.19385013,1272.704447
10.5250,127.334523,21.00930067,1272.628339
10.5300,127.4464644,20.8292329,1272.553197
10.5350,127.5605309,20.65348913,1272.478542
10.5400,127.6747114,20.48135742,1272.404964
10.5450,127.7901056,20.31212821,1272.331873
10.5500,127.9056389,20.14612394,1272.259704
10.5550,128.0210475,19.98240606,1272.188332
10.5600,128.1346351,19.82077486,1272.11842
10.5650,128.2467676,19.66076184,1272.049691
10.5700,128.3574454,19.50266804,1271.982184
10.5750,128.4667487,19.34630249,1271.915918
10.5800,128.5755711,19.19088054,1271.850133
10.5850,128.6841292,19.03794647,1271.785183
10.5900,128.7926216,18.88714947,1271.72083
10.5950,128.901626,18.73890153,1271.657138
10.6000,129.0109837,18.59346666,1271.594104
10.6050,129.1210647,18.45138151,1271.531886
10.6100,129.2317292,18.31214088,1271.470364
10.6150,129.3444658,18.17645892,1271.409128
10.6200,129.4590143,18.04384445,1271.348177
10.6250,129.5760299,17.91376029,1271.287157
10.6300,129.6949021,17.78594236,1271.226237
10.6350,129.8178044,17.65955964,1271.164456
10.6400,129.9442517,17.53315481,1271.101552
10.6450,130.0736487,17.40578957,1271.037432
10.6500,130.2063554,17.27665234,1270.971872
10.6550,130.3420844,17.14505728,1270.904653
10.6600,130.4805679,17.0106013,1270.83588
10.6650,130.6223721,16.87279499,1270.765306
10.6700,130.7667903,16.73335325,1270.693515
10.6750,130.915147,16.591551,1270.619871
10.6800,131.0678144,16.44827324,1270.544352
10.6850,131.2242195,16.30218155,1270.4668
10.6900,131.383968,16.15347767,1270.387542
10.6950,131.5488182,16.00238435,1270.306039
10.7000,131.7186837,15.84780125,1270.221981
10.7050,131.8944237,15.69022846,1270.135202
10.7100,132.0760111,15.52826555,1270.045387
10.7150,132.2646676,15.36259257,1269.952299
10.7200,132.460903,15.19326065,1269.855771
10.7250,132.6648113,15.01943354,1269.755653
10.7300,132.8756655,14.84010083,1269.651938
10.7350,133.0948273,14.65639252,1269.544619
10.7400,133.3225477,14.46787781,1269.433462
10.7450,133.5581762,14.27592524,1269.319065
10.7500,133.8018229,14.0812445,1269.201584
10.7550,134.0530904,13.88450206,1269.081463
10.7600,134.3124495,13.68438607,1268.958182
10.7650,134.5792961,13.48249964,1268.832513
10.7700,134.8537461,13.27693365,1268.704042
10.7750,135.1345059,13.06872393,1268.573427
10.7800,135.4205091,12.85784441,1268.441075
10.7850,135.7126677,12.64533511,1268.306869
10.7900,136.0105314,12.43139072,1268.170931
10.7950,136.313634,12.21757427,1268.033718
10.8000,136.6216291,12.00419493,1267.895483
10.8050,136.9346146,11.7905827,1267.755934
10.8100,137.253097,11.57643214,1267.614906
10.8150,137.5762453,11.36321574,1267.472982
10.8200,137.9047672,11.15091095,1267.329981
10.8250,138.2375701,10.94044502,1267.186538
10.8300,138.5759131,10.73162415,1267.042199
10.8350,138.9194611,10.52522143,1266.897383
10.8400,139.2679996,10.32147999,1266.752272
10.8450,139.6208539,10.12155022,1266.607452
10.8500,139.9784682,9.924121385,1266.462437
10.8550,140.3398611,9.730579636,1266.317873
10.8600,140.7055123,9.540650471,1266.173592
10.8650,141.0748105,9.354366026,1266.029718
10.8700,141.4452841,9.169755904,1265.886468
10.8750,141.8163214,8.986922086,1265.743945
10.8800,142.1867116,8.806400838,1265.602673
10.8850,142.5555111,8.626593668,1265.462582
10.8900,142.9213995,8.446651056,1265.323692
10.8950,143.2828143,8.266201437,1265.1862
10.9000,143.6395364,8.084349206,1265.050078
10.9050,143.9890656,7.902433252,1264.916081
10.9100,144.3329506,7.720175201,1264.78371
10.9150,144.6705863,7.537364673,1264.653091
10.9200,145.0020922,7.355007346,1264.52434
10.9250,145.3279611,7.173987896,1264.397482
10.9300,145.6488107,6.994435056,1264.272319
10.9350,145.9636186,6.817255702,1264.149263
10.9400,146.2737851,6.642830267,1264.028096
10.9450,146.5788697,6.47134069,1263.909014
10.9500,146.879642,6.302996032,1263.791777
10.9550,147.1763636,6.137287951,1263.676235
10.9600,147.4695853,5.974157798,1263.562181
10.9650,147.7581238,5.813564867,1263.449924
10.9700,148.0432154,5.654580784,1263.338923
10.9750,148.3245812,5.497011312,1263.229186
10.9800,148.602551,5.340941696,1263.120636
10.9850,148.8786186,5.187261115,1263.013081
10.9900,149.1526603,5.03444125,1262.906031
10.9950,149.4246798,4.883783667,1262.799837
11.0000,149.6948448,4.735677388,1262.694523
11.0050,149.9627222,4.589278239,1262.590102
11.0100,150.2293604,4.444597218,1262.486186
11.0150,150.4946199,4.301757355,1262.382971
11.0200,150.7591942,4.159968892,1262.280156
11.0250,151.0226686,4.019996346,1262.178008
11.0300,151.2861083,3.882084599,1262.076372
11.0350,151.5495093,3.744870545,1261.974843
11.0400,151.8125678,3.608083836,1261.873571
11.0450,152.0757108,3.470921743,1261.772371
11.0500,152.3386932,3.332315632,1261.671124
11.0550,152.6017037,3.192351404,1261.569792
11.0600,152.8646335,3.05067992,1261.46837
11.0650,153.1278101,2.907256257,1261.366694
11.0700,153.392689,2.762431352,1261.264499
11.0750,153.6606117,2.616419077,1261.161547
11.0800,153.9317568,2.468811454,1261.057861
11.0850,154.2055769,2.317379159,1260.953181
11.0900,154.4821846,2.163419953,1260.847961
11.0950,154.7615281,2.005370972,1260.741954
11.1000,155.0424489,1.843571475,1260.63563
11.1050,155.3268058,1.679934256,1260.529
11.1100,155.61313,1.514133087,1260.422316
11.1150,155.9017175,1.346464123,1260.31558
11.1200,156.1913035,1.177525,1260.209251
11.1250,156.482681,1.006513233,1260.102917
11.1300,156.7755184,0.8344855615,1259.996777
11.1350,157.0702234,0.6620832939,1259.89067
11.1400,157.3681773,0.4887168451,1259.784086
11.1450,157.6686696,0.3142658624,1259.676896
11.1500,157.9721614,0.1398847373,1259.569199
11.1550,158.2782096,-0.0349744266,1259.460969
11.1600,158.5871099,-0.2103502244,1259.351997
11.1650,158.8989777,-0.3854656136,1259.242463
11.1700,159.2142609,-0.5590315944,1259.132571
11.1750,159.5333647,-0.730331888,1259.022412
11.1800,159.8567002,-0.9002359325,1258.911734
11.1850,160.1834503,-1.06769839,1258.800933
11.1900,160.5144626,-1.233525922,1258.689719
11.1950,160.849014,-1.396875146,1258.578464
11.2000,161.1870247,-1.557895737,1258.467133
11.2050,161.5289483,-1.718300434,1258.355287
11.2100,161.8743834,-1.878546916,1258.242807
11.2150,162.2223865,-2.039533842,1258.129796
11.2200,162.5730648,-2.201947409,1258.016078
11.2250,162.9247792,-2.366472113,1257.901934
11.2300,163.2765987,-2.533925601,1257.787393
11.2350,163.6278762,-2.70555963,1257.672399
11.2400,163.9775178,-2.880725507,1257.557308
11.2450,164.3251879,-3.060546951,1257.442019
11.2500,164.6706871,-3.244697794,1257.326671
11.2550,165.0128344,-3.432800291,1257.211696
11.2600,165.3508575,-3.626318615,1257.097023
11.2650,165.6847184,-3.824246745,1256.982834
11.2700,166.0133556,-4.026836529,1256.869258
11.2750,166.3375249,-4.233295454,1256.756283
11.2800,166.656889,-4.444240417,1256.643892
11.2850,166.9697016,-4.65988246,1256.532265
11.2900,167.2769801,-4.879035464,1256.421498
11.2950,167.5791023,-5.102503517,1256.311238
11.3000,167.8765954,-5.331156281,1256.201355
11.3050,168.1696258,-5.564447474,1256.091707
11.3100,168.4576378,-5.802787885,1255.982482
11.3150,168.7402184,-6.046249586,1255.873624
11.3200,169.0171251,-6.293516599,1255.765462
11.3250,169.2877586,-6.54541776,1255.657944
11.3300,169.5524005,-6.80154591,1255.551006
11.3350,169.8104569,-7.061165599,1255.444965
11.3400,170.063565,-7.323921909,1255.339571
11.3450,170.3117836,-7.590323648,1255.234732
11.3500,170.5564269,-7.858437243,1255.130541
11.3550,170.7978368,-8.128815462,1255.026835
11.3600,171.0357897,-8.400370168,1254.923853
11.3650,171.2713032,-8.673392614,1254.821396
11.3700,171.5029487,-8.946744471,1254.719799
11.3750,171.7298256,-9.220963251,1254.619032
11.3800,171.9522497,-9.49569612,1254.519186
11.3850,172.1700278,-9.769532798,1254.420525
11.3900,172.3824101,-10.04285174,1254.322977
11.3950,172.5893294,-10.31433834,1254.226796
11.4000,172.7909248,-10.58322398,1254.132067
11.4050,172.9866161,-10.84939852,1254.038902
11.4100,173.1770872,-11.11066778,1253.947595
11.4150,173.3626904,-11.36827244,1253.857803
11.4200,173.5440467,-11.62171812,1253.769369
11.4250,173.7221171,-11.86932779,1253.682349
11.4300,173.8952182,-12.11273491,1253.596683
11.4350,174.0636791,-12.35140375,1253.512463
11.4400,174.2250515,-12.58514445,1253.429986
11.4450,174.3804039,-12.81427061,1253.349143
11.4500,174.5291352,-13.03944566,1253.269879
11.4550,174.6706749,-13.26115653,1253.192073
11.4600,174.8050101,-13.4793687,1253.115829
11.4650,174.9319984,-13.69366162,1253.041136
11.4700,175.0520627,-13.90484326,1252.967842
11.4750,175.1661203,-14.11242263,1252.896029
11.4800,175.2744741,-14.31537856,1252.825717
11.4850,175.3766337,-14.5134508,1252.756892
11.4900,175.4736332,-14.70495316,1252.689768
11.4950,175.5657631,-14.89091412,1252.624058
11.5000,175.6533532,-15.06989877,1252.559823
11.5050,175.7368469,-15.24231886,1252.497021
11.5100,175.8143555,-15.40843848,1252.435804
11.5150,175.8873791,-15.5677347,1252.375969
11.5200,175.9542999,-15.72188992,1252.317554
11.5250,176.0164796,-15.87142101,1252.260072
11.5300,176.0735939,-16.0170015,1252.203452
11.5350,176.1251362,-16.1579949,1252.14784
11.5400,176.1703289,-16.29585833,1252.093091
11.5450,176.2099704,-16.43044602,1252.038914
11.5500,176.2430282,-16.56090384,1251.985616
11.5550,176.2709964,-16.68858546,1251.932702
11.5600,176.2934425,-16.81172035,1251.880394
11.5650,176.3115674,-16.93160628,1251.828378
11.5700,176.3255666,-17.04820573,1251.776733
11.5750,176.3355831,-17.16231469,1251.725331
11.5800,176.3418913,-17.27317407,1251.674275
11.5850,176.3446598,-17.38140644,1251.623523
11.5900,176.3437763,-17.48710577,1251.573024
11.5950,176.3385813,-17.5908188,1251.522878
11.6000,176.3292085,-17.69186868,1251.47312
11.6050,176.3159566,-17.79149678,1251.42358
11.6100,176.2990309,-17.88892511,1251.374245
11.6150,176.2779216,-17.98494228,1251.325106
11.6200,176.2521598,-18.0808626,1251.275952
11.6250,176.221863,-18.1750976,1251.226995
11.6300,176.186714,-18.2689379,1251.178231
11.6350,176.146996,-18.36038723,1251.129823
11.6400,176.1016761,-18.45010199,1251.081815
11.6450,176.0523857,-18.53641792,1251.034244
11.6500,175.9981676,-18.61979331,1250.987207
11.6550,175.939896,-18.69844213,1250.940923
11.6600,175.8776424,-18.77122361,1250.895642
11.6650,175.8108753,-18.83840015,1250.851332
11.6700,175.7406904,-18.89886746,1250.808095
11.6750,175.6673225,-18.952666,1250.765889
11.6800,175.5906334,-18.99963275,1250.724664
11.6850,175.5102936,-19.03899944,1250.684568
11.6900,175.427488,-19.07097654,1250.645379
11.6950,175.3418212,-19.09571356,1250.607106
11.7000,175.2546966,-19.11422983,1250.569379
11.7050,175.1643975,-19.12698649,1250.532393
11.7100,175.0717601,-19.13422694,1250.496034
11.7150,174.9758599,-19.13460295,1250.460716
11.7200,174.8779163,-19.1284205,1250.426307
11.7250,174.7767832,-19.11637461,1250.393015
11.7300,174.6744097,-19.09678026,1250.36097
11.7350,174.5692359,-19.06979635,1250.330355
11.7400,174.4639816,-19.03549182,1250.300948
11.7450,174.3580154,-18.99276703,1250.273021
11.7500,174.2518252,-18.94119792,1250.246623
11.7550,174.145551,-18.88031671,1250.221903
11.7600,174.0388958,-18.81189843,1250.198568
11.7650,173.9325006,-18.73610861,1250.176494
11.7700,173.8257765,-18.65237098,1250.155882
11.7750,173.7175141,-18.56147482,1250.136693
11.7800,173.6082898,-18.46310872,1250.118941
11.7850,173.4981422,-18.35812768,1250.102465
11.7900,173.3871039,-18.24622696,1250.087342
11.7950,173.2754988,-18.12626952,1250.073746
11.8000,173.1633476,-18.00026775,1250.061398
11.8050,173.0522499,-17.86753988,1250.050174
11.8100,172.9423418,-17.72828669,1250.040098
11.8150,172.8326969,-17.58349457,1250.031105
11.8200,172.7240826,-17.43260934,1250.02315
11.8250,172.6157919,-17.27732196,1250.01614
11.8300,172.5081098,-17.11869567,1250.009875
11.8350,172.4007861,-16.95802041,1250.004051
11.8400,172.2952785,-16.79633471,1249.998392
11.8450,172.1904156,-16.63548973,1249.992696
11.8500,172.0861593,-16.47904601,1249.986365
11.8550,171.9811692,-16.32746767,1249.97932
11.8600,171.8741975,-16.18254517,1249.971418
11.8650,171.7640034,-16.04624286,1249.962321
11.8700,171.6513457,-15.92070813,1249.951373
11.8750,171.5336366,-15.80660322,1249.938695
11.8800,171.4112326,-15.7051109,1249.923895
11.8850,171.284059,-15.61740617,1249.906745
11.8900,171.1503331,-15.54436714,1249.887276
11.8950,171.0095743,-15.48742122,1249.865222
11.9000,170.861109,-15.4460225,1249.840635
11.9050,170.7024697,-15.42096443,1249.813734
11.9100,170.533746,-15.41247522,1249.784495
11.9150,170.3543139,-15.41914823,1249.753213
11.9200,170.1636348,-15.44153584,1249.719916
11.9250,169.9620812,-15.47898205,1249.684745
11.9300,169.7480903,-15.52980411,1249.648104
11.9350,169.5213191,-15.59397479,1249.610128
11.9400,169.2830275,-15.6696057,1249.571009
11.9450,169.031379,-15.75621302,1249.531059
11.9500,168.7668852,-15.8528882,1249.490436
11.9550,168.4903818,-15.95920459,1249.449054
11.9600,168.2034829,-16.07518352,1249.40669
11.9650,167.907067,-16.1994192,1249.363416
11.9700,167.6000993,-16.33283726,1249.319302
11.9750,167.2840405,-16.47318374,1249.274634
11.9800,166.960424,-16.61865974,1249.229556
11.9850,166.6294802,-16.76811518,1249.184262
11.9900,166.2912099,-16.92082439,1249.139033
11.9950,165.9457779,-17.07587995,1249.094051
12.0000,165.5930118,-17.23082227,1249.049715
12.0050,165.233961,-17.38389196,1249.006078
12.0100,164.8693453,-17.53335578,1248.96323
12.0150,164.5019521,-17.67829251,1248.920918
12.0200,164.1320214,-17.81768016,1248.879195
12.0250,163.7616633,-17.95037671,1248.837885
12.0300,163.3927069,-18.07637267,1248.796686
12.0350,163.0278393,-18.19555552,1248.755291
12.0400,162.6679918,-18.3071509,1248.713664
12.0450,162.313695,-18.41304781,1248.671424
12.0500,161.9659915,-18.51260989,1248.628459
12.0550,161.6269428,-18.60707432,1248.584317
12.0600,161.2972339,-18.69461176,1248.539227
12.0650,160.9783221,-18.77713743,1248.49283
12.0700,160.6723583,-18.85409253,1248.444772
12.0750,160.3814419,-18.92595458,1248.39471
12.0800,160.1080503,-18.99273985,1248.342406
12.0850,159.8551182,-19.05344836,1248.287535
12.0900,159.623821,-19.10942691,1248.229673
12.0950,159.4162623,-19.16035788,1248.168591
12.1000,159.2335622,-19.2062686,1248.104033
12.1050,159.0731998,-19.24753913,1248.036296
12.1100,158.9341783,-19.28435247,1247.965488
12.1150,158.8157873,-19.3177346,1247.891671
12.1200,158.7153023,-19.34805627,1247.81503
12.1250,158.631569,-19.37635547,1247.735722
12.1300,158.5613455,-19.4024984,1247.65429
12.1350,158.5015771,-19.42767783,1247.57106
12.1400,158.4483643,-19.45328276,1247.486406
12.1450,158.3991454,-19.48019096,1247.400761
12.1500,158.3519715,-19.50890489,1247.314296
12.1550,158.3043542,-19.54064696,1247.227463
12.1600,158.2554271,-19.57861559,1247.139888
12.1650,158.2032207,-19.62389239,1247.051902
12.1700,158.1434833,-19.67698976,1246.964258
12.1750,158.0758478,-19.74100904,1246.876695
12.1800,157.9969871,-19.81844312,1246.789466
12.1850,157.9065922,-19.91005647,1246.702624
12.1900,157.8039409,-20.01782743,1246.616099
12.1950,157.6876898,-20.14169416,1246.530184
12.2000,157.5572466,-20.28317357,1246.444885
12.2050,157.4134368,-20.44222588,1246.360157
12.2100,157.2552002,-20.61919167,1246.276133
12.2150,157.0830434,-20.81420264,1246.19272
12.2200,156.8987192,-21.02497931,1246.110125
12.2250,156.7025636,-21.25109525,1246.028332
12.2300,156.496411,-21.4907928,1245.947287
12.2350,156.2805214,-21.74422631,1245.866953
12.2400,156.0548366,-22.0091549,1245.787674
12.2450,155.8198436,-22.28510054,1245.709338
12.2500,155.5760565,-22.57128561,1245.631897
12.2550,155.322722,-22.86569547,1245.555755
12.2600,155.0594669,-23.16766419,1245.481035
12.2650,154.7868474,-23.47466389,1245.40802
12.2700,154.5057998,-23.78402268,1245.336961
12.2750,154.2163315,-24.09653431,1245.267694
12.2800,153.9181687,-24.410502,1245.200417
12.2850,153.612884,-24.72415482,1245.135126
12.2900,153.3013334,-25.0365888,1245.071682
12.2950,152.9840281,-25.34699113,1245.010073
12.3000,152.6622324,-25.65420918,1244.950163
12.3050,152.3377104,-25.95710522,1244.891821
12.3100,152.0123847,-26.25678877,1244.8346
12.3150,151.6855924,-26.55214312,1244.778607
12.3200,151.3589149,-26.84303249,1244.723614
12.3250,151.0329945,-27.12858959,1244.669557
12.3300,150.7080043,-27.40810254,1244.616486
12.3350,150.383903,-27.68172619,1244.564199
12.3400,150.0615334,-27.94922676,1244.512538
12.3450,149.7423957,-28.20880291,1244.461397
12.3500,149.4266167,-28.46151433,1244.410648
12.3550,149.1161624,-28.70589887,1244.360057
12.3600,148.8128165,-28.94062335,1244.309508
12.3650,148.5181979,-29.16446579,1244.258743
12.3700,148.2334919,-29.37648808,1244.207733
12.3750,147.9591706,-29.57705674,1244.156361
12.3800,147.6956467,-29.76591462,1244.104467
12.3850,147.4427614,-29.94505349,1244.051959
12.3900,147.2009775,-30.1149361,1243.998731
12.3950,146.9697733,-30.27763802,1243.944627
12.4000,146.749672,-30.43312053,1243.889624
12.4050,146.5420402,-30.58323826,1243.833356
12.4100,146.3491396,-30.72877398,1243.775376
12.4150,146.1706619,-30.87132255,1243.715469
12.4200,146.0082091,-31.0127203,1243.653387
12.4250,145.8610201,-31.15363618,1243.58909
12.4300,145.7304752,-31.29454846,1243.522332
12.4350,145.6170526,-31.43631061,1243.453065
12.4400,145.5222678,-31.58019755,1243.380764
12.4450,145.4469399,-31.72502869,1243.305502
12.4500,145.3910759,-31.87050728,1243.227375
12.4550,145.3571813,-32.01794729,1243.145891
12.4600,145.3450032,-32.16593877,1243.061288
12.4650,145.3545761,-32.31571266,1242.973488
12.4700,145.38774,-32.46781053,1242.882123
12.4750,145.4442171,-32.6208548,1242.787408
12.4800,145.5236955,-32.77588756,1242.689352
12.4850,145.6252867,-32.93228515,1242.588196
12.4900,145.7500949,-33.09004373,1242.483789
12.4950,145.8973037,-33.24921881,1242.376392
12.5000,146.0661444,-33.40970292,1242.266155
12.5050,146.2549297,-33.57054275,1242.153502
12.5100,146.4627094,-33.73163152,1242.038692
12.5150,146.6892805,-33.89183509,1241.921985
12.5200,146.9314631,-34.05141828,1241.803741
12.5250,147.1887714,-34.21026288,1241.684157
12.5300,147.4589247,-34.36839138,1241.56364
12.5350,147.741144,-34.524191,1241.442461
12.5400,148.032273,-34.67835806,1241.321
12.5450,148.331673,-34.82963198,1241.199513
12.5500,148.6361292,-34.97758505,1241.078603
12.5550,148.9433501,-35.12228768,1240.958539
12.5600,149.2506942,-35.26390623,1240.839674
12.5650,149.5547659,-35.40295149,1240.722438
12.5700,149.8530146,-35.53917303,1240.607166
12.5750,150.1428784,-35.67136187,1240.494197
12.5800,150.4225242,-35.798571,1240.383919
12.5850,150.6898738,-35.9216671,1240.276485
12.5900,150.9441547,-36.04000371,1240.171943
12.5950,151.1848898,-36.15246404,1240.070503
12.6000,151.4111656,-36.2584831,1239.972226
12.6050,151.6214166,-36.35979927,1239.877275
12.6100,151.8137003,-36.45520186,1239.785974
12.6150,151.9884465,-36.54497646,1239.698163
12.6200,152.14452,-36.62904582,1239.614081
12.6250,152.2814341,-36.70829527,1239.533623
12.6300,152.3990881,-36.7818295,1239.456966
12.6350,152.4984427,-36.85051966,1239.383895
12.6400,152.57764,-36.91454526,1239.314713
12.6450,152.636803,-36.97504611,1239.24937
12.6500,152.6761088,-37.03059499,1239.187957
12.6550,152.6938582,-37.08241441,1239.130716
12.6600,152.6906851,-37.13146735,1239.077457
12.6650,152.665372,-37.17888672,1239.028354
12.6700,152.6182433,-37.22589476,1238.983332
12.6750,152.5497037,-37.27260937,1238.942234
12.6800,152.4588469,-37.32041,1238.905291
12.6850,152.3471687,-37.36758957,1238.872386
12.6900,152.2149105,-37.41441624,1238.843501
12.6950,152.0628634,-37.46124481,1238.818523
12.7000,151.8910955,-37.50779018,1238.797492
12.7050,151.7007439,-37.55457067,1238.780204
12.7100,151.4933352,-37.60244076,1238.766414
12.7150,151.2709007,-37.64938915,1238.755978
12.7200,151.035506,-37.69516039,1238.748619
12.7250,150.7897996,-37.73856094,1238.744085
12.7300,150.5350095,-37.78001563,1238.742129
12.7350,150.275144,-37.81891381,1238.742137
12.7400,150.0134886,-37.85365711,1238.7438
12.7450,149.7525991,-37.88627599,1238.746568
12.7500,149.495681,-37.91598806,1238.750039
12.7550,149.2447579,-37.94249902,1238.753974
12.7600,149.0025555,-37.96616793,1238.757999
12.7650,148.7722715,-37.98597148,1238.761759
12.7700,148.5557823,-38.0024806,1238.765034
12.7750,148.3551064,-38.01743023,1238.767452
12.7800,148.1731959,-38.02953249,1238.768789
12.7850,148.0117706,-38.04075777,1238.768754
12.7900,147.8711591,-38.0513335,1238.767425
12.7950,147.752622,-38.0618774,1238.76465
12.8000,147.6562941,-38.07330145,1238.760401
12.8050,147.5828523,-38.08693552,1238.754606
12.8100,147.532918,-38.10310049,1238.747184
12.8150,147.505505,-38.12431567,1238.738095
12.8200,147.4996999,-38.15045331,1238.727611
12.8250,147.5133618,-38.18248927,1238.715962
12.8300,147.5453931,-38.22057033,1238.703326
12.8350,147.5937454,-38.26582053,1238.689871
12.8400,147.6562632,-38.31841427,1238.6759
12.8450,147.7309851,-38.37932741,1238.661641
12.8500,147.8161382,-38.44795093,1238.647165
12.8550,147.9094563,-38.52546052,1238.632765
12.8600,148.009164,-38.61039678,1238.618559
12.8650,148.1142345,-38.70322443,1238.604615
12.8700,148.2232941,-38.80366465,1238.59103
12.8750,148.3352721,-38.91038123,1238.578032
12.8800,148.4489285,-39.02401813,1238.565639
12.8850,148.5648338,-39.14439894,1238.553718
12.8900,148.681691,-39.27046261,1238.542527
12.8950,148.7990329,-39.40108355,1238.532164
12.9000,148.9169309,-39.53806011,1238.522566
12.9050,149.0368411,-39.67925318,1238.513584
12.9100,149.1581314,-39.82418971,1238.505375
12.9150,149.2812685,-39.9727988,1238.497966
12.9200,149.4069224,-40.1242358,1238.491178
12.9250,149.5343182,-40.27883281,1238.485175
12.9300,149.6643328,-40.43708228,1238.479768
12.9350,149.7960944,-40.59791754,1238.475242
12.9400,149.9303392,-40.76214728,1238.471435
12.9450,150.0670842,-40.92852382,1238.468502
12.9500,150.2060219,-41.09800291,1238.46631
12.9550,150.3470023,-41.27047447,1238.464906
12.9600,150.4901184,-41.44536186,1238.464333
12.9650,150.6340392,-41.62114843,1238.464829
12.9700,150.7784222,-41.79841445,1238.466389
12.9750,150.923144,-41.97656531,1238.4691
12.9800,151.0671278,-42.15466837,1238.47317
12.9850,151.2100003,-42.33426634,1238.478492
12.9900,151.3519741,-42.5140298,1238.485125
12.9950,151.4924782,-42.69340621,1238.493197
13.0000,151.6320251,-42.87248992,1238.502451
13.0050,151.7702501,-43.05086258,1238.513004
13.0100,151.9066297,-43.22776097,1238.524984
13.0150,152.040963,-43.40462784,1238.538265
13.0200,152.1739015,-43.58075167,1238.552807
13.0250,152.305777,-43.75607972,1238.568634
13.0300,152.4384449,-43.93160159,1238.585423
13.0350,152.5720858,-44.10638623,1238.603223
13.0400,152.7054587,-44.28052033,1238.622402
13.0450,152.840565,-44.45349408,1238.642628
13.0500,152.9767987,-44.62628398,1238.664037
13.0550,153.114497,-44.79853239,1238.686537
13.0600,153.254697,-44.97054229,1238.710062
13.0650,153.3968283,-45.14188265,1238.73463
13.0700,153.541276,-45.31290324,1238.760276
13.0750,153.6879647,-45.48241728,1238.787008
13.0800,153.8370684,-45.65086529,1238.814794
13.0850,153.9856972,-45.81821927,1238.844016
13.0900,154.1341535,-45.98361085,1238.874678
13.0950,154.2823586,-46.14747097,1238.906706
13.1000,154.4293681,-46.30954844,1238.940371
13.1050,154.5751151,-46.46917191,1238.975695
13.1100,154.7191333,-46.62577631,1239.012819
13.1150,154.8605018,-46.77926555,1239.051952
13.1200,155.0006162,-46.92997581,1239.092788
13.1250,155.1390129,-47.07742668,1239.13549
13.1300,155.2761917,-47.22223631,1239.179867
13.1350,155.412465,-47.36473836,1239.225889
13.1400,155.5482289,-47.50545767,1239.273458
13.1450,155.6824351,-47.64425325,1239.322616
13.1500,155.8159285,-47.78226994,1239.37325
13.1550,155.9486498,-47.91915459,1239.42526
13.1600,156.0804516,-48.05502794,1239.478814
13.1650,156.2113562,-48.1899929,1239.533864
13.1700,156.3413235,-48.32455336,1239.590306
13.1750,156.4717885,-48.45959991,1239.64798
13.1800,156.6021746,-48.59471681,1239.706972
13.1850,156.7317606,-48.72945603,1239.767304
13.1900,156.8604932,-48.86367873,1239.829031
13.1950,156.9894194,-48.99774071,1239.891928
13.2000,157.1177792,-49.13017726,1239.956116
13.2050,157.2454679,-49.26134079,1240.021468
13.2100,157.3725958,-49.39062791,1240.087972
13.2150,157.4997445,-49.51802144,1240.155413
13.2200,157.6260188,-49.64344307,1240.223919
13.2250,157.753545,-49.76620492,1240.293187
13.2300,157.8802755,-49.88710201,1240.363328
13.2350,158.0076006,-50.00604701,1240.434044
13.2400,158.1355437,-50.12267873,1240.505263
13.2450,158.2650477,-50.23718497,1240.576648
13.2500,158.3963693,-50.35072953,1240.648197
13.2550,158.5305216,-50.46205761,1240.719672
13.2600,158.6673531,-50.57343416,1240.790823
13.2650,158.8074757,-50.68520201,1240.861521
13.2700,158.9512559,-50.79707451,1240.931605
13.2750,159.098248,-50.9089268,1241.001103
13.2800,159.249804,-51.02137362,1241.069675
13.2850,159.405605,-51.13409326,1241.137334
13.2900,159.5654737,-51.24766467,1241.204059
13.2950,159.7299087,-51.36214853,1241.269664
13.3000,159.8985909,-51.4769856,1241.334388
13.3050,160.0714285,-51.59161582,1241.398181
13.3100,160.2487982,-51.70524847,1241.461076
13.3150,160.4308056,-51.81822945,1241.523152
13.3200,160.6176677,-51.92966663,1241.584415
13.3250,160.8091098,-52.0393879,1241.644917
13.3300,161.0051367,-52.14656539,1241.704657
13.3350,161.2045831,-52.25205753,1241.763853
13.3400,161.4077591,-52.3552096,1241.822431
13.3450,161.6135497,-52.45640977,1241.880586
13.3500,161.8221434,-52.55558291,1241.938236
13.3550,162.0321052,-52.65234675,1241.995581
13.3600,162.2425032,-52.74632795,1242.052773
13.3650,162.4535269,-52.83752522,1242.109823
13.3700,162.6630635,-52.92521291,1242.167019
13.3750,162.8712274,-53.00949324,1242.22441
13.3800,163.0767798,-53.09042459,1242.282121
13.3850,163.2806104,-53.16835139,1242.340079
13.3900,163.481911,-53.24291729,1242.398313
13.3950,163.6789059,-53.31366206,1242.457303
13.4000,163.8722112,-53.38041939,1242.516855
13.4050,164.0626929,-53.44291822,1242.576874
13.4100,164.2494305,-53.50102499,1242.637507
13.4150,164.4335033,-53.55341063,1242.698631
13.4200,164.6134465,-53.60044719,1242.760515
13.4250,164.7910764,-53.64121744,1242.822898
13.4300,164.9656815,-53.67601902,1242.885882
13.4350,165.1379574,-53.70454593,1242.949345
13.4400,165.3081351,-53.72655142,1243.013262
13.4450,165.4770958,-53.74221803,1243.077495
13.4500,165.6451701,-53.75087388,1243.141984
13.4550,165.8127159,-53.7522912,1243.206721
13.4600,165.9811413,-53.74715397,1243.271347
13.4650,166.1507175,-53.73518187,1243.335883
13.4700,166.3231007,-53.71500477,1243.40011
13.4750,166.4983651,-53.68675628,1243.463915
13.4800,166.6764957,-53.65048239,1243.527217
13.4850,166.8573944,-53.6048057,1243.59017
13.4900,167.0418627,-53.54982292,1243.652531
13.4950,167.2290531,-53.48564851,1243.714414
13.5000,167.4195351,-53.412304,1243.77559
13.5050,167.6131595,-53.3284707,1243.836137
13.5100,167.8098802,-53.23493562,1243.89597
13.5150,168.008381,-53.13167398,1243.955215
13.5200,168.2090774,-53.01915297,1244.013786
13.5250,168.410486,-52.89712018,1244.071878
13.5300,168.6136998,-52.76672836,1244.129239
13.5350,168.8172847,-52.62753394,1244.186024
13.5400,169.0213076,-52.48055682,1244.242169
13.5450,169.2243878,-52.32652081,1244.297794
13.5500,169.4275375,-52.16559598,1244.352727
13.5550,169.6289916,-51.99924039,1244.407239
13.5600,169.8287649,-51.82741339,1244.461305
13.5650,170.0275648,-51.65091877,1244.514902
13.5700,170.2235929,-51.47042632,1244.568244
13.5750,170.4181238,-51.28774649,1244.621136
13.5800,170.6099065,-51.10384831,1244.673646
13.5850,170.7982324,-50.91872705,1244.72598
13.5900,170.9835006,-50.73398787,1244.777949
13.5950,171.1665496,-50.54960341,1244.829466
13.6000,171.3464535,-50.36667607,1244.880572
13.6050,171.5243995,-50.18582717,1244.931176
13.6100,171.698871,-50.00686593,1244.98143
13.6150,171.8704569,-49.82977837,1245.031193
13.6200,172.0385608,-49.65597024,1245.08055
13.6250,172.2035642,-49.4842914,1245.129493
13.6300,172.3647236,-49.31505884,1245.178217
13.6350,172.5219461,-49.14801562,1245.226586
13.6400,172.6748074,-48.98333671,1245.274708
13.6450,172.8235291,-48.81916691,1245.322592
13.6500,172.9664236,-48.65533621,1245.370437
13.6550,173.1045836,-48.49171732,1245.418281
13.6600,173.2371849,-48.32841795,1245.466087
13.6650,173.3635826,-48.1655058,1245.51406
13.6700,173.4840125,-48.00234554,1245.5622
13.6750,173.5982952,-47.83887817,1245.610611
13.6800,173.7063961,-47.67497909,1245.65941
13.6850,173.8071932,-47.508794,1245.708849
13.6900,173.8998602,-47.34137792,1245.759058
13.6950,173.9845977,-47.17222616,1245.809973
13.7000,174.0620101,-47.00189935,1245.861531
13.7050,174.1305837,-46.830318,1245.913994
13.7100,174.1901579,-46.65638734,1245.967396
13.7150,174.2415311,-46.48186646,1246.021484
13.7200,174.2848756,-46.30489326,1246.076271
13.7250,174.3195214,-46.12723624,1246.131689
13.7300,174.3453539,-45.9471746,1246.187888
13.7350,174.3616253,-45.76604465,1246.244794
13.7400,174.3689348,-45.58319952,1246.302392
13.7450,174.3676889,-45.39905262,1246.360455
13.7500,174.3581945,-45.21346266,1246.41909
13.7550,174.3412791,-45.026765,1246.478012
13.7600,174.3171409,-44.83886345,1246.53722
13.7650,174.2861833,-44.64901623,1246.59664
13.7700,174.2485419,-44.45753034,1246.656254
