type,name,time_units,begin_time,frequency,count,units
signal_3d,"Noraxon MyoMotion-Trajectories-Radial styloid process RT","s",0.0000,200,5088,"mm"

time,x,y,z
0.0000,222.3036814,106.2093672,997.035384
0.0050,222.3120906,106.1410649,997.0154339
0.0100,222.3204907,106.0727576,996.9954982
0.0150,222.3288817,106.0044452,996.9755768
0.0200,222.3341922,105.9320393,996.954588
0.0250,222.3357967,105.8561713,996.9327336
0.0300,222.3331675,105.7775047,996.9102204
0.0350,222.32591,105.6967035,996.8872481
0.0400,222.3137854,105.6144135,996.8640037
0.0450,222.2967316,105.5312517,996.8406579
0.0500,222.2748745,105.4477959,996.8173615
0.0550,222.2485209,105.3645712,996.7942412
0.0600,222.2181346,105.2820398,996.7713989
0.0650,222.184311,105.2005971,996.7489131
0.0700,222.1477522,105.1205703,996.7268391
0.0750,222.1092411,105.0422151,996.7052099
0.0800,222.0696128,104.9657184,996.6840386
0.0850,222.0297279,104.8912085,996.6633239
0.0900,221.9904494,104.8187698,996.6430563
0.0950,221.9526233,104.7484589,996.6232232
0.1000,221.9170565,104.680315,996.6038135
0.1050,221.8844926,104.6143656,996.5848199
0.1100,221.855588,104.550632,996.5662416
0.1150,221.8308913,104.4891351,996.5480848
0.1200,221.8108298,104.4299003,996.530365
0.1250,221.7957021,104.3729625,996.5131086
0.1300,221.7856796,104.3183741,996.4963533
0.1350,221.7808153,104.2662061,996.4801467
0.1400,221.7810543,104.2165392,996.4645403
0.1450,221.7862442,104.1694447,996.4495835
0.1500,221.7961431,104.1249633,996.4353173
0.1550,221.8128755,103.9885452,996.3925037
0.1600,221.8309879,103.8548833,996.3504918
0.1650,221.8508931,103.7244766,996.309378
0.1700,221.8725114,103.5974391,996.2692092
0.1750,221.8948444,103.4725141,996.2298776
0.1800,221.917387,103.3505751,996.1914771
0.1850,221.9408469,103.2299504,996.1535306
0.1900,221.9642133,103.110856,996.1160886
0.1950,221.9860341,102.9933757,996.0792334
0.2000,222.0083893,102.8771111,996.0428388
0.2050,222.0307933,102.7622499,996.0067064
0.2100,222.0535409,102.6476981,995.970719
0.2150,222.0741951,102.5345501,995.935195
0.2200,222.0946012,102.4231533,995.9001423
0.2250,222.1126484,102.3124724,995.8652665
0.2300,222.1300146,102.2031227,995.8306174
0.2350,222.1445791,102.0945082,995.7962163
0.2400,222.1582595,101.9869753,995.7620998
0.2450,222.1696844,101.8796088,995.7278236
0.2500,222.1808131,101.773848,995.6939365
0.2550,222.1911941,101.6688723,995.6602081
0.2600,222.2007488,101.56567,995.6267693
0.2650,222.2104302,101.4625459,995.5932957
0.2700,222.218419,101.3598656,995.5597651
0.2750,222.2250968,101.2570238,995.5261631
0.2800,222.2294417,101.1548341,995.4927344
0.2850,222.2327944,101.0526484,995.4592588
0.2900,222.2340206,100.9515423,995.4259212
0.2950,222.234283,100.8518171,995.3927557
0.3000,222.2324268,100.7528193,995.3594754
0.3050,222.228901,100.6554864,995.3265657
0.3100,222.2233613,100.5581334,995.2935235
0.3150,222.2155684,100.4628027,995.2608901
0.3200,222.2067029,100.3690534,995.2284335
0.3250,222.1957229,100.2765186,995.1961058
0.3300,222.1822857,100.1866587,995.1644115
0.3350,222.1668782,100.0986639,995.1331347
0.3400,222.1495006,100.013548,995.1025184
0.3450,222.1314691,99.93055632,995.0721831
0.3500,222.1110541,99.85019238,995.0425782
0.3550,222.0902459,99.77230122,995.0136302
0.3600,222.0677924,99.69758664,994.985358
0.3650,222.0443843,99.62605028,994.957745
0.3700,222.0202579,99.55815124,994.9310621
0.3750,221.9952631,99.4935888,994.9050947
0.3800,221.9690059,99.43259727,994.8799258
0.3850,221.9422656,99.37559635,994.8558007
0.3900,221.913641,99.3226991,994.8325421
0.3950,221.8838067,99.27443425,994.8105659
0.4000,221.8507587,99.23061704,994.789923
0.4050,221.8141651,99.19188542,994.7706547
0.4100,221.7743246,99.15791705,994.752887
0.4150,221.7308481,99.12804294,994.7362705
0.4200,221.6842039,99.10392864,994.7211984
0.4250,221.6327845,99.08458264,994.7075632
0.4300,221.577258,99.07056974,994.6956026
0.4350,221.5176865,99.06108726,994.6851789
0.4400,221.4534881,99.055447,994.6760576
0.4450,221.3841055,99.05463741,994.6683116
0.4500,221.3094822,99.05824152,994.6621988
0.4550,221.2305881,99.06537459,994.6574572
0.4600,221.146655,99.07666124,994.6541391
0.4650,221.0593372,99.09218977,994.6524448
0.4700,220.9675358,99.11202733,994.6522853
0.4750,220.8718141,99.13533736,994.6533759
0.4800,220.7722864,99.16289284,994.6560023
0.4850,220.6684341,99.19487214,994.6602172
0.4900,220.5608744,99.23022078,994.6656853
0.4950,220.4489054,99.26874343,994.6723902
0.5000,220.3322545,99.31189272,994.6807954
0.5050,220.2093126,99.3582749,994.6906401
0.5100,220.0803067,99.4078232,994.7018097
0.5150,219.9458968,99.45965719,994.7141221
0.5200,219.8048136,99.5138345,994.7277734
0.5250,219.6580026,99.57090482,994.7426426
0.5300,219.505511,99.62886998,994.7582909
0.5350,219.3459391,99.68822851,994.7747074
0.5400,219.1791058,99.74839564,994.7918891
0.5450,219.0054973,99.8104799,994.8099318
0.5500,218.8247843,99.8729214,994.8285064
0.5550,218.6369061,99.93535565,994.8475664
0.5600,218.4421722,99.99721413,994.8666433
0.5650,218.2403437,100.059863,994.8863285
0.5700,218.0322434,100.1237213,994.9066949
0.5750,217.8176153,100.1867216,994.9270031
0.5800,217.5975358,100.2495595,994.9476567
0.5850,217.3701954,100.3120298,994.9684919
0.5900,217.1373431,100.3745159,994.9897492
0.5950,216.8985248,100.4355828,995.0110816
0.6000,216.653448,100.4955136,995.0326957
0.6050,216.4023584,100.5543846,995.0543996
0.6100,216.1459324,100.6126892,995.076524
0.6150,215.8830725,100.6695368,995.098756
0.6200,215.6137834,100.7258521,995.1215494
0.6250,215.338617,100.7812176,995.1447758
0.6300,215.0580525,100.8359853,995.1685062
0.6350,214.7714359,100.8906611,995.192918
0.6400,214.4784937,100.9445901,995.2178678
0.6450,214.1788437,100.9991841,995.2438699
0.6500,213.8737747,101.0533185,995.2704486
0.6550,213.5615987,101.1079263,995.2979778
0.6600,213.2445919,101.1626144,995.3263313
0.6650,212.9217031,101.217969,995.3557331
0.6700,212.5926006,101.2736801,995.3861517
0.6750,212.2572478,101.3295811,995.4176978
0.6800,211.9164671,101.3860622,995.4504121
0.6850,211.5691953,101.4424209,995.4840966
0.6900,211.2164236,101.4987934,995.5190812
0.6950,210.8577384,101.556268,995.55542
0.7000,210.4947136,101.6134219,995.5926695
0.7050,210.126677,101.6705521,995.6310543
0.7100,209.7538747,101.7282683,995.6708039
0.7150,209.37443,101.7881822,995.7125526
0.7200,208.9858589,101.8487489,995.7559463
0.7250,208.5915278,101.9098987,995.8010795
0.7300,208.1893001,101.9723414,995.8483094
0.7350,207.7779791,102.0361565,995.8975392
0.7400,207.3580592,102.1030051,995.9494056
0.7450,206.9291838,102.171748,996.0037478
0.7500,206.4918985,102.2425407,996.0604417
0.7550,206.0448447,102.316097,996.1199373
0.7600,205.5873742,102.3921854,996.1824624
0.7650,205.1181263,102.4715305,996.2482983
0.7700,204.6382984,102.5529245,996.3173373
0.7750,204.14615,102.6379049,996.3900021
0.7800,203.6428901,102.7263156,996.4663296
0.7850,203.1283177,102.8174496,996.5464195
0.7900,202.6031789,102.9124819,996.630624
0.7950,202.0660619,103.010783,996.7189289
0.8000,201.5173344,103.1124249,996.811444
0.8050,200.9588082,103.2175534,996.9082694
0.8100,200.3903909,103.3274518,997.0095643
0.8150,199.8113289,103.4426684,997.1158884
0.8200,199.2224132,103.5621954,997.226899
0.8250,198.6242165,103.686251,997.3431231
0.8300,198.0159059,103.8157242,997.4648638
0.8350,197.3993304,103.9511405,997.5923311
0.8400,196.7741345,104.0909338,997.7253018
0.8450,196.1405653,104.2352581,997.8640542
0.8500,195.4985141,104.3843706,998.0087338
0.8550,194.8479308,104.5388087,998.1596799
0.8600,194.189768,104.6981948,998.3170838
0.8650,193.5225619,104.8625786,998.4811226
0.8700,192.8483524,105.0312212,998.6515751
0.8750,192.1668516,105.2049465,998.829095
0.8800,191.4777544,105.3825496,999.0133684
0.8850,190.7811782,105.5652021,999.2050901
0.8900,190.0779613,105.7507216,999.4037309
0.8950,189.3678444,105.9405236,999.6099101
0.9000,188.6517948,106.1346388,999.8238273
0.9050,187.9300886,106.3336214,1000.045853
0.9100,187.2011421,106.5374446,1000.276273
0.9150,186.4659818,106.7465345,1000.515467
0.9200,185.7240366,106.9595385,1000.76315
0.9250,184.9763897,107.1783076,1001.019876
0.9300,184.2215647,107.4012278,1001.285589
0.9350,183.4608114,107.6296438,1001.560705
0.9400,182.6918429,107.8633704,1001.845435
0.9450,181.9155328,108.1007923,1002.139395
0.9500,181.131214,108.3429149,1002.443104
0.9550,180.3389424,108.5901376,1002.75672
0.9600,179.5372233,108.8413957,1003.080132
0.9650,178.7257096,109.096859,1003.413621
0.9700,177.904036,109.3565787,1003.757026
0.9750,177.0725129,109.6195696,1004.110141
0.9800,176.2283194,109.8861072,1004.473138
0.9850,175.3736312,110.156409,1004.846124
0.9900,174.5067969,110.4300214,1005.22896
0.9950,173.6276273,110.7056764,1005.621364
1.0000,172.7349469,110.9835924,1006.02374
1.0050,171.8283809,111.264823,1006.436302
1.0100,170.9069087,111.5475458,1006.858541
1.0150,169.9725804,111.8315156,1007.290362
1.0200,169.0243579,112.1159306,1007.731824
1.0250,168.0611425,112.4008673,1008.18281
1.0300,167.0830577,112.6867152,1008.643602
1.0350,166.0911701,112.9728205,1009.113903
1.0400,165.0839882,113.2583102,1009.593792
1.0450,164.0627884,113.5431651,1010.083384
1.0500,163.0266299,113.8282595,1010.582802
1.0550,161.9770447,114.1127578,1011.091891
1.0600,160.9143124,114.3964314,1011.61047
1.0650,159.8393314,114.6799479,1012.138697
1.0700,158.7513506,114.9634981,1012.676664
1.0750,157.6514386,115.246755,1013.224206
1.0800,156.5391468,115.529374,1013.781289
1.0850,155.4147993,115.8120916,1014.348005
1.0900,154.2786461,116.0945935,1014.924027
1.0950,153.133021,116.3778102,1015.509457
1.1000,151.9776102,116.6616182,1016.104161
1.1050,150.8133405,116.9459132,1016.70798
1.1100,149.6402927,117.2301962,1017.320956
1.1150,148.4610185,117.5147953,1017.942538
1.1200,147.2751391,117.8001512,1018.57307
1.1250,146.083137,118.0869385,1019.212155
1.1300,144.8849268,118.3741552,1019.859799
1.1350,143.6824558,118.6628227,1020.515931
1.1400,142.4771958,118.9546747,1021.180493
1.1450,141.2691092,119.2489684,1021.8538
1.1500,140.0593943,119.5475773,1022.53598
1.1550,138.84873,119.8504791,1023.227119
1.1600,137.6382437,120.1577547,1023.927043
1.1650,136.4300823,120.4701565,1024.6359
1.1700,135.2229038,120.7873501,1025.353972
1.1750,134.0183624,121.1108339,1026.081625
1.1800,132.8173177,121.4405152,1026.818806
1.1850,131.6207401,121.7764778,1027.565334
1.1900,130.4279705,122.1203528,1028.322345
1.1950,129.2391226,122.4710517,1029.089636
1.2000,128.0541499,122.8285585,1029.86726
1.2050,126.8737355,123.1932346,1030.655711
1.2100,125.6975,123.5658705,1031.454875
1.2150,124.5263429,123.9457232,1032.264904
1.2200,123.3606479,124.3342921,1033.086067
1.2250,122.1992338,124.7302817,1033.918388
1.2300,121.0426903,125.135131,1034.762006
1.2350,119.8909445,125.5479868,1035.617255
1.2400,118.7464378,125.9694278,1036.483737
1.2450,117.6078293,126.3989371,1037.361927
1.2500,116.4748648,126.8367046,1038.251743
1.2550,115.347692,127.2819713,1039.153447
1.2600,114.2265344,127.7343381,1040.066921
1.2650,113.1126702,128.1942415,1040.992028
1.2700,112.0049487,128.6598744,1041.928968
1.2750,110.9025409,129.1331744,1042.878478
1.2800,109.8074768,129.6118158,1043.839696
1.2850,108.7172054,130.0967044,1044.813538
1.2900,107.6311531,130.5869724,1045.800312
1.2950,106.5489158,131.0823179,1046.800124
1.3000,105.4712165,131.5836712,1047.812925
1.3050,104.3977857,132.089659,1048.83883
1.3100,103.3287539,132.6013538,1049.87786
1.3150,102.2630225,133.1184355,1050.930422
1.3200,101.2010636,133.6418577,1051.996134
1.3250,100.1407173,134.1716946,1053.07618
1.3300,99.08308489,134.7077727,1054.16963
1.3350,98.02716198,135.2507982,1055.277088
1.3400,96.97361873,135.8007648,1056.398427
1.3450,95.92250054,136.3576859,1057.533131
1.3500,94.87319936,136.921531,1058.681544
1.3550,93.82448202,137.4922372,1059.843657
1.3600,92.77707245,138.0701058,1061.019587
1.3650,91.72993783,138.6545275,1062.20892
1.3700,90.68333155,139.2452571,1063.411485
1.3750,89.63853294,139.8414585,1064.627111
1.3800,88.59566843,140.4423869,1065.855947
1.3850,87.55399514,141.048022,1067.097518
1.3900,86.51323985,141.6570605,1068.352699
1.3950,85.47395226,142.2693541,1069.620836
1.4000,84.43573827,142.8834925,1070.90179
1.4050,83.39754409,143.4998802,1072.195955
1.4100,82.35904983,144.1174255,1073.503317
1.4150,81.32023033,144.73653,1074.824162
1.4200,80.28152771,145.3563439,1076.157758
1.4250,79.24318679,145.9765447,1077.504464
1.4300,78.20590993,146.5986444,1078.864347
1.4350,77.16994957,147.221253,1080.237114
1.4400,76.13338224,147.8438001,1081.623178
1.4450,75.09630544,148.4662653,1083.021712
1.4500,74.05980285,149.0881431,1084.432668
1.4550,73.02320579,149.7082852,1085.854917
1.4600,71.98628457,150.3265207,1087.288245
1.4650,70.94852904,150.9423461,1088.731933
1.4700,69.91077165,151.5567992,1090.185894
1.4750,68.87253743,152.1689027,1091.649308
1.4800,67.83453627,152.7797603,1093.12266
1.4850,66.79718175,153.3876757,1094.604983
1.4900,65.75969272,153.9930668,1096.09604
1.4950,64.72273862,154.5955129,1097.595227
1.5000,63.68736151,155.1957343,1099.102421
1.5050,62.65236884,155.7923007,1100.617066
1.5100,61.62003569,156.3847511,1102.138782
1.5150,60.58956821,156.9727238,1103.667214
1.5200,59.56105518,157.5559882,1105.202511
1.5250,58.53462978,158.1346102,1106.744309
1.5300,57.51012615,158.7073977,1108.292343
1.5350,56.48820854,159.2747451,1109.845229
1.5400,55.46783691,159.8367266,1111.403977
1.5450,54.44934788,160.3924822,1112.967274
1.5500,53.43370073,160.9424642,1114.535206
1.5550,52.42005357,161.4861563,1116.107468
1.5600,51.40911855,162.0245416,1117.683888
1.5650,50.40053332,162.5559883,1119.26396
1.5700,49.39462361,163.081086,1120.846685
1.5750,48.39050732,163.599181,1122.432149
1.5800,47.38870099,164.112924,1124.021017
1.5850,46.3895572,164.6191843,1125.611282
1.5900,45.39396732,165.1192261,1127.202582
1.5950,44.40124824,165.6131046,1128.794985
1.6000,43.4115969,166.0998224,1130.387775
1.6050,42.42603341,166.5794735,1131.980189
1.6100,41.44522914,167.051922,1133.572422
1.6150,40.46833429,167.5166767,1135.163602
1.6200,39.49705571,167.9750631,1136.754041
1.6250,38.5329725,168.4264881,1138.342553
1.6300,37.57542566,168.8701278,1139.930032
1.6350,36.6259881,169.3065027,1141.515636
1.6400,35.684671,169.736259,1143.099243
1.6450,34.75109484,170.1584637,1144.681127
1.6500,33.82590209,170.572845,1146.260988
1.6550,32.91113753,170.9803176,1147.838573
1.6600,32.00581171,171.3811664,1149.414378
1.6650,31.11136854,171.7741721,1150.98767
1.6700,30.22891232,172.1599112,1152.557833
1.6750,29.35779959,172.5389363,1154.125611
1.6800,28.49835228,172.9111929,1155.689901
1.6850,27.65093883,173.2762684,1157.250821
1.6900,26.81600308,173.6345338,1158.806654
1.6950,25.99198342,173.985148,1160.358441
1.7000,25.18036185,174.3290871,1161.905939
1.7050,24.38194115,174.667161,1163.448545
1.7100,23.59719915,174.9985742,1164.986273
1.7150,22.82452756,175.3225764,1166.518248
1.7200,22.0652433,175.6391912,1168.044595
1.7250,21.31789576,175.9475348,1169.564387
1.7300,20.5830862,176.2473978,1171.077468
1.7350,19.85935929,176.5387303,1172.584586
1.7400,19.14781528,176.821359,1174.085105
1.7450,18.44928097,177.0972255,1175.579146
1.7500,17.76282315,177.3648354,1177.066342
1.7550,17.08830879,177.625503,1178.547609
1.7600,16.42552999,177.8790462,1180.023686
1.7650,15.77427449,178.1255388,1181.494211
1.7700,15.13396129,178.3636929,1182.958681
1.7750,14.50581725,178.594475,1184.41772
1.7800,13.88697084,178.8168891,1185.871168
1.7850,13.2772691,179.0316054,1187.320424
1.7900,12.67645076,179.2371916,1188.764434
1.7950,12.08407782,179.4341081,1190.204075
1.8000,11.49898003,179.6220145,1191.639475
1.8050,10.92147049,179.8006964,1193.070249
1.8100,10.35046242,179.9696981,1194.497181
1.8150,9.785356064,180.1300717,1195.920444
1.8200,9.224636814,180.2818102,1197.34017
1.8250,8.667990455,180.4238383,1198.756562
1.8300,8.116413834,180.5581577,1200.169426
1.8350,7.568152529,180.6838243,1201.579855
1.8400,7.023248706,180.7993523,1202.986794
1.8450,6.481826899,180.9078295,1204.390915
1.8500,5.943553954,181.0076477,1205.792312
1.8550,5.408223018,181.09956,1207.190977
1.8600,4.875654471,181.1828563,1208.586925
1.8650,4.344320653,181.2587774,1209.980506
1.8700,3.814262423,181.3272637,1211.372447
1.8750,3.286075448,181.3885331,1212.76181
1.8800,2.758832673,181.4411855,1214.148413
1.8850,2.232673314,181.4879381,1215.53391
1.8900,1.707555785,181.5280065,1216.917189
1.8950,1.183663644,181.5618314,1218.298179
1.9000,0.6609940403,181.5904836,1219.67739
1.9050,0.1386116568,181.6142687,1221.05504
1.9100,-0.383461384,181.6334693,1222.431806
1.9150,-0.9041609513,181.6495259,1223.807568
1.9200,-1.42447887,181.6612751,1225.182659
1.9250,-1.944161034,181.6695948,1226.557043
1.9300,-2.463812417,181.6752959,1227.930923
1.9350,-2.982730538,181.6774962,1229.304638
1.9400,-3.500836874,181.6765343,1230.677323
1.9450,-4.017370251,181.6740794,1232.050109
1.9500,-4.532513325,181.6705677,1233.423022
1.9550,-5.046612268,181.665662,1234.796007
1.9600,-5.558294513,181.660929,1236.168965
1.9650,-6.069086617,181.6569163,1237.542335
1.9700,-6.577909269,181.653581,1238.916479
1.9750,-7.084952216,181.6506167,1240.291282
1.9800,-7.589612647,181.6485403,1241.666444
1.9850,-8.090353387,181.6469408,1243.042241
1.9900,-8.587733816,181.6459161,1244.419518
1.9950,-9.08065172,181.6448775,1245.796669
2.0000,-9.570917554,181.6437678,1247.174045
2.0050,-10.05878567,181.6412365,1248.551521
2.0100,-10.54413901,181.6385231,1249.928421
2.0150,-11.02790618,181.6345213,1251.305704
2.0200,-11.50912753,181.6302056,1252.682444
2.0250,-11.98758158,181.625871,1254.059169
2.0300,-12.46267248,181.6214309,1255.434918
2.0350,-12.93407548,181.6166304,1256.809501
2.0400,-13.40131062,181.6111498,1258.182281
2.0450,-13.86596584,181.6036644,1259.553041
2.0500,-14.32689656,181.5956062,1260.922126
2.0550,-14.78334514,181.5866011,1262.288611
2.0600,-15.23619195,181.5762126,1263.652106
2.0650,-15.6840388,181.5649386,1265.012795
2.0700,-16.12723789,181.5523299,1266.371464
2.0750,-16.56617955,181.5384055,1267.727387
2.0800,-17.00006826,181.5225021,1269.0802
2.0850,-17.42794459,181.5057179,1270.429576
2.0900,-17.8496949,181.488327,1271.776394
2.0950,-18.26581064,181.4704642,1273.120408
2.1000,-18.6745658,181.4532159,1274.461984
2.1050,-19.07644085,181.4353229,1275.801251
2.1100,-19.47119345,181.4164697,1277.13732
2.1150,-19.85839577,181.3963356,1278.47021
2.1200,-20.23706572,181.3746722,1279.799689
2.1250,-20.60692368,181.3516584,1281.125789
2.1300,-20.96946005,181.3255157,1282.448631
2.1350,-21.32503564,181.2966757,1283.767919
2.1400,-21.6726681,181.2647752,1285.083004
2.1450,-22.01361313,181.2289124,1286.3943
2.1500,-22.34777347,181.1896389,1287.701571
2.1550,-22.67535226,181.1468537,1289.004087
2.1600,-22.99740374,181.1000237,1290.302607
2.1650,-23.31292203,181.048774,1291.596892
2.1700,-23.62190169,180.9934963,1292.885754
2.1750,-23.92487175,180.9336031,1294.170355
2.1800,-24.2219842,180.8693171,1295.450742
2.1850,-24.51275505,180.8006153,1296.725694
2.1900,-24.79814052,180.7279993,1297.996412
2.1950,-25.07735342,180.6516094,1299.262695
2.2000,-25.35082608,180.5715611,1300.52504
2.2050,-25.61871769,180.4866163,1301.783689
2.2100,-25.88223554,180.3979606,1303.038376
2.2150,-26.14164818,180.3033662,1304.289534
2.2200,-26.3952685,180.2047002,1305.536225
2.2250,-26.64455092,180.1009741,1306.778854
2.2300,-26.88889416,179.992786,1308.016971
2.2350,-27.12903999,179.879958,1309.251119
2.2400,-27.36544584,179.7636869,1310.482092
2.2450,-27.59804274,179.6433153,1311.709283
2.2500,-27.82725541,179.5186955,1312.93194
2.2550,-28.05349126,179.3904696,1314.150139
2.2600,-28.27609567,179.2578943,1315.363843
2.2650,-28.49495261,179.1207056,1316.573107
2.2700,-28.71088512,178.9798189,1317.778129
2.2750,-28.92386546,178.8350407,1318.978281
2.2800,-29.13375747,178.68728,1320.174364
2.2850,-29.34146712,178.5364924,1321.365087
2.2900,-29.54696644,178.3836657,1322.551553
2.2950,-29.75024772,178.2294251,1323.734232
2.3000,-29.95021795,178.0734586,1324.912062
2.3050,-30.14710047,177.9162422,1326.085971
2.3100,-30.3414114,177.7573599,1327.256108
2.3150,-30.53268751,177.5981559,1328.422111
2.3200,-30.72116266,177.4378236,1329.584891
2.3250,-30.9064708,177.277481,1330.744158
2.3300,-31.08846464,177.1165538,1331.90083
2.3350,-31.26724248,176.9541418,1333.054353
2.3400,-31.44340987,176.7910347,1334.205407
2.3450,-31.61506081,176.6279439,1335.353911
2.3500,-31.78341016,176.4636367,1336.500255
2.3550,-31.9493975,176.2978597,1337.645185
2.3600,-32.11133989,176.1311729,1338.78853
2.3650,-32.27087328,175.9629831,1339.929846
2.3700,-32.42826659,175.7924346,1341.069317
2.3750,-32.58315754,175.6199087,1342.20733
2.3800,-32.73530347,175.4452247,1343.34456
2.3850,-32.88664949,175.2684323,1344.480328
2.3900,-33.03641439,175.089523,1345.614843
2.3950,-33.1832817,174.9077416,1346.748291
2.4000,-33.32866368,174.7223767,1347.881321
2.4050,-33.47249468,174.5345791,1349.013801
2.4100,-33.61525299,174.3449784,1350.146885
2.4150,-33.75624062,174.1528218,1351.279427
2.4200,-33.89601341,173.9581781,1352.412781
2.4250,-34.03406853,173.761198,1353.546154
2.4300,-34.17022768,173.5620803,1354.680077
2.4350,-34.30446086,173.3608073,1355.814015
2.4400,-34.43784166,173.1585124,1356.949364
2.4450,-34.56940533,172.953909,1358.085655
2.4500,-34.70030439,172.7473117,1359.222762
2.4550,-34.8297198,172.5384869,1360.36107
2.4600,-34.95684919,172.3284054,1361.500667
2.4650,-35.08137384,172.1174265,1362.640809
2.4700,-35.20397381,171.9046479,1363.782849
2.4750,-35.32451109,171.690832,1364.925163
2.4800,-35.44366655,171.4757936,1366.067727
2.4850,-35.56164607,171.2597386,1367.210851
2.4900,-35.67851901,171.0414774,1368.354481
2.4950,-35.7946307,170.8213106,1369.498929
2.5000,-35.91059978,170.5998485,1370.643605
2.5050,-36.02627264,170.3776722,1371.788728
2.5100,-36.14015402,170.1550881,1372.933633
2.5150,-36.25251918,169.9328146,1374.078425
2.5200,-36.36411874,169.7104844,1375.223987
2.5250,-36.47318825,169.4895002,1376.369847
2.5300,-36.5808434,169.2692221,1377.516156
2.5350,-36.68562856,169.0515681,1378.662293
2.5400,-36.7882503,168.8351975,1379.807996
2.5450,-36.88808148,168.6203821,1380.953234
2.5500,-36.98375586,168.4081475,1382.098758
2.5550,-37.07531224,168.1982529,1383.244208
2.5600,-37.16388419,167.9894817,1384.38884
2.5650,-37.24823667,167.7828379,1385.531475
2.5700,-37.32886765,167.5780781,1386.672165
2.5750,-37.40587246,167.37592,1387.810259
2.5800,-37.47989701,167.1753886,1388.945821
2.5850,-37.55098294,166.9760373,1390.078606
2.5900,-37.61902404,166.7783647,1391.207639
2.5950,-37.68417894,166.5829331,1392.332563
2.6000,-37.74594407,166.388258,1393.45368
2.6050,-37.80627972,166.1956403,1394.570566
2.6100,-37.86412231,166.0045542,1395.682929
2.6150,-37.91967555,165.8145155,1396.790415
2.6200,-37.9739202,165.6268293,1397.893545
2.6250,-38.02707991,165.4396564,1398.992939
2.6300,-38.07947458,165.2536618,1400.087224
2.6350,-38.13093704,165.0708032,1401.177695
2.6400,-38.18066125,164.8896287,1402.263412
2.6450,-38.22883836,164.7097775,1403.344269
2.6500,-38.27507743,164.5312455,1404.42019
2.6550,-38.31839942,164.3549757,1405.490956
2.6600,-38.35969519,164.18066,1406.557338
2.6650,-38.39807493,164.0081089,1407.619357
2.6700,-38.43287716,163.8375939,1408.676961
2.6750,-38.46573622,163.6687116,1409.729959
2.6800,-38.49530277,163.5017585,1410.77812
2.6850,-38.52048445,163.3348797,1411.821568
2.6900,-38.54144691,163.1688308,1412.859795
2.6950,-38.55855666,163.002877,1413.893869
2.7000,-38.57167139,162.836852,1414.922637
2.7050,-38.5812298,162.6704173,1415.946672
2.7100,-38.58601724,162.5026002,1416.966167
2.7150,-38.58735353,162.3334989,1417.982058
2.7200,-38.58404916,162.1632159,1418.993228
2.7250,-38.57640297,161.990384,1420.000882
2.7300,-38.56371558,161.8152289,1421.004328
2.7350,-38.5449644,161.6375021,1422.00383
2.7400,-38.51958247,161.4557255,1422.998888
2.7450,-38.48724541,161.2706557,1423.990685
2.7500,-38.4477235,161.0813955,1424.978127
2.7550,-38.40003476,160.8891264,1425.961944
2.7600,-38.34457835,160.6939447,1426.941743
2.7650,-38.28014732,160.4953155,1427.918513
2.7700,-38.20633612,160.2937445,1428.891057
2.7750,-38.12189186,160.0888966,1429.85951
2.7800,-38.02750168,159.8804251,1430.823983
2.7850,-37.92432449,159.6687634,1431.784336
2.7900,-37.81145065,159.4536104,1432.739756
2.7950,-37.6896727,159.2359605,1433.690208
2.8000,-37.55952568,159.0148242,1434.634865
2.8050,-37.42146979,158.7903648,1435.572973
2.8100,-37.27634478,158.562035,1436.505016
2.8150,-37.12508614,158.3301047,1437.430092
2.8200,-36.9693522,158.0946213,1438.348163
2.8250,-36.81157255,157.8555108,1439.258956
2.8300,-36.65148638,157.6134825,1440.162296
2.8350,-36.4914838,157.3672098,1441.058326
2.8400,-36.33154301,157.1173858,1441.947246
2.8450,-36.17364232,156.8636654,1442.828954
2.8500,-36.01810135,156.6051835,1443.70283
2.8550,-35.8646043,156.3428072,1444.569359
2.8600,-35.71374567,156.0779661,1445.428722
2.8650,-35.56605363,155.809213,1446.281963
2.8700,-35.42094318,155.5378766,1447.128838
2.8750,-35.27894398,155.2639487,1447.970702
2.8800,-35.13970925,154.9875316,1448.806799
2.8850,-35.00313802,154.7095004,1449.638493
2.8900,-34.87010452,154.4284092,1450.465832
2.8950,-34.74059133,154.1448812,1451.289565
2.9000,-34.61453925,153.8602813,1452.109924
2.9050,-34.49009836,153.5726003,1452.927732
2.9100,-34.36956537,153.2833448,1453.743219
2.9150,-34.25123768,152.9925057,1454.556469
2.9200,-34.13627507,152.698625,1455.367054
2.9250,-34.02404091,152.4034927,1456.175209
2.9300,-33.91492956,152.1054241,1456.981535
2.9350,-33.81035288,151.80486,1457.786088
2.9400,-33.71033845,151.5021251,1458.589045
2.9450,-33.61566988,151.1981672,1459.391295
2.9500,-33.52735875,150.8924701,1460.192333
2.9550,-33.4453385,150.5838235,1460.992088
2.9600,-33.37039865,150.2735765,1461.79104
2.9650,-33.30213438,149.9612661,1462.588862
2.9700,-33.24110066,149.6480903,1463.384657
2.9750,-33.18557684,149.3333292,1464.179066
2.9800,-33.13718213,149.0166305,1464.971665
2.9850,-33.09479106,148.6991882,1465.762949
2.9900,-33.05799109,148.3811409,1466.552789
2.9950,-33.02742461,148.0634871,1467.340642
3.0000,-33.00178439,147.7454401,1468.125808
3.0050,-32.97959001,147.4273197,1468.908066
3.0100,-32.96171313,147.109436,1469.687075
3.0150,-32.94694291,146.792964,1470.462729
3.0200,-32.93580531,146.4770846,1471.235225
3.0250,-32.92694578,146.1639245,1472.003699
3.0300,-32.92160983,145.8530427,1472.768447
3.0350,-32.91908021,145.5436366,1473.529737
3.0400,-32.91922847,145.2378138,1474.287155
3.0450,-32.92268012,144.9343914,1475.040069
3.0500,-32.92848586,144.6341958,1475.788853
3.0550,-32.93701044,144.3366141,1476.532805
3.0600,-32.94780116,144.0423894,1477.271895
3.0650,-32.9623996,143.7507702,1478.006014
3.0700,-32.97940484,143.4625115,1478.735075
3.0750,-32.99962614,143.1777419,1479.459439
3.0800,-33.02143207,142.8968604,1480.178049
3.0850,-33.04418338,142.6190007,1480.890843
3.0900,-33.06823921,142.344903,1481.597734
3.0950,-33.0931875,142.0738478,1482.297739
3.1000,-33.1179152,141.8062389,1482.990919
3.1050,-33.14203353,141.5423094,1483.677258
3.1100,-33.16707212,141.2826302,1484.356188
3.1150,-33.19132396,141.0263863,1485.028076
3.1200,-33.21508159,140.7730537,1485.692287
3.1250,-33.23650146,140.5225841,1486.348358
3.1300,-33.25561699,140.2746912,1486.996526
3.1350,-33.2719198,140.0295191,1487.636845
3.1400,-33.28549068,139.7869146,1488.268423
3.1450,-33.29451067,139.5471331,1488.891308
3.1500,-33.29993445,139.311018,1489.50617
3.1550,-33.30172495,139.07733,1490.112218
3.1600,-33.30071318,138.8458078,1490.709809
3.1650,-33.29643467,138.6167342,1491.298809
3.1700,-33.28850641,138.3887004,1491.879399
3.1750,-33.27591309,138.1625033,1492.450896
3.1800,-33.25919489,137.937388,1493.013801
3.1850,-33.23772145,137.7131097,1493.568696
3.1900,-33.21131054,137.4905668,1494.114861
3.1950,-33.17947127,137.2689444,1494.652761
3.2000,-33.14376095,137.0485451,1495.182846
3.2050,-33.10325304,136.8304789,1495.704688
3.2100,-33.05736094,136.6133999,1496.218228
3.2150,-33.00632848,136.3971395,1496.723443
3.2200,-32.95007081,136.1827005,1497.221292
3.2250,-32.8890594,135.9706015,1497.711391
3.2300,-32.82382469,135.7616698,1498.194334
3.2350,-32.75385571,135.5558378,1498.669797
3.2400,-32.68003547,135.3537725,1499.138796
3.2450,-32.60225788,135.1542791,1499.60031
3.2500,-32.52036925,134.9599224,1500.055072
3.2550,-32.43484145,134.7713708,1500.502869
3.2600,-32.34628478,134.5867243,1500.942776
3.2650,-32.25460429,134.4072526,1501.375883
3.2700,-32.16022201,134.233217,1501.802457
3.2750,-32.06477219,134.0644901,1502.222829
3.2800,-31.96662234,133.9016669,1502.637074
3.2850,-31.86804777,133.7433427,1503.044613
3.2900,-31.76831252,133.5895321,1503.445785
3.2950,-31.66815594,133.4394056,1503.840846
3.3000,-31.56873007,133.2939214,1504.230908
3.3050,-31.46805804,133.1531157,1504.615866
3.3100,-31.36739468,133.016797,1504.995491
3.3150,-31.2662964,132.8832335,1505.370105
3.3200,-31.16426658,132.752213,1505.739373
3.3250,-31.06257417,132.6232652,1506.104376
3.3300,-30.96013933,132.4952384,1506.464461
3.3350,-30.85696119,132.3687342,1506.820103
3.3400,-30.75321314,132.2419495,1507.172141
3.3450,-30.64816618,132.1157527,1507.520297
3.3500,-30.5418149,131.9903935,1507.865575
3.3550,-30.43558263,131.8648868,1508.208137
3.3600,-30.32768706,131.7381995,1508.54791
3.3650,-30.21756816,131.6122041,1508.885458
3.3700,-30.10641859,131.4852743,1509.221046
3.3750,-29.99332197,131.3584918,1509.554415
3.3800,-29.87942201,131.2305262,1509.886016
3.3850,-29.76348413,131.1020092,1510.215594
3.3900,-29.64634876,130.9731366,1510.543787
3.3950,-29.52832223,130.844011,1510.871351
3.4000,-29.40998705,130.7135985,1511.199092
3.4050,-29.29181179,130.5823129,1511.526968
3.4100,-29.17213754,130.4492791,1511.855121
3.4150,-29.05344248,130.3150172,1512.183709
3.4200,-28.93384731,130.1786512,1512.512732
3.4250,-28.81418856,130.0402628,1512.842595
3.4300,-28.69441899,129.8999758,1513.172618
3.4350,-28.57424548,129.7573275,1513.503116
3.4400,-28.45299484,129.6123999,1513.834022
3.4450,-28.33270373,129.465622,1514.165912
3.4500,-28.2143096,129.3161373,1514.498275
3.4550,-28.09732572,129.1646296,1514.831748
3.4600,-27.9804761,129.0109002,1515.165922
3.4650,-27.86614448,128.8553461,1515.501426
3.4700,-27.75431724,128.6988924,1515.837611
3.4750,-27.64523695,128.5418923,1516.174982
3.4800,-27.53722468,128.3841202,1516.51279
3.4850,-27.43211501,128.2265953,1516.850462
3.4900,-27.32915363,128.0689947,1517.18912
3.4950,-27.22920534,127.9126634,1517.52825
3.5000,-27.13215793,127.7567521,1517.867333
3.5050,-27.03800531,127.6024809,1518.206213
3.5100,-26.9471929,127.4503758,1518.545376
3.5150,-26.86090309,127.3006013,1518.884724
3.5200,-26.77930931,127.1531851,1519.223805
3.5250,-26.70095932,127.0081218,1519.562228
3.5300,-26.62763185,126.8650793,1519.900233
3.5350,-26.55866439,126.7247993,1520.236687
3.5400,-26.49273815,126.5877668,1520.571015
3.5450,-26.43024123,126.4541919,1520.903381
3.5500,-26.37094717,126.3221724,1521.233753
3.5550,-26.31456102,126.1913104,1521.561507
3.5600,-26.25887721,126.0622689,1521.885775
3.5650,-26.2046882,125.9349902,1522.206992
3.5700,-26.15100242,125.8089005,1522.52452
3.5750,-26.09649109,125.6838981,1522.837647
3.5800,-26.04127688,125.5600656,1523.146328
3.5850,-25.98343781,125.4369505,1523.450729
3.5900,-25.92286477,125.3138956,1523.75042
3.5950,-25.85907821,125.1908297,1524.04523
3.6000,-25.79022797,125.0672245,1524.334932
3.6050,-25.71892698,124.9412856,1524.619696
3.6100,-25.64303119,124.8138582,1524.899791
3.6150,-25.56290228,124.6848625,1525.175039
3.6200,-25.47919845,124.5541619,1525.446424
3.6250,-25.39199407,124.4208793,1525.713811
3.6300,-25.30032336,124.2853802,1525.978014
3.6350,-25.20529681,124.1472706,1526.238896
3.6400,-25.10723161,124.0073325,1526.496556
3.6450,-25.00576617,123.8640671,1526.751673
3.6500,-24.90035403,123.7172157,1527.004498
3.6550,-24.7904621,123.5666608,1527.255462
3.6600,-24.67771905,123.4131132,1527.505446
3.6650,-24.5632731,123.2558826,1527.754669
3.6700,-24.44702117,123.0958792,1528.004584
3.6750,-24.33039224,122.9325446,1528.256897
3.6800,-24.21172595,122.7680131,1528.511954
3.6850,-24.0924852,122.6020461,1528.770711
3.6900,-23.97093023,122.4352456,1529.03361
3.6950,-23.84689193,122.2679452,1529.300986
3.7000,-23.72046835,122.1004296,1529.573142
3.7050,-23.59208658,121.932608,1529.851085
3.7100,-23.46253471,121.7654886,1530.136108
3.7150,-23.33246957,121.5993009,1530.428942
3.7200,-23.20265689,121.4353009,1530.731205
3.7250,-23.07411982,121.274653,1531.043618
3.7300,-22.94740311,121.1181086,1531.36706
3.7350,-22.82407463,120.9667236,1531.702208
3.7400,-22.7038986,120.8200802,1532.049982
3.7450,-22.58748486,120.6788907,1532.409677
3.7500,-22.47381547,120.5441548,1532.781068
3.7550,-22.36554993,120.4160651,1533.164631
3.7600,-22.26278644,120.2957617,1533.560814
3.7650,-22.16465214,120.1847748,1533.968714
3.7700,-22.0728578,120.0823604,1534.389438
3.7750,-21.98740153,119.9876444,1534.820898
3.7800,-21.90921869,119.9024764,1535.26382
3.7850,-21.83782204,119.8262498,1535.717321
3.7900,-21.7730734,119.7607094,1536.180499
3.7950,-21.71364523,119.7047848,1536.652256
3.8000,-21.65952663,119.6595469,1537.132648
3.8050,-21.6107155,119.6233767,1537.619987
3.8100,-21.56534866,119.5973003,1538.113158
3.8150,-21.52277862,119.5812349,1538.611433
3.8200,-21.48151528,119.5746778,1539.113427
3.8250,-21.44272285,119.5771757,1539.617682
3.8300,-21.40437505,119.5889294,1540.122825
3.8350,-21.36463113,119.6095039,1540.628078
3.8400,-21.32430352,119.6371457,1541.13232
3.8450,-21.28261422,119.6702822,1541.634054
3.8500,-21.24002492,119.7081347,1542.131914
3.8550,-21.19507941,119.7518075,1542.6258
3.8600,-21.14881987,119.7994249,1543.115081
3.8650,-21.10040749,119.8506986,1543.597649
3.8700,-21.04953065,119.9043511,1544.073341
3.8750,-20.99625389,119.9602135,1544.540969
3.8800,-20.94069915,120.0168377,1545.00023
3.8850,-20.882408,120.0742804,1545.45
3.8900,-20.82132695,120.1313689,1545.889438
3.8950,-20.75740934,120.1874419,1546.31752
3.9000,-20.690571,120.241625,1546.734005
3.9050,-20.62064014,120.2936299,1547.137854
3.9100,-20.54708964,120.3418293,1547.528549
3.9150,-20.47087005,120.3850979,1547.905402
3.9200,-20.39050476,120.4247147,1548.268163
3.9250,-20.30495233,120.4590293,1548.616129
3.9300,-20.21436213,120.4880835,1548.948856
3.9350,-20.11850891,120.51042,1549.266873
3.9400,-20.01683606,120.5252585,1549.570381
3.9450,-19.90988972,120.5339925,1549.85924
3.9500,-19.79908798,120.5342119,1550.133439
3.9550,-19.68505971,120.5276909,1550.394081
3.9600,-19.56702393,120.5128089,1550.641189
3.9650,-19.44377923,120.4899136,1550.874367
3.9700,-19.31463192,120.4585086,1551.093623
3.9750,-19.17880015,120.4185682,1551.298429
3.9800,-19.03738509,120.3696414,1551.490096
3.9850,-18.88996232,120.3113123,1551.668487
3.9900,-18.73748646,120.2443334,1551.8348
3.9950,-18.58055843,120.1675895,1551.989354
4.0000,-18.41983652,120.0824561,1552.13383
4.0050,-18.25451584,119.9896259,1552.268108
4.0100,-18.08565948,119.888417,1552.393013
4.0150,-17.91094775,119.7807103,1552.509254
4.0200,-17.73163103,119.6659818,1552.61656
4.0250,-17.54721885,119.5442106,1552.715832
4.0300,-17.35918718,119.4158244,1552.808216
4.0350,-17.16718942,119.2805225,1552.894221
4.0400,-16.97441615,119.139419,1552.974515
4.0450,-16.78057063,118.9924234,1553.050683
4.0500,-16.58625067,118.8402021,1553.12407
4.0550,-16.39159202,118.6845945,1553.195073
4.0600,-16.19805886,118.5239466,1553.264161
4.0650,-16.00580562,118.3595095,1553.331992
4.0700,-15.81460958,118.1923362,1553.398284
4.0750,-15.62655914,118.0241613,1553.465752
4.0800,-15.44168432,117.8548177,1553.533879
4.0850,-15.26079429,117.6863647,1553.603826
4.0900,-15.08419422,117.517957,1553.675698
4.0950,-14.91263831,117.3513736,1553.749537
4.1000,-14.74699718,117.1881596,1553.825816
4.1050,-14.58719847,117.0296121,1553.904745
4.1100,-14.43399688,116.8757647,1553.986248
4.1150,-14.28728734,116.7281318,1554.070361
4.1200,-14.14899903,116.5868203,1554.157397
4.1250,-14.01760322,116.4524635,1554.2471
4.1300,-13.89331504,116.3262129,1554.339218
4.1350,-13.77780814,116.2085518,1554.433546
4.1400,-13.67123713,116.100184,1554.529817
4.1450,-13.57297497,116.0021967,1554.628107
4.1500,-13.48390663,115.9159433,1554.728188
4.1550,-13.40427444,115.8405967,1554.829089
4.1600,-13.33421287,115.7766453,1554.930071
4.1650,-13.27425741,115.7236356,1555.031425
4.1700,-13.22474649,115.6814811,1555.131776
4.1750,-13.18472486,115.6504831,1555.230692
4.1800,-13.15497985,115.6301645,1555.327379
4.1850,-13.13548384,115.6205658,1555.421262
4.1900,-13.12674167,115.6215451,1555.512064
4.1950,-13.1272882,115.6323873,1555.598371
4.2000,-13.13890573,115.6520949,1555.679674
4.2050,-13.16030987,115.6809619,1555.756004
4.2100,-13.19184394,115.7187437,1555.826148
4.2150,-13.23174139,115.7655286,1555.889275
4.2200,-13.28190676,115.8192811,1555.944475
4.2250,-13.34079536,115.8802692,1555.990964
4.2300,-13.40874288,115.9476741,1556.028611
4.2350,-13.48646608,116.0229742,1556.056977
4.2400,-13.57363297,116.1050664,1556.074962
4.2450,-13.67013053,116.1928368,1556.082019
4.2500,-13.77573005,116.2882866,1556.078157
4.2550,-13.88743456,116.3896202,1556.061633
4.2600,-14.00640393,116.4974634,1556.03233
4.2650,-14.13274741,116.6108105,1555.990318
4.2700,-14.26611664,116.730883,1555.935507
4.2750,-14.40553941,116.8561875,1555.867178
4.2800,-14.55251599,116.9877793,1555.785229
4.2850,-14.70595737,117.1251912,1555.689764
4.2900,-14.86555397,117.2679221,1555.580117
4.2950,-15.03048009,117.4162784,1555.45631
4.3000,-15.20012639,117.5702408,1555.317737
4.3050,-15.37406782,117.7298893,1555.164558
4.3100,-15.55144707,117.894564,1554.996503
4.3150,-15.73223066,118.0635931,1554.812682
4.3200,-15.91628938,118.2386936,1554.614063
4.3250,-16.10337239,118.4190145,1554.400188
4.3300,-16.29234727,118.6042728,1554.171452
4.3350,-16.48430553,118.7960388,1553.928066
4.3400,-16.67670084,118.9941935,1553.670317
4.3450,-16.86965256,119.1991178,1553.398114
4.3500,-17.06362686,119.4095655,1553.111415
4.3550,-17.25850346,119.6252662,1552.81062
4.3600,-17.45417985,119.8480428,1552.496273
4.3650,-17.65056927,120.0774596,1552.169123
4.3700,-17.84861545,120.3133234,1551.829467
4.3750,-18.0466793,120.5553539,1551.476946
4.3800,-18.24672752,120.8031633,1551.112641
4.3850,-18.44756867,121.0560906,1550.736302
4.3900,-18.65147187,121.3148205,1550.349033
4.3950,-18.8586307,121.5781358,1549.952144
4.4000,-19.06827734,121.8457731,1549.545329
4.4050,-19.28143957,122.1174198,1549.129233
4.4100,-19.4986837,122.3926282,1548.705055
4.4150,-19.71970799,122.67128,1548.272283
4.4200,-19.94345488,122.9538034,1547.83108
4.4250,-20.17157188,123.2401637,1547.382489
4.4300,-20.40309647,123.5291113,1546.926746
4.4350,-20.63780996,123.8195413,1546.464059
4.4400,-20.87604907,124.1121497,1545.995188
4.4450,-21.11796067,124.4062987,1545.520252
4.4500,-21.36281264,124.701764,1545.039526
4.4550,-21.61192735,124.9980956,1544.553712
4.4600,-21.86473432,125.2961478,1544.06382
4.4650,-22.12147741,125.5955731,1543.569417
4.4700,-22.38204617,125.8950078,1543.071017
4.4750,-22.64619017,126.1947785,1542.568438
4.4800,-22.91380935,126.4943674,1542.062316
4.4850,-23.1848122,126.7936671,1541.552712
4.4900,-23.45835087,127.0928138,1541.039495
4.4950,-23.73460674,127.3916604,1540.523237
4.5000,-24.01296816,127.690673,1540.003339
4.5050,-24.29341065,127.9892371,1539.48015
4.5100,-24.57673485,128.2870527,1538.953753
4.5150,-24.86242896,128.5836878,1538.424432
4.5200,-25.14936043,128.8801507,1537.891995
4.5250,-25.4398583,129.1765987,1537.357256
4.5300,-25.73321685,129.4723893,1536.819524
4.5350,-26.02819265,129.7666053,1536.27889
4.5400,-26.32371604,130.0602746,1535.735364
4.5450,-26.6200091,130.3546615,1535.189342
4.5500,-26.91673445,130.6490432,1534.640925
4.5550,-27.2144121,130.9434455,1534.090004
4.5600,-27.51150272,131.238183,1533.536491
4.5650,-27.80800777,131.5333391,1532.980109
4.5700,-28.10384249,131.8289429,1532.421157
4.5750,-28.39981493,132.1270391,1531.860163
4.5800,-28.69380569,132.4253612,1531.296968
4.5850,-28.9867733,132.7243648,1530.73106
4.5900,-29.27930014,133.0253364,1530.163615
4.5950,-29.57027946,133.3279902,1529.593896
4.6000,-29.85967608,133.631455,1529.022035
4.6050,-30.1479919,133.935262,1528.448069
4.6100,-30.43332087,134.241187,1527.872296
4.6150,-30.71810759,134.5483025,1527.294962
4.6200,-31.00053093,134.8561936,1526.716003
4.6250,-31.28129381,135.1652553,1526.135417
4.6300,-31.55932232,135.4755818,1525.552004
4.6350,-31.83376185,135.7861488,1524.966543
4.6400,-32.1061158,136.096523,1524.378226
4.6450,-32.37547722,136.4071005,1523.787113
4.6500,-32.64232305,136.7190672,1523.193718
4.6550,-32.90673969,137.0315875,1522.597973
4.6600,-33.16773172,137.3453357,1521.99986
4.6650,-33.42604424,137.6595172,1521.398823
4.6700,-33.68091442,137.9755324,1520.795211
4.6750,-33.93370096,138.2915024,1520.188926
4.6800,-34.18272877,138.6083108,1519.579771
4.6850,-34.42951407,138.925967,1518.967821
4.6900,-34.67324849,139.244215,1518.353156
4.6950,-34.91364874,139.5632273,1517.735159
4.7000,-35.15143003,139.8828257,1517.113986
4.7050,-35.38595504,140.2032762,1516.490138
4.7100,-35.618176,140.5251104,1515.862439
4.7150,-35.84902714,140.8475737,1515.232365
4.7200,-36.07894383,141.1707391,1514.599404
4.7250,-36.30834526,141.4941139,1513.963904
4.7300,-36.53778394,141.8189602,1513.324848
4.7350,-36.76724229,142.1451746,1512.682419
4.7400,-36.99528251,142.4724724,1512.036608
4.7450,-37.22263169,142.8012169,1511.387227
4.7500,-37.44904087,143.1317539,1510.734075
4.7550,-37.6745608,143.463208,1510.076364
4.7600,-37.89886705,143.7955104,1509.414032
4.7650,-38.12320916,144.1281337,1508.746543
4.7700,-38.34784448,144.4631907,1508.074684
4.7750,-38.57261149,144.7997859,1507.397865
4.7800,-38.79845101,145.1390072,1506.71632
4.7850,-39.02510465,145.4792765,1506.02977
4.7900,-39.25418542,145.8205947,1505.338545
4.7950,-39.48572676,146.1639535,1504.642061
4.8000,-39.71835758,146.5082768,1503.940395
4.8050,-39.95265448,146.8544745,1503.232708
4.8100,-40.18851668,147.2027935,1502.518768
4.8150,-40.42671006,147.5523038,1501.797915
4.8200,-40.6681797,147.9028678,1501.06982
4.8250,-40.91246176,148.2542356,1500.334133
4.8300,-41.15984165,148.6072165,1499.590981
4.8350,-41.41068547,148.9617876,1498.839306
4.8400,-41.66504213,149.318506,1498.08009
4.8450,-41.92130343,149.67756,1497.31239
4.8500,-42.18001107,150.0388642,1496.536617
4.8550,-42.44149932,150.4035418,1495.752278
4.8600,-42.7056425,150.7713459,1494.959035
4.8650,-42.97183154,151.1434457,1494.157347
4.8700,-43.24034162,151.519753,1493.346066
4.8750,-43.510494,151.9001073,1492.52497
4.8800,-43.78305776,152.2854467,1491.693277
4.8850,-44.05728341,152.6764742,1490.851869
4.8900,-44.33257311,153.0705882,1489.998774
4.8950,-44.60961486,153.4697852,1489.134945
4.9000,-44.887913,153.8744149,1488.259094
4.9050,-45.16762759,154.2845181,1487.37139
4.9100,-45.4492259,154.6989586,1486.469877
4.9150,-45.73115594,155.1185129,1485.555709
4.9200,-46.01411555,155.5429698,1484.627371
4.9250,-46.29805202,155.9726509,1483.685597
4.9300,-46.58451212,156.4071444,1482.730335
4.9350,-46.87236147,156.8473796,1481.760381
4.9400,-47.16170483,157.2932149,1480.776355
4.9450,-47.45281442,157.7444469,1479.778031
4.9500,-47.74543189,158.2002192,1478.765517
4.9550,-48.03895052,158.6612153,1477.738222
4.9600,-48.33440801,159.1263763,1476.695107
4.9650,-48.63232379,159.5949985,1475.636799
4.9700,-48.93243314,160.0656892,1474.563109
4.9750,-49.23374985,160.5401198,1473.47368
4.9800,-49.5364512,161.0178407,1472.369496
4.9850,-49.83967738,161.4995386,1471.249602
4.9900,-50.14191889,161.9851948,1470.113676
4.9950,-50.44297972,162.4746895,1468.960852
5.0000,-50.7425623,162.967225,1467.791467
5.0050,-51.04102322,163.4636721,1466.605094
5.0100,-51.33782968,163.9626049,1465.401286
5.0150,-51.63262401,164.4650808,1464.179085
5.0200,-51.92544686,164.9692664,1462.939444
5.0250,-52.21577174,165.4752998,1461.68202
5.0300,-52.50312595,165.9818694,1460.407434
5.0350,-52.78912761,166.4892885,1459.115838
5.0400,-53.07367501,166.9974129,1457.80643
5.0450,-53.35688105,167.5063898,1456.479053
5.0500,-53.63836051,168.0137857,1455.133394
5.0550,-53.91621798,168.5199393,1453.769232
5.0600,-54.19094854,169.0238953,1452.38679
5.0650,-54.46185986,169.5257245,1450.987224
5.0700,-54.72871337,170.0252,1449.569817
5.0750,-54.99319391,170.5208801,1448.13546
5.0800,-55.25301101,171.0127883,1446.683599
5.0850,-55.50948317,171.5004103,1445.214164
5.0900,-55.76156041,171.9840742,1443.727568
5.0950,-56.0115532,172.4616184,1442.224179
5.1000,-56.25863685,172.9347979,1440.705324
5.1050,-56.50410813,173.4021237,1439.170355
5.1100,-56.74547015,173.8642037,1437.620348
5.1150,-56.98370752,174.3223462,1436.056251
5.1200,-57.21712477,174.7755782,1434.478613
5.1250,-57.44496901,175.2247301,1432.887168
5.1300,-57.66819324,175.668599,1431.281917
5.1350,-57.88650135,176.1070636,1429.6635
5.1400,-58.09996943,176.5409394,1428.031249
5.1450,-58.31047563,176.9688415,1426.386467
5.1500,-58.51638916,177.3905747,1424.728095
5.1550,-58.71717187,177.8065236,1423.056969
5.1600,-58.9136677,178.2175724,1421.373371
5.1650,-59.10638683,178.6231804,1419.677561
5.1700,-59.29485838,179.0230137,1417.969743
5.1750,-59.47897632,179.416558,1416.250227
5.1800,-59.65773466,179.8044327,1414.519834
5.1850,-59.83084439,180.1868843,1412.778136
5.1900,-59.99748038,180.5650116,1411.026239
5.1950,-60.15680355,180.9383024,1409.264145
5.2000,-60.30980161,181.3057351,1407.492541
5.2050,-60.45436993,181.6675558,1405.711415
5.2100,-60.59064577,182.0250129,1403.92228
5.2150,-60.71869925,182.3770442,1402.124369
5.2200,-60.83919678,182.7242438,1400.319023
5.2250,-60.9507637,183.0658505,1398.50569
5.2300,-61.05361578,183.4022855,1396.68549
5.2350,-61.14806848,183.7322845,1394.858228
5.2400,-61.23337047,184.0553261,1393.023895
5.2450,-61.3094826,184.3710508,1391.182573
5.2500,-61.37489631,184.6797848,1389.333657
5.2550,-61.42951945,184.9806045,1387.477291
5.2600,-61.4737087,185.2741749,1385.614431
5.2650,-61.50591411,185.5599711,1383.745538
5.2700,-61.52650128,185.8380794,1381.869773
5.2750,-61.53507977,186.1083259,1379.987667
5.2800,-61.53168917,186.370284,1378.0986
5.2850,-61.51598055,186.6223828,1376.204071
5.2900,-61.48698049,186.8639898,1374.303952
5.2950,-61.44502512,187.0957162,1372.400219
5.3000,-61.3878823,187.3179381,1370.492342
5.3050,-61.31662133,187.5286184,1368.580557
5.3100,-61.22977036,187.7295081,1366.665996
5.3150,-61.1269881,187.9191053,1364.748609
5.3200,-61.00727962,188.0983043,1362.827652
5.3250,-60.8703449,188.2669125,1360.903526
5.3300,-60.71656831,188.4243623,1358.975631
5.3350,-60.54576649,188.5698569,1357.045002
5.3400,-60.35940016,188.7030901,1355.111775
5.3450,-60.15812936,188.8233929,1353.177279
5.3500,-59.94294549,188.9327346,1351.241509
5.3550,-59.71656829,189.0326838,1349.306228
5.3600,-59.48142129,189.1227814,1347.37155
5.3650,-59.23672695,189.2047494,1345.4386
5.3700,-58.98284045,189.2776419,1343.508289
5.3750,-58.72047423,189.3431468,1341.581803
5.3800,-58.45164246,189.4016264,1339.659133
5.3850,-58.17628456,189.4552053,1337.741596
5.3900,-57.89620233,189.5042741,1335.829119
5.3950,-57.61128369,189.5497122,1333.922074
5.4000,-57.3229851,189.5915613,1332.019959
5.4050,-57.03172784,189.6310582,1330.124935
5.4100,-56.73948175,189.6674915,1328.235972
5.4150,-56.44602689,189.7008125,1326.353426
5.4200,-56.15253222,189.7323211,1324.477985
5.4250,-55.86122215,189.7623363,1322.610437
5.4300,-55.57238518,189.7919797,1320.751141
5.4350,-55.28600861,189.8227307,1318.900095
5.4400,-55.00205755,189.8545637,1317.057657
5.4450,-54.7206183,189.887259,1315.223711
5.4500,-54.44181512,189.9220075,1313.397496
5.4550,-54.16656555,189.9587917,1311.579132
5.4600,-53.89411732,189.9978853,1309.768236
5.4650,-53.62476645,190.0385729,1307.96376
5.4700,-53.35891125,190.0813946,1306.165088
5.4750,-53.09763547,190.1260331,1304.372073
5.4800,-52.84114046,190.1721598,1302.583958
5.4850,-52.59003091,190.2187885,1300.800301
5.4900,-52.34414504,190.2660084,1299.021482
5.4950,-52.10375294,190.3124376,1297.24687
5.5000,-51.86837707,190.3581896,1295.476522
5.5050,-51.63908655,190.403075,1293.71021
5.5100,-51.41638251,190.4456893,1291.947292
5.5150,-51.19962555,190.4862114,1290.188359
5.5200,-50.98653109,190.5245152,1288.433849
5.5250,-50.77804491,190.5600475,1286.683334
5.5300,-50.57218167,190.5926746,1284.935859
5.5350,-50.36876234,190.6224453,1283.192536
5.5400,-50.16684415,190.6504491,1281.452221
5.5450,-49.9659073,190.6754101,1279.715335
5.5500,-49.76634378,190.696635,1277.981322
5.5550,-49.56666772,190.7138765,1276.249625
5.5600,-49.36621674,190.7243542,1274.520578
5.5650,-49.16455721,190.728595,1272.793623
5.5700,-48.96006245,190.7268778,1271.069994
5.5750,-48.75273681,190.718196,1269.349025
5.5800,-48.54182344,190.7016117,1267.630654
5.5850,-48.32599861,190.6779529,1265.914843
5.5900,-48.1065978,190.6458706,1264.201051
5.5950,-47.88187053,190.6043253,1262.488072
5.6000,-47.6526711,190.5526577,1260.776479
5.6050,-47.41687865,190.4905084,1259.066418
5.6100,-47.1750323,190.4171602,1257.358163
5.6150,-46.92657401,190.3329814,1255.651768
5.6200,-46.67299191,190.2368116,1253.948332
5.6250,-46.41319968,190.1279636,1252.24776
5.6300,-46.1486406,190.0062542,1250.55094
5.6350,-45.87704428,189.8715152,1248.857585
5.6400,-45.59968851,189.7244827,1247.168938
5.6450,-45.31577477,189.5654576,1245.48458
5.6500,-45.02402354,189.3938418,1243.805613
5.6550,-44.7253302,189.2093885,1242.132148
5.6600,-44.41862154,189.0124806,1240.46483
5.6650,-44.10389808,188.803168,1238.802617
5.6700,-43.78155339,188.5824257,1237.145699
5.6750,-43.45224312,188.3507486,1235.493566
5.6800,-43.11491749,188.1086264,1233.846631
5.6850,-42.77038664,187.8577489,1232.204585
5.6900,-42.41777929,187.5979836,1230.567704
5.6950,-42.05556166,187.3322907,1228.936882
5.7000,-41.68468961,187.0610491,1227.312019
5.7050,-41.30414559,186.7849801,1225.692614
5.7100,-40.91431369,186.5064668,1224.079453
5.7150,-40.51495318,186.2263403,1222.472607
5.7200,-40.10684654,185.9454729,1220.870505
5.7250,-39.6886898,185.6654802,1219.27418
5.7300,-39.25996328,185.3884454,1217.682642
5.7350,-38.82087376,185.115037,1216.096104
5.7400,-38.37274293,184.8450467,1214.513969
5.7450,-37.91541177,184.5788933,1212.935105
5.7500,-37.44908857,184.3184306,1211.360142
5.7550,-36.97359636,184.0637921,1209.788169
5.7600,-36.48978938,183.8145892,1208.219349
5.7650,-35.99632761,183.573361,1206.653709
5.7700,-35.49338819,183.3400439,1205.091439
5.7750,-34.98065294,183.1152065,1203.531758
5.7800,-34.45748306,182.8993758,1201.974576
5.7850,-33.92401036,182.6922018,1200.420005
5.7900,-33.38086122,182.4939927,1198.867464
5.7950,-32.82907549,182.304889,1197.316911
5.8000,-32.26840179,182.1246451,1195.767874
5.8050,-31.70002879,181.9524596,1194.220756
5.8100,-31.12282669,181.7891462,1192.674946
5.8150,-30.53702387,181.6341961,1191.130306
5.8200,-29.94411297,181.4854926,1189.58603
5.8250,-29.34395442,181.3435063,1188.043241
5.8300,-28.73591051,181.2071169,1186.501766
5.8350,-28.12097302,181.0761055,1184.961457
5.8400,-27.5000106,180.947806,1183.422747
5.8450,-26.87311399,180.8219193,1181.884935
5.8500,-26.24109095,180.6967245,1180.34804
5.8550,-25.6059859,180.5709837,1178.813129
5.8600,-24.9672526,180.4457176,1177.280161
5.8650,-24.32449948,180.3188963,1175.748506
5.8700,-23.67953381,180.1876061,1174.217581
5.8750,-23.03231546,180.0518788,1172.688629
5.8800,-22.38210623,179.91036,1171.161116
5.8850,-21.72924738,179.7616419,1169.635298
5.8900,-21.07345657,179.6063605,1168.112337
5.8950,-20.41548782,179.4427891,1166.592514
5.9000,-19.75560176,179.2704277,1165.07578
5.9050,-19.09602846,179.0888629,1163.562345
5.9100,-18.43588297,178.8974579,1162.052691
5.9150,-17.7762661,178.6961481,1160.548085
5.9200,-17.11567376,178.4840382,1159.047672
5.9250,-16.45562079,178.2604728,1157.552574
5.9300,-15.79461482,178.0266705,1156.063137
5.9350,-15.13474975,177.7813311,1154.579368
5.9400,-14.47453487,177.5242494,1153.102482
5.9450,-13.81372267,177.2549733,1151.632847
5.9500,-13.15332553,176.9745047,1150.171141
5.9550,-12.49297685,176.6821651,1148.716745
5.9600,-11.83195139,176.3794079,1147.269401
5.9650,-11.17175485,176.066067,1145.830058
5.9700,-10.51235712,175.7420559,1144.398127
5.9750,-9.853149945,175.408679,1142.974445
5.9800,-9.195714543,175.0657833,1141.558727
5.9850,-8.538501104,174.7140063,1140.150919
5.9900,-7.882108947,174.3542452,1138.750835
5.9950,-7.226756835,173.9860007,1137.358468
6.0000,-6.572108636,173.6103365,1135.974299
6.0050,-5.917336309,173.2294261,1134.597672
6.0100,-5.263460075,172.8422423,1133.229076
6.0150,-4.609796478,172.4507239,1131.868105
6.0200,-3.957370364,172.0552786,1130.515675
6.0250,-3.305177862,171.6570133,1129.170665
6.0300,-2.653625613,171.2558033,1127.833927
6.0350,-2.002063598,170.851836,1126.504472
6.0400,-1.351320183,170.4461938,1125.183116
6.0450,-0.7012495749,170.0405339,1123.869908
6.0500,-0.05229911394,169.633195,1122.564598
6.0550,0.5950987582,169.2260027,1121.26795
6.0600,1.242001756,168.8188623,1119.978915
6.0650,1.887910058,168.4115169,1118.697736
6.0700,2.53336674,168.0042672,1117.424606
6.0750,3.179346182,167.5980876,1116.15931
6.0800,3.825082323,167.1931624,1114.901899
6.0850,4.471014094,166.7912905,1113.65289
6.0900,5.118412661,166.3915933,1112.41126
6.0950,5.768097225,165.9944734,1111.17718
6.1000,6.420520895,165.6020345,1109.951264
6.1050,7.077567635,165.2142793,1108.732523
6.1100,7.737729707,164.8295531,1107.521209
6.1150,8.401136651,164.4494925,1106.317426
6.1200,9.069164705,164.0736732,1105.120747
6.1250,9.74204243,163.7011828,1103.930395
6.1300,10.4191522,163.3323404,1102.746199
6.1350,11.10040113,162.9667569,1101.568108
6.1400,11.78664787,162.6046428,1100.395739
6.1450,12.4777714,162.2462727,1099.229208
6.1500,13.17442571,161.8915958,1098.068701
6.1550,13.87696404,161.5401771,1096.913749
6.1600,14.58597128,161.190954,1095.763813
6.1650,15.30046441,160.8434666,1094.620148
6.1700,16.02098632,160.4991435,1093.483034
6.1750,16.74880077,160.1559966,1092.35121
6.1800,17.48363456,159.8148601,1091.225163
6.1850,18.22534621,159.4741876,1090.104144
6.1900,18.97416416,159.1345971,1088.988319
6.1950,19.73016891,158.7953255,1087.87742
6.2000,20.49417311,158.4567351,1086.771363
6.2050,21.26714211,158.1185827,1085.670677
6.2100,22.0484002,157.7811107,1084.575329
6.2150,22.83917231,157.4430495,1083.484204
6.2200,23.6396056,157.1054929,1082.398192
6.2250,24.44972992,156.7685244,1081.317134
6.2300,25.27015773,156.4311683,1080.240884
6.2350,26.10125917,156.0935819,1079.169544
6.2400,26.94401507,155.7548745,1078.102447
6.2450,27.79755455,155.4159381,1077.039789
6.2500,28.66105223,155.0754603,1075.981139
6.2550,29.53498767,154.7341489,1074.927293
6.2600,30.41892483,154.3908279,1073.878186
6.2650,31.31289212,154.0454909,1072.833759
6.2700,32.21662257,153.6983296,1071.794065
6.2750,33.12936173,153.3461098,1070.758271
6.2800,34.05223327,152.9890824,1069.726047
6.2850,34.98371488,152.626703,1068.698069
6.2900,35.92534,152.2588944,1067.67401
6.2950,36.87485013,151.8841544,1066.653927
6.3000,37.83408151,151.5023844,1065.637234
6.3050,38.8011051,151.1119543,1064.624128
6.3100,39.7768424,150.7147706,1063.615054
6.3150,40.76027943,150.3089574,1062.610034
6.3200,41.75279022,149.8957068,1061.609184
6.3250,42.75297263,149.4742356,1060.612939
6.3300,43.76094374,149.0448758,1059.621356
6.3350,44.77614446,148.6082833,1058.63515
6.3400,45.79966287,148.1638939,1057.653782
6.3450,46.83147282,147.7127346,1056.677757
6.3500,47.86993387,147.2544573,1055.707474
6.3550,48.9161751,146.7873939,1054.742272
6.3600,49.96919658,146.3125318,1053.783004
6.3650,51.02699313,145.8283158,1052.829647
6.3700,52.08865436,145.3357254,1051.882727
6.3750,53.15297009,144.8326665,1050.942289
6.3800,54.21958118,144.3192271,1050.008639
6.3850,55.2873901,143.7945555,1049.081707
6.3900,56.35361765,143.2591841,1048.162444
6.3950,57.41765916,142.712707,1047.251146
6.4000,58.47911606,142.1541702,1046.347228
6.4050,59.53577952,141.5843041,1045.451938
6.4100,60.58857711,141.003169,1044.56475
6.4150,61.63624611,140.4100334,1043.685819
6.4200,62.67768393,139.8058045,1042.815459
6.4250,63.71293152,139.1905876,1041.953857
6.4300,64.73981634,138.5641049,1041.101533
6.4350,65.75924185,137.9258359,1040.257965
6.4400,66.76956422,137.2773751,1039.424431
6.4450,67.77104021,136.6181966,1038.60063
6.4500,68.76362341,135.9485608,1037.786608
6.4550,69.74708568,135.2687901,1036.982547
6.4600,70.72154525,134.5797283,1036.188629
6.4650,71.68673518,133.8818576,1035.404566
6.4700,72.64320266,133.1745692,1034.630236
6.4750,73.59007523,132.4598622,1033.866411
6.4800,74.52786287,131.7373752,1033.112523
6.4850,75.45475459,131.0081434,1032.369581
6.4900,76.37179233,130.270557,1031.636721
6.4950,77.27765768,129.526054,1030.914531
6.5000,78.17157248,128.7741696,1030.202972
6.5050,79.05298199,128.0162782,1029.502537
6.5100,79.9231275,127.2510804,1028.812458
6.5150,80.779931,126.4794372,1028.133485
6.5200,81.62433734,125.7014946,1027.465171
6.5250,82.45604339,124.917677,1026.807572
6.5300,83.27423226,124.1293263,1026.160862
6.5350,84.07967732,123.3374062,1025.525142
6.5400,84.87118784,122.5424465,1024.900391
6.5450,85.64941629,121.7441613,1024.286282
6.5500,86.41558986,120.9438235,1023.682967
6.5550,87.1692905,120.1417994,1023.090059
6.5600,87.91084775,119.3379961,1022.507415
6.5650,88.64214794,118.5322812,1021.934269
6.5700,89.36446107,117.7246115,1021.370101
6.5750,90.07666597,116.9148308,1020.815069
6.5800,90.77879029,116.1041468,1020.269381
6.5850,91.47052186,115.2919434,1019.732774
6.5900,92.14936376,114.4780544,1019.205524
6.5950,92.81768108,113.6643327,1018.687483
6.6000,93.47437126,112.8501817,1018.178442
6.6050,94.1197186,112.0362876,1017.678591
6.6100,94.75298505,111.2214797,1017.18728
6.6150,95.37521703,110.4081047,1016.704764
6.6200,95.98602651,109.5963196,1016.231034
6.6250,96.58478119,108.786225,1015.765894
6.6300,97.17298784,107.979284,1015.309296
6.6350,97.75025633,107.1751214,1014.860946
6.6400,98.31611128,106.3748359,1014.421058
6.6450,98.87140612,105.5774081,1013.989088
6.6500,99.4173868,104.7839986,1013.56472
6.6550,99.95374776,103.994856,1013.147966
6.6600,100.481152,103.2109669,1012.738932
6.6650,101.0004622,102.4326347,1012.337231
6.6700,101.5136939,101.6595342,1011.942125
6.6750,102.0207247,100.8937453,1011.553975
6.6800,102.5225881,100.1352773,1011.172571
6.6850,103.0205096,99.38390575,1010.797317
6.6900,103.5155939,98.63923236,1010.42764
6.6950,104.0075458,97.90204693,1010.063502
6.7000,104.4961785,97.17181789,1009.704735
6.7050,104.9821251,96.44818753,1009.350893
6.7100,105.4647131,95.73322757,1009.002476
6.7150,105.9464827,95.02581066,1008.658725
6.7200,106.4269054,94.32508091,1008.31935
6.7250,106.9064628,93.63293941,1007.984318
6.7300,107.3866174,92.94825322,1007.653077
6.7350,107.8676151,92.27247146,1007.325919
6.7400,108.349415,91.60307523,1007.002014
6.7450,108.8318598,90.94081577,1006.681468
6.7500,109.3153013,90.28669035,1006.364401
6.7550,109.8001989,89.63995931,1006.050583
6.7600,110.2868696,88.99997493,1005.739602
6.7650,110.7761015,88.36608574,1005.431134
6.7700,111.2679778,87.73957226,1005.125453
6.7750,111.7621737,87.11847028,1004.822124
6.7800,112.2578935,86.50333692,1004.521653
6.7850,112.7572716,85.89306975,1004.22321
6.7900,113.2588363,85.28786057,1003.927384
6.7950,113.762951,84.68604677,1003.633706
6.8000,114.2697734,84.08793027,1003.342457
6.8050,114.7784825,83.4917736,1003.053272
6.8100,115.2882725,82.8973152,1002.76625
6.8150,115.7984571,82.30385286,1002.48176
6.8200,116.3085456,81.71255063,1002.20004
6.8250,116.8177772,81.12189787,1001.921085
6.8300,117.3253162,80.53200284,1001.645201
6.8350,117.8297196,79.94187258,1001.3726
6.8400,118.3310211,79.35047481,1001.103054
6.8450,118.8275315,78.75816655,1000.837113
6.8500,119.3185979,78.16381512,1000.574673
6.8550,119.8046904,77.56599598,1000.315717
6.8600,120.2848857,76.96526303,1000.060381
6.8650,120.7587052,76.3619168,999.8091346
6.8700,121.2236445,75.75462776,999.5621867
6.8750,121.6817701,75.14461082,999.3192049
6.8800,122.1316766,74.53056298,999.0804349
6.8850,122.5730896,73.91241963,998.8458213
6.8900,123.0064381,73.29058729,998.6154089
6.8950,123.4300982,72.66454533,998.3892614
6.9000,123.8433316,72.03301999,998.1673379
6.9050,124.244578,71.39805293,997.9501982
6.9100,124.6357974,70.75999523,997.7373679
6.9150,125.0154481,70.11829934,997.5288227
6.9200,125.3832746,69.47326462,997.3246999
6.9250,125.7406092,68.82640856,997.1250158
6.9300,126.0857593,68.17825534,996.9298318
6.9350,126.420002,67.53077321,996.7391182
6.9400,126.7447162,66.88436469,996.5524541
6.9450,127.0600438,66.23964444,996.3697846
6.9500,127.367125,65.59784176,996.1908452
6.9550,127.6665417,64.96036976,996.0155725
6.9600,127.9591711,64.32587811,995.8431413
6.9650,128.2478471,63.69620992,995.6733065
6.9700,128.5316562,63.07191375,995.5063345
6.9750,128.8133843,62.45237951,995.3411084
6.9800,129.0938006,61.83800224,995.1775269
6.9850,129.3734022,61.22898656,995.0154456
6.9900,129.6532961,60.62524129,994.8546636
6.9950,129.9351862,60.02724368,994.6949616
7.0000,130.2196168,59.433874,994.5357554
7.0050,130.5068592,58.84539536,994.3772406
7.0100,130.797302,58.26062505,994.2191211
7.0150,131.0899826,57.68007429,994.0615159
7.0200,131.3852146,57.10404284,993.9044814
7.0250,131.6820928,56.53061483,993.747991
7.0300,131.9802619,55.96274728,993.5926264
7.0350,132.27938,55.39877552,993.4379232
7.0400,132.5793198,54.84088908,993.2843872
7.0450,132.8806212,54.28875938,993.1318738
7.0500,133.1825522,53.74192948,992.980374
7.0550,133.4853284,53.20181991,992.8301752
7.0600,133.787674,52.66945265,992.6816758
7.0650,134.0903763,52.14631596,992.534926
7.0700,134.3925235,51.6316631,992.389802
7.0750,134.6948152,51.12667162,992.2463911
7.0800,134.9963834,50.63140799,992.1049223
7.0850,135.29691,50.14679744,991.9656313
7.0900,135.5975261,49.67322236,991.8281212
7.0950,135.8988229,49.21157724,991.6925649
7.1000,136.1993187,48.76092577,991.5589185
7.1050,136.5003334,48.32240508,991.4271647
7.1100,136.7987475,47.89557976,991.29806
7.1150,137.0965837,47.4816616,991.1712373
7.1200,137.3911872,47.07906481,991.047054
7.1250,137.6830468,46.68736664,990.9253071
7.1300,137.9718886,46.30737791,990.8063741
7.1350,138.2563636,45.93928011,990.6902984
7.1400,138.5347233,45.58278707,990.5775002
7.1450,138.8073724,45.23751133,990.4678724
7.1500,139.0735087,44.9054607,990.3618748
7.1550,139.3328327,44.58630811,990.2595011
7.1600,139.5836861,44.27985888,990.1611026
7.1650,139.8256022,43.98555258,990.0664708
7.1700,140.0582828,43.70537687,989.9759583
7.1750,140.2787619,43.43944522,989.8900535
7.1800,140.4880578,43.18688758,989.8084549
7.1850,140.6847014,42.94890746,989.731417
7.1900,140.869723,42.72481363,989.6586799
7.1950,141.0436139,42.5149069,989.5902964
7.2000,141.2056264,42.32081153,989.5264055
7.2050,141.3568005,42.14043259,989.4664972
7.2100,141.4959092,41.97516481,989.4111386
7.2150,141.6218616,41.82539967,989.3604783
7.2200,141.7343158,41.69066486,989.3143261
7.2250,141.8343013,41.56981508,989.272164
7.2300,141.9215021,41.46390784,989.2342848
7.2350,141.995572,41.37102885,989.2003597
7.2400,142.0561702,41.29090819,989.170403
7.2450,142.1022802,41.22460339,989.1448271
7.2500,142.1341304,41.17085093,989.1233521
7.2550,142.1522927,41.12985373,989.1058696
7.2600,142.1561697,41.10194333,989.0927837
7.2650,142.1449542,41.08590996,989.0842175
7.2700,142.1186518,41.08182583,989.0799684
7.2750,142.0763375,41.08867493,989.0804229
7.2800,142.0181422,41.10610152,989.0854695
7.2850,141.9427119,41.13476576,989.0956726
7.2900,141.8505248,41.17533929,989.1109871
7.2950,141.7404608,41.22711092,989.131577
7.3000,141.6138161,41.29064334,989.1577151
7.3050,141.4689168,41.36539892,989.1894811
7.3100,141.3057243,41.45152973,989.227185
7.3150,141.1238689,41.54887791,989.271062
7.3200,140.9228893,41.65834228,989.3213445
7.3250,140.7024675,41.7794559,989.3782971
7.3300,140.4611963,41.91207496,989.4421991
7.3350,140.1983767,42.05603178,989.513411
7.3400,139.9152257,42.21197086,989.5919184
7.3450,139.6104062,42.3787213,989.6778989
7.3500,139.2816516,42.5578108,989.7721025
7.3550,138.9307009,42.75001835,989.8745235
7.3600,138.5571544,42.95525883,989.9853548
7.3650,138.160508,43.17191852,990.104453
7.3700,137.7405013,43.40180329,990.2325156
7.3750,137.2971887,43.64450937,990.3696287
7.3800,136.830377,43.90002772,990.5159507
7.3850,136.3404648,44.16869312,990.6713968
7.3900,135.8271573,44.45051415,990.836437
7.3950,135.2901079,44.74612787,991.0114146
7.4000,134.7294326,45.05564016,991.1965964
7.4050,134.1445635,45.37859725,991.3921463
7.4100,133.5371483,45.71485821,991.5978433
7.4150,132.9057269,46.06480581,991.8142742
7.4200,132.2517905,46.42891434,992.041388
7.4250,131.5738536,46.80832876,992.2795554
7.4300,130.8725344,47.20090297,992.5287092
7.4350,130.1495466,47.60803407,992.7890695
7.4400,129.4054346,48.03012623,993.0605443
7.4450,128.6401365,48.46643107,993.3430356
7.4500,127.8533712,48.91535324,993.6366552
7.4550,127.0461465,49.37763248,993.9413674
7.4600,126.2192254,49.85401561,994.2572105
7.4650,125.3729465,50.34365335,994.5844882
7.4700,124.5078232,50.84666744,994.9230479
7.4750,123.6258097,51.36117429,995.2725523
7.4800,122.7273828,51.88859666,995.6331945
7.4850,121.8138389,52.42676299,996.0045689
7.4900,120.8842375,52.97649179,996.387315
7.4950,119.9401564,53.53679679,996.7809646
7.5000,118.9828784,54.10807278,997.1853308
7.5050,118.0133784,54.68983588,997.6006541
7.5100,117.0317411,55.28148993,998.0266216
7.5150,116.0404234,55.88318196,998.4632233
7.5200,115.0402203,56.49452037,998.910437
7.5250,114.0297274,57.11567052,999.3689164
7.5300,113.0118815,57.74549661,999.8380446
7.5350,111.9863825,58.38432194,1000.318141
7.5400,110.9544786,59.03277824,1000.809473
7.5450,109.9161559,59.6883908,1001.311466
7.5500,108.8737409,60.35264676,1001.824329
7.5550,107.8255666,61.02318511,1002.348274
7.5600,106.7748658,61.70047038,1002.882703
7.5650,105.7195913,62.38389961,1003.427892
7.5700,104.6621821,63.07259225,1003.983771
7.5750,103.6029308,63.76724366,1004.55027
7.5800,102.5408629,64.46614184,1005.127744
7.5850,101.4788803,65.16861972,1005.715289
7.5900,100.4156648,65.87329886,1006.313289
7.5950,99.35229606,66.57939349,1006.921383
7.6000,98.28774746,67.28762329,1007.540039
7.6050,97.22374042,67.99694873,1008.168738
7.6100,96.16062857,68.70695858,1008.807243
7.6150,95.09906113,69.41727794,1009.455573
7.6200,94.03868692,70.12711956,1010.113623
7.6250,92.97889775,70.83706735,1010.781516
7.6300,91.92155375,71.54500373,1011.458638
7.6350,90.8666468,72.25276535,1012.145291
7.6400,89.81491075,72.95819441,1012.840695
7.6450,88.76558537,73.66399078,1013.545684
7.6500,87.72048642,74.36735109,1014.259286
7.6550,86.6781094,75.06804164,1014.981438
7.6600,85.63893121,75.76659213,1015.712402
7.6650,84.60251949,76.46331052,1016.452163
7.6700,83.56991973,77.15558791,1017.20005
7.6750,82.53983879,77.84548907,1017.956541
7.6800,81.51331782,78.53206656,1018.721199
7.6850,80.48964764,79.21526504,1019.494234
7.6900,79.46891039,79.89493232,1020.275406
7.6950,78.45063833,80.56999649,1021.064476
7.7000,77.43573478,81.2405538,1021.861126
7.7050,76.42404127,81.90617903,1022.665349
7.7100,75.41580133,82.5677683,1023.47658
7.7150,74.41057346,83.22393979,1024.294636
7.7200,73.40910603,83.87556049,1025.119614
7.7250,72.41090929,84.52258468,1025.951298
7.7300,71.41442686,85.1645488,1026.78983
7.7350,70.41985861,85.80102982,1027.634678
7.7400,69.42776134,86.43309064,1028.486352
7.7450,68.43635846,87.06030097,1029.344888
7.7500,67.446372,87.68250685,1030.209504
7.7550,66.45666374,88.30051066,1031.080585
7.7600,65.46838101,88.91353296,1031.958201
7.7650,64.47942748,89.52140011,1032.841953
7.7700,63.48996137,90.1236405,1033.731716
7.7750,62.49975181,90.72151764,1034.62811
7.7800,61.50835195,91.31451025,1035.530767
7.7850,60.51496388,91.90276577,1036.440011
7.7900,59.52113655,92.48644145,1037.355121
7.7950,58.5259389,93.06619848,1038.276714
7.8000,57.52741154,93.63998892,1039.204939
7.8050,56.52705349,94.20923562,1040.139539
7.8100,55.52434604,94.7723732,1041.08083
7.8150,54.5186425,95.32987235,1042.028668
7.8200,53.51050908,95.88228116,1042.983171
7.8250,52.50161037,96.42827454,1043.943892
7.8300,51.48972576,96.96886937,1044.91136
7.8350,50.47672152,97.50322697,1045.885298
7.8400,49.461898,98.03050122,1046.865274
7.8450,48.44757332,98.55352864,1047.851602
7.8500,47.43092676,99.07025039,1048.844719
7.8550,46.41376751,99.58203517,1049.84403
7.8600,45.39388312,100.0878572,1050.850418
7.8650,44.37394852,100.5894098,1051.863441
7.8700,43.35100689,101.0864033,1052.883392
7.8750,42.32841082,101.5796513,1053.909837
7.8800,41.30559117,102.0701559,1054.942995
7.8850,40.28166549,102.5573778,1055.982972
7.8900,39.2578872,103.0419248,1057.029713
7.8950,38.23343271,103.5240221,1058.083303
7.9000,37.20854096,104.0032923,1059.143804
7.9050,36.18507072,104.4810577,1060.211086
7.9100,35.16146647,104.9562479,1061.285626
7.9150,34.1389521,105.4307768,1062.367074
7.9200,33.11820461,105.9039123,1063.455746
7.9250,32.10056425,106.3767761,1064.551617
7.9300,31.08642815,106.8499055,1065.654484
7.9350,30.07643808,107.3221473,1066.764579
7.9400,29.07067555,107.7948953,1067.882561
7.9450,28.06972946,108.2659764,1069.007288
7.9500,27.07505874,108.7381873,1070.139625
7.9550,26.08638315,109.2093754,1071.279399
7.9600,25.10444662,109.6800094,1072.42652
7.9650,24.13044692,110.1495326,1073.580906
7.9700,23.16464428,110.6188167,1074.74258
7.9750,22.20805301,111.0850909,1075.910746
7.9800,21.26133564,111.5493753,1077.08558
7.9850,20.32403439,112.011133,1078.267853
7.9900,19.39682635,112.4693911,1079.456571
7.9950,18.47981668,112.9241707,1080.652267
8.0000,17.57266864,113.3747531,1081.855013
8.0050,16.67581503,113.8208709,1083.063643
8.0100,15.78895486,114.2626433,1084.279617
8.0150,14.91182529,114.6997561,1085.502521
8.0200,14.04363862,115.130967,1086.731873
8.0250,13.18531217,115.555485,1087.967668
8.0300,12.33674728,115.9741093,1089.210264
8.0350,11.49732315,116.3865396,1090.459439
8.0400,10.66676822,116.7913876,1091.714282
8.0450,9.845446055,117.1888896,1092.974886
8.0500,9.033091086,117.5794576,1094.242017
8.0550,8.229862675,117.9621958,1095.515263
8.0600,7.435168439,118.3372694,1096.793837
8.0650,6.650876041,118.7068816,1098.078583
8.0700,5.875201373,119.0693348,1099.369289
8.0750,5.108759677,119.4255209,1100.666075
8.0800,4.350706848,119.7757785,1101.969032
8.0850,3.601897382,120.119708,1103.277367
8.0900,2.861484116,120.4577345,1104.592298
8.0950,2.128111045,120.7889262,1105.913792
8.1000,1.403551517,121.1137459,1107.241186
8.1050,0.6869167872,121.431907,1108.575232
8.1100,-0.0216230725,121.7434455,1109.914781
8.1150,-0.7233812766,122.0476732,1111.260417
8.1200,-1.417787046,122.3451183,1112.612203
8.1250,-2.10653473,122.6363321,1113.970572
8.1300,-2.788372609,122.921229,1115.335537
8.1350,-3.465942325,123.1999791,1116.707416
8.1400,-4.138755875,123.4731952,1118.086041
8.1450,-4.807370386,123.7402976,1119.471552
8.1500,-5.472096601,124.0013252,1120.864008
8.1550,-6.132375202,124.258137,1122.264043
8.1600,-6.789453633,124.5095294,1123.671068
8.1650,-7.442784442,124.7549276,1125.084902
8.1700,-8.092286332,124.9941652,1126.505555
8.1750,-8.740492215,125.2267121,1127.933679
8.1800,-9.386213884,125.4527542,1129.368394
8.1850,-10.03008467,125.6724107,1130.810729
8.1900,-10.67117747,125.8864202,1132.260332
8.1950,-11.30900804,126.0942911,1133.717226
8.2000,-11.94444197,126.2965968,1135.181422
8.2050,-12.57805798,126.4917803,1136.653329
8.2100,-13.20865239,126.6820453,1138.132407
8.2150,-13.83781605,126.8655244,1139.619505
8.2200,-14.46482106,127.0432533,1141.113485
8.2250,-15.08881402,127.2149671,1142.61473
8.2300,-15.71031776,127.3804934,1144.123842
8.2350,-16.32905682,127.5397824,1145.63987
8.2400,-16.94495956,127.6925694,1147.162688
8.2450,-17.55717099,127.8390714,1148.692589
8.2500,-18.1651983,127.9788557,1150.229227
8.2550,-18.76940231,128.1121448,1151.772605
8.2600,-19.36929317,128.2379273,1153.32244
8.2650,-19.96594276,128.3579332,1154.878703
8.2700,-20.55845014,128.4712603,1156.441058
8.2750,-21.14625506,128.5797946,1158.010571
8.2800,-21.72966652,128.6813779,1159.586554
8.2850,-22.30719541,128.777819,1161.167915
8.2900,-22.87951451,128.8687825,1162.755624
8.2950,-23.4458086,128.9544396,1164.348823
8.3000,-24.00528842,129.0348211,1165.947164
8.3050,-24.55845349,129.1105041,1167.551083
8.3100,-25.10502026,129.181057,1169.160288
8.3150,-25.64465155,129.2469903,1170.773621
8.3200,-26.17840823,129.3077448,1172.391747
8.3250,-26.70618519,129.3638002,1174.013839
8.3300,-27.22806139,129.4157229,1175.639146
8.3350,-27.7436061,129.4625327,1177.267242
8.3400,-28.25306644,129.5069534,1178.899416
8.3450,-28.75580242,129.5491384,1180.534297
8.3500,-29.25185173,129.5889919,1182.171089
8.3550,-29.74136518,129.6276278,1183.809979
8.3600,-30.22410423,129.6648697,1185.450986
8.3650,-30.70088522,129.7006617,1187.093588
8.3700,-31.17020122,129.7362063,1188.737365
8.3750,-31.63276266,129.7710462,1190.381709
8.3800,-32.08948896,129.8046557,1192.026556
8.3850,-32.53996838,129.8372113,1193.671957
8.3900,-32.98451209,129.8695068,1195.316734
8.3950,-33.42215984,129.901428,1196.959405
8.4000,-33.85303959,129.9346278,1198.600818
8.4050,-34.27800957,129.9694331,1200.240137
8.4100,-34.69725962,130.0069977,1201.878584
8.4150,-35.10864035,130.047185,1203.514665
8.4200,-35.51344543,130.0907997,1205.147696
8.4250,-35.90957776,130.1385706,1206.777121
8.4300,-36.29895479,130.1893288,1208.402938
8.4350,-36.68003614,130.2452466,1210.024656
8.4400,-37.05344323,130.3050693,1211.642249
8.4450,-37.42045405,130.3689799,1213.255291
8.4500,-37.78026815,130.4374877,1214.863434
8.4550,-38.13288412,130.5088485,1216.466472
8.4600,-38.47812746,130.5850374,1218.065647
8.4650,-38.81748319,130.664154,1219.659989
8.4700,-39.14894361,130.7491022,1221.249497
8.4750,-39.47348173,130.8375422,1222.83493
8.4800,-39.79045798,130.930332,1224.416489
8.4850,-40.09957438,131.0270737,1225.993133
8.4900,-40.40236305,131.1262015,1227.565889
8.4950,-40.69764814,131.2273085,1229.13475
8.5000,-40.98568571,131.3301864,1230.699929
8.5050,-41.26650464,131.4343733,1232.261775
8.5100,-41.54079374,131.5379641,1233.820357
8.5150,-41.80805045,131.6404108,1235.374648
8.5200,-42.06841146,131.741166,1236.925901
8.5250,-42.32241428,131.838972,1238.4736
8.5300,-42.57137526,131.9325922,1240.01779
8.5350,-42.81398707,132.0235882,1241.558576
8.5400,-43.05097822,132.111066,1243.096522
8.5450,-43.2830018,132.1948,1244.632133
8.5500,-43.51186037,132.2737918,1246.165853
8.5550,-43.73631196,132.3487255,1247.696994
8.5600,-43.95697403,132.4192854,1249.225784
8.5650,-44.17313021,132.485042,1250.75323
8.5700,-44.38498502,132.5456853,1252.279631
8.5750,-44.59497394,132.6019092,1253.804033
8.5800,-44.80246536,132.6539594,1255.327195
8.5850,-45.00766274,132.7004605,1256.850263
8.5900,-45.21122837,132.7422532,1258.372059
8.5950,-45.41389759,132.7790232,1259.893669
8.6000,-45.61631785,132.8110325,1261.415289
8.6050,-45.81964891,132.8378915,1262.937062
8.6100,-46.02347266,132.8613094,1264.459001
8.6150,-46.22824584,132.8811908,1265.981451
8.6200,-46.43352502,132.8982857,1267.504805
8.6250,-46.63826291,132.9122251,1269.029085
8.6300,-46.84309054,132.9236266,1270.553435
8.6350,-47.04864124,132.9326404,1272.078551
8.6400,-47.25382414,132.9389779,1273.603942
8.6450,-47.45953633,132.9435308,1275.129933
8.6500,-47.66671236,132.9448739,1276.655976
8.6550,-47.87527108,132.9433696,1278.181733
8.6600,-48.08657425,132.9400254,1279.706697
8.6650,-48.3010103,132.9332735,1281.230358
8.6700,-48.51873137,132.924194,1282.751946
8.6750,-48.73948563,132.9130605,1284.271288
8.6800,-48.96269634,132.9015123,1285.787959
8.6850,-49.1888968,132.890938,1287.301124
8.6900,-49.41837637,132.8807192,1288.810227
8.6950,-49.65039545,132.8717275,1290.315004
8.7000,-49.88537601,132.8652622,1291.81508
8.7050,-50.12171191,132.8617052,1293.309515
8.7100,-50.35965208,132.8616095,1294.797613
8.7150,-50.59934152,132.8657444,1296.279593
8.7200,-50.84084014,132.8730582,1297.755308
8.7250,-51.08529674,132.8849246,1299.224979
8.7300,-51.33115528,132.902299,1300.68685
8.7350,-51.57844524,132.9239221,1302.141029
8.7400,-51.82790078,132.9505703,1303.587316
8.7450,-52.07818055,132.9826859,1305.02567
8.7500,-52.32889289,133.0209558,1306.455782
8.7550,-52.5795339,133.0662573,1307.877433
8.7600,-52.82931668,133.1176803,1309.289016
8.7650,-53.07692108,133.1754778,1310.691168
8.7700,-53.32232588,133.2368582,1312.083114
8.7750,-53.5645636,133.3032528,1313.46414
8.7800,-53.8047061,133.3721744,1314.834592
8.7850,-54.04104359,133.4438403,1316.193836
8.7900,-54.27402539,133.518662,1317.540893
8.7950,-54.50345651,133.5965299,1318.875995
8.8000,-54.72776599,133.6763369,1320.198144
8.8050,-54.94580568,133.759207,1321.50767
8.8100,-55.15685967,133.8443868,1322.804182
8.8150,-55.36027425,133.9311874,1324.088155
8.8200,-55.55506237,134.0198679,1325.35914
8.8250,-55.73992001,134.1093064,1326.617196
8.8300,-55.91383506,134.1994962,1327.861627
8.8350,-56.07626943,134.2890448,1329.092838
8.8400,-56.22703177,134.3772096,1330.311569
8.8450,-56.36441569,134.4630105,1331.517487
8.8500,-56.48650256,134.5464759,1332.710192
8.8550,-56.59395011,134.6254028,1333.891108
8.8600,-56.6871857,134.6989363,1335.05912
8.8650,-56.76696723,134.7652349,1336.215243
8.8700,-56.83492273,134.8240537,1337.359538
8.8750,-56.8878072,134.8726833,1338.49232
8.8800,-56.92763693,134.9115098,1339.613707
8.8850,-56.95501218,134.939485,1340.723593
8.8900,-56.97033056,134.9544364,1341.822853
8.8950,-56.97418674,134.9565909,1342.911448
8.9000,-56.96814191,134.9446986,1343.989263
8.9050,-56.9518533,134.9196344,1345.056968
8.9100,-56.92741724,134.879482,1346.114894
8.9150,-56.89575108,134.8247285,1347.163658
8.9200,-56.85738362,134.755934,1348.203079
8.9250,-56.81436191,134.6741617,1349.234237
8.9300,-56.76583726,134.5802013,1350.258789
8.9350,-56.71347331,134.4745552,1351.277218
8.9400,-56.65772519,134.3594016,1352.290558
8.9450,-56.59877817,134.2344995,1353.300007
8.9500,-56.53634189,134.1017629,1354.306513
8.9550,-56.4716265,133.9626902,1355.310884
8.9600,-56.40505751,133.8159845,1356.313883
8.9650,-56.33628768,133.6653476,1357.316392
8.9700,-56.26534821,133.5102422,1358.319629
8.9750,-56.19194472,133.3513326,1359.324533
8.9800,-56.11735964,133.1883248,1360.330783
8.9850,-56.04111743,133.0225523,1361.340453
8.9900,-55.96389366,132.8523538,1362.353504
8.9950,-55.88571991,132.6788782,1363.371106
9.0000,-55.80756847,132.5004016,1364.39311
9.0050,-55.73101105,132.3177297,1365.420101
9.0100,-55.65550138,132.1313229,1366.452324
9.0150,-55.58151541,131.94108,1367.489975
9.0200,-55.50965496,131.7474267,1368.532855
9.0250,-55.43983134,131.549641,1369.58129
9.0300,-55.37289192,131.3474456,1370.635646
9.0350,-55.30891091,131.1424322,1371.696264
9.0400,-55.2478053,130.9328651,1372.762223
9.0450,-55.18919291,130.7204836,1373.833302
9.0500,-55.1346335,130.504928,1374.909698
9.0550,-55.08510751,130.2856731,1375.991098
9.0600,-55.03963778,130.0629695,1377.077411
9.0650,-54.99890095,129.8384144,1378.169168
9.0700,-54.96317083,129.6113698,1379.266444
9.0750,-54.93287655,129.3824041,1380.368915
9.0800,-54.90780257,129.1523424,1381.475384
9.0850,-54.88802299,128.9207355,1382.586538
9.0900,-54.87151291,128.6877397,1383.701572
9.0950,-54.85805816,128.4534433,1384.820108
9.1000,-54.84656721,128.2189507,1385.942205
9.1050,-54.83809234,127.9842109,1387.066162
9.1100,-54.83036365,127.750886,1388.19278
9.1150,-54.82218119,127.5180305,1389.320846
9.1200,-54.81342836,127.2850439,1390.450392
9.1250,-54.80455182,127.0529912,1391.580624
9.1300,-54.79367281,126.8217763,1392.711965
9.1350,-54.78289998,126.5906626,1393.843493
9.1400,-54.77059018,126.3599419,1394.973473
9.1450,-54.75677213,126.1305835,1396.102197
9.1500,-54.74273417,125.9018701,1397.229453
9.1550,-54.726727,125.675062,1398.354978
9.1600,-54.70807957,125.4500831,1399.478671
9.1650,-54.68570796,125.2262826,1400.598616
9.1700,-54.65926961,125.0047595,1401.715396
9.1750,-54.62965669,124.7844388,1402.828422
9.1800,-54.59681375,124.5661186,1403.93763
9.1850,-54.56084871,124.3493876,1405.041919
9.1900,-54.52312394,124.1343341,1406.141734
9.1950,-54.48247443,123.9204252,1407.236125
9.2000,-54.43951952,123.7082551,1408.32548
9.2050,-54.39357046,123.4973991,1409.409112
9.2100,-54.34518052,123.2881933,1410.487157
9.2150,-54.29339367,123.0798409,1411.559327
9.2200,-54.23853954,122.8735826,1412.625202
9.2250,-54.18069037,122.6687603,1413.685352
9.2300,-54.11972898,122.4655703,1414.738291
9.2350,-54.05373251,122.2639294,1415.78457
9.2400,-53.98483974,122.0629603,1416.823929
9.2450,-53.9123142,121.8632719,1417.855949
9.2500,-53.83641978,121.6656847,1418.88232
9.2550,-53.75631164,121.4685865,1419.902607
9.2600,-53.67190061,121.2730217,1420.917338
9.2650,-53.58405127,121.0781392,1421.927055
9.2700,-53.4928764,120.8832896,1422.932017
9.2750,-53.39960709,120.6887919,1423.932531
9.2800,-53.30180697,120.4936959,1424.929127
9.2850,-53.20058346,120.2956924,1425.920816
9.2900,-53.09656486,120.0966839,1426.908486
9.2950,-52.99184908,119.8957874,1427.893052
9.3000,-52.88606207,119.693156,1428.874224
9.3050,-52.77940908,119.4881802,1429.852345
9.3100,-52.67353621,119.279071,1430.827087
9.3150,-52.56950581,119.0666232,1431.798221
9.3200,-52.4664876,118.8497794,1432.766134
9.3250,-52.3657458,118.6295026,1433.730077
9.3300,-52.26732964,118.4049486,1434.690118
9.3350,-52.17157357,118.1754263,1435.645334
9.3400,-52.07889357,117.9423099,1436.596727
9.3450,-51.99068443,117.7039918,1437.543684
9.3500,-51.90570212,117.4624304,1438.485088
9.3550,-51.82363496,117.2173863,1439.421409
9.3600,-51.7460176,116.9695947,1440.353151
9.3650,-51.67227721,116.7182828,1441.278747
9.3700,-51.60146826,116.4651866,1442.197946
9.3750,-51.53226006,116.2107576,1443.110581
9.3800,-51.46251715,115.9557999,1444.01652
9.3850,-51.39199493,115.7000482,1444.914575
9.3900,-51.32158525,115.4445769,1445.804821
9.3950,-51.25066036,115.189896,1446.68669
9.4000,-51.17935773,114.9359046,1447.559121
9.4050,-51.10662006,114.6828507,1448.421939
9.4100,-51.03199306,114.4299388,1449.273773
9.4150,-50.95695607,114.1786322,1450.115138
9.4200,-50.88118737,113.9299059,1450.945119
9.4250,-50.80388884,113.6837517,1451.763975
9.4300,-50.72573945,113.4407809,1452.57133
9.4350,-50.64584828,113.2018364,1453.366399
9.4400,-50.56366011,112.9665488,1454.150354
9.4450,-50.4800709,112.7352109,1454.921822
9.4500,-50.39408229,112.5074768,1455.680576
9.4550,-50.30552061,112.2826372,1456.426293
9.4600,-50.21427534,112.0605427,1457.159497
9.4650,-50.12048079,111.8428956,1457.879969
9.4700,-50.02382062,111.6278763,1458.586819
9.4750,-49.92517344,111.4168129,1459.281255
9.4800,-49.82403524,111.2086107,1459.962206
9.4850,-49.71932325,111.0036721,1460.631023
9.4900,-49.61043293,110.8027251,1461.286891
9.4950,-49.49750941,110.6048568,1461.930396
9.5000,-49.3792208,110.4104225,1462.561779
9.5050,-49.25577663,110.2185023,1463.181126
9.5100,-49.12678022,110.0290827,1463.788699
9.5150,-48.99273645,109.8417616,1464.384394
9.5200,-48.85367814,109.6567983,1464.968948
9.5250,-48.70945298,109.4737565,1465.542131
9.5300,-48.56005938,109.2925371,1466.105439
9.5350,-48.40616344,109.113143,1466.658886
9.5400,-48.24733445,108.9357357,1467.202491
9.5450,-48.08425748,108.759274,1467.736494
9.5500,-47.91585787,108.5839688,1468.260038
9.5550,-47.74361454,108.4098438,1468.774332
9.5600,-47.56649921,108.2368583,1469.279681
9.5650,-47.38455016,108.063561,1469.776345
9.5700,-47.19673039,107.8910827,1470.264672
9.5750,-47.00403827,107.7180708,1470.744628
9.5800,-46.80817617,107.5437918,1471.216966
9.5850,-46.60874516,107.3699504,1471.681894
9.5900,-46.4055296,107.1952663,1472.139687
9.5950,-46.19923216,107.0196165,1472.590057
9.6000,-45.98965788,106.8431808,1473.03357
9.6050,-45.77649849,106.6646543,1473.470038
9.6100,-45.5606567,106.4841972,1473.899749
9.6150,-45.34211276,106.3011024,1474.323237
9.6200,-45.12214836,106.1166776,1474.740935
9.6250,-44.90176528,105.9296159,1475.153206
9.6300,-44.68140482,105.74207,1475.560339
9.6350,-44.46170268,105.5528839,1475.962924
9.6400,-44.24442238,105.3627869,1476.361386
9.6450,-44.03052808,105.171298,1476.755818
9.6500,-43.820999,104.9779955,1477.147258
9.6550,-43.61598435,104.7850953,1477.535692
9.6600,-43.41573785,104.5921753,1477.92039
9.6650,-43.21953466,104.4003796,1478.302282
9.6700,-43.02975894,104.2089746,1478.681305
9.6750,-42.84701687,104.0189717,1479.058225
9.6800,-42.67200735,103.830231,1479.432905
9.6850,-42.50468928,103.6458643,1479.806763
9.6900,-42.3450053,103.4636387,1480.179693
9.6950,-42.19149953,103.2848656,1480.551996
9.7000,-42.04281532,103.1100934,1480.92364
9.7050,-41.89813232,102.9384257,1481.295491
9.7100,-41.75731583,102.770491,1481.667214
9.7150,-41.61865343,102.6049776,1482.039078
9.7200,-41.48230889,102.4410871,1482.410743
9.7250,-41.34787003,102.2784389,1482.782322
9.7300,-41.21490093,102.1160593,1483.153093
9.7350,-41.08205241,101.9531602,1483.523262
9.7400,-40.94837455,101.7897697,1483.892578
9.7450,-40.81266764,101.625419,1484.260757
9.7500,-40.67478505,101.4592714,1484.627786
9.7550,-40.53550814,101.2905584,1484.993355
9.7600,-40.39542,101.1189826,1485.357614
9.7650,-40.25516426,100.9422862,1485.720719
9.7700,-40.11411614,100.7616897,1486.082658
9.7750,-39.97118726,100.5756221,1486.442391
9.7800,-39.8264768,100.384699,1486.800445
9.7850,-39.6786813,100.1882147,1487.15607
9.7900,-39.52793539,99.98510017,1487.508828
9.7950,-39.37378994,99.77609976,1487.858561
9.8000,-39.21620739,99.5597418,1488.204849
9.8050,-39.05580886,99.33669092,1488.547613
9.8100,-38.89165276,99.10648292,1488.88495
9.8150,-38.72252128,98.87016523,1489.217377
9.8200,-38.54710806,98.62590478,1489.543561
9.8250,-38.36350885,98.37636299,1489.862806
9.8300,-38.17098703,98.1211113,1490.173748
9.8350,-37.96975269,97.86011406,1490.476333
9.8400,-37.75992544,97.59212845,1490.76869
9.8450,-37.54103598,97.31902371,1491.05102
9.8500,-37.31566648,97.04017476,1491.322555
9.8550,-37.08274312,96.75578489,1491.582046
9.8600,-36.84316948,96.46527129,1491.828417
9.8650,-36.59789732,96.17051123,1492.061004
9.8700,-36.34932444,95.87148628,1492.279795
9.8750,-36.09752996,95.56946853,1492.484268
9.8800,-35.84519974,95.26597557,1492.67476
9.8850,-35.59375994,94.96157625,1492.851694
9.8900,-35.34483835,94.65833815,1493.015866
9.8950,-35.09931357,94.35606544,1493.167188
9.9000,-34.85869458,94.05726156,1493.306213
9.9050,-34.62554726,93.76263824,1493.433925
9.9100,-34.3994364,93.47462422,1493.550904
9.9150,-34.18146311,93.1951254,1493.657506
9.9200,-33.97267934,92.92391819,1493.754845
9.9250,-33.77362552,92.66293045,1493.844092
9.9300,-33.58605269,92.41142017,1493.925594
9.9350,-33.41057896,92.17009333,1493.999712
9.9400,-33.24693653,91.9408218,1494.067096
9.9450,-33.09573303,91.72271981,1494.128024
9.9500,-32.95679757,91.51612615,1494.183072
9.9550,-32.83101171,91.32043877,1494.232645
9.9600,-32.717983,91.13540588,1494.277014
9.9650,-32.61873586,90.96126155,1494.31673
9.9700,-32.53139942,90.79737771,1494.351923
9.9750,-32.45590259,90.64287998,1494.381906
9.9800,-32.3933041,90.49730499,1494.406774
9.9850,-32.34426322,90.35831264,1494.426778
9.9900,-32.30713793,90.22679185,1494.441292
9.9950,-32.28258514,90.10126552,1494.450449
10.0000,-32.27220522,89.98000512,1494.454662
10.0050,-32.27548794,89.86311384,1494.453144
10.0100,-32.29285008,89.74885769,1494.446359
10.0150,-32.32361752,89.6386192,1494.434492
10.0200,-32.36675322,89.53218537,1494.417541
10.0250,-32.42034269,89.4287683,1494.394888
10.0300,-32.48469159,89.32904289,1494.366453
10.0350,-32.55927672,89.23220968,1494.33241
10.0400,-32.64493569,89.13826641,1494.292467
10.0450,-32.74073582,89.04669564,1494.247188
10.0500,-32.84642462,88.95870437,1494.196314
10.0550,-32.95967368,88.87583172,1494.139656
10.0600,-33.07988062,88.79725221,1494.076478
10.0650,-33.20487541,88.72414765,1494.006287
10.0700,-33.33454377,88.65602473,1493.929291
10.0750,-33.468814,88.59385404,1493.845013
10.0800,-33.60637093,88.53721306,1493.752633
10.0850,-33.749244,88.48700896,1493.65169
10.0900,-33.89569208,88.44443567,1493.542037
10.0950,-34.04550442,88.41013602,1493.423203
10.1000,-34.19667129,88.38603287,1493.293906
10.1050,-34.3480725,88.37309911,1493.153443
10.1100,-34.49929443,88.37213444,1493.002347
10.1150,-34.64939643,88.38295084,1492.838889
10.1200,-34.7985453,88.40568949,1492.66314
10.1250,-34.94708583,88.43981068,1492.474711
10.1300,-35.09569462,88.48512219,1492.272622
10.1350,-35.24301039,88.54249226,1492.055746
10.1400,-35.38834721,88.61287813,1491.824395
10.1450,-35.53089795,88.69633377,1491.577804
10.1500,-35.66929044,88.79183451,1491.315389
10.1550,-35.80477574,88.89905,1491.037594
10.1600,-35.9368803,89.01925603,1490.744946
10.1650,-36.06625925,89.15089165,1490.436353
10.1700,-36.19255555,89.29332025,1490.111931
10.1750,-36.31629898,89.44714892,1489.772416
10.1800,-36.43618987,89.61188729,1489.417217
10.1850,-36.55165298,89.78659622,1489.04639
10.1900,-36.66354809,89.97012196,1488.659802
10.1950,-36.77194182,90.16334306,1488.258573
10.2000,-36.87865001,90.36417737,1487.842267
10.2050,-36.98282112,90.57322527,1487.412373
10.2100,-37.08602941,90.79008651,1486.969625
10.2150,-37.18943853,91.01232005,1486.514325
10.2200,-37.29383938,91.2407599,1486.046987
10.2250,-37.40020949,91.47360983,1485.567367
10.2300,-37.50717661,91.71158098,1485.076594
10.2350,-37.61712825,91.95457706,1484.575969
10.2400,-37.72790144,92.20220778,1484.065337
10.2450,-37.84002869,92.45562036,1483.54616
10.2500,-37.95446667,92.71395228,1483.018111
10.2550,-38.07041947,92.976282,1482.481875
10.2600,-38.18709951,93.24395289,1481.938455
10.2650,-38.30573316,93.51548358,1481.387984
10.2700,-38.42602204,93.79108574,1480.830825
10.2750,-38.54805708,94.06983002,1480.267463
10.2800,-38.67288201,94.35095276,1479.699004
10.2850,-38.79955107,94.6336444,1479.124596
10.2900,-38.92953197,94.91753686,1478.54573
10.2950,-39.06303994,95.20278828,1477.961993
10.3000,-39.19933403,95.48821291,1477.374402
10.3050,-39.33826064,95.77347873,1476.782562
10.3100,-39.48054357,96.05957612,1476.187129
10.3150,-39.62720269,96.34561061,1475.58813
10.3200,-39.77823385,96.63158808,1474.986184
10.3250,-39.93511121,96.9173498,1474.382322
10.3300,-40.09604105,97.20283001,1473.776946
10.3350,-40.26099376,97.48792714,1473.17068
10.3400,-40.4306492,97.77356623,1472.563683
10.3450,-40.60475112,98.05903946,1471.956106
10.3500,-40.78283213,98.34428384,1471.348136
10.3550,-40.96634854,98.62847411,1470.740491
10.3600,-41.15282766,98.91303433,1470.133563
10.3650,-41.34270311,99.1980357,1469.52783
10.3700,-41.53439366,99.48266981,1468.92216
10.3750,-41.72799682,99.76789227,1468.317081
10.3800,-41.92317201,100.0521096,1467.712991
10.3850,-42.11820416,100.3365969,1467.109666
10.3900,-42.31179513,100.6216103,1466.507355
10.3950,-42.50416148,100.9067817,1465.905802
10.4000,-42.69599845,101.1920893,1465.305744
10.4050,-42.88630198,101.4751819,1464.707445
10.4100,-43.07485596,101.758356,1464.110664
10.4150,-43.26228808,102.0401014,1463.51609
10.4200,-43.44903424,102.3202472,1462.923434
10.4250,-43.63529039,102.5984366,1462.331944
10.4300,-43.82048244,102.8745276,1461.742705
10.4350,-44.00605217,103.1479577,1461.155362
10.4400,-44.1921627,103.4186285,1460.570034
10.4450,-44.37863543,103.6858816,1459.986517
10.4500,-44.56567365,103.9505956,1459.404789
10.4550,-44.75219316,104.2126441,1458.824298
10.4600,-44.93912161,104.4731996,1458.244804
10.4650,-45.12565922,104.7322583,1457.667033
10.4700,-45.31227055,104.9915899,1457.090617
10.4750,-45.49884272,105.2496609,1456.515383
10.4800,-45.68382511,105.5078046,1455.941495
10.4850,-45.86919384,105.7662953,1455.368877
10.4900,-46.0535023,106.025246,1454.797168
10.4950,-46.2365636,106.2845056,1454.225745
10.5000,-46.41642962,106.5446706,1453.655232
10.5050,-46.59568974,106.8052627,1453.084347
10.5100,-46.77301883,107.0661858,1452.513206
10.5150,-46.94839894,107.3283844,1451.941492
10.5200,-47.12121265,107.5917618,1451.369297
10.5250,-47.29090067,107.8571304,1450.795956
10.5300,-47.46002261,108.1239209,1450.221775
10.5350,-47.62777952,108.3923619,1449.645659
10.5400,-47.79660058,108.6615246,1449.06787
10.5450,-47.96587717,108.9312655,1448.487037
10.5500,-48.13660578,109.2022659,1447.903453
10.5550,-48.30950756,109.4740165,1447.316284
10.5600,-48.4874278,109.7464128,1446.724936
10.5650,-48.66964659,110.0192994,1446.129284
10.5700,-48.85661517,110.2941495,1445.528227
10.5750,-49.04832108,110.5699853,1444.922077
10.5800,-49.24302795,110.8472361,1444.31021
10.5850,-49.44078972,111.1273748,1443.692668
10.5900,-49.64104471,111.4108662,1443.069057
10.5950,-49.84373995,111.6973039,1442.439276
10.6000,-50.04885957,111.9879947,1441.802831
10.6050,-50.25648031,112.2832581,1441.159431
10.6100,-50.46631978,112.5823177,1440.509453
10.6150,-50.67631565,112.8868692,1439.852439
10.6200,-50.88706594,113.1958809,1439.188227
10.6250,-51.0986298,113.5092907,1438.515307
10.6300,-51.31137904,113.8263941,1437.834227
10.6350,-51.52435609,114.1462761,1437.142628
10.6400,-51.73711694,114.4678775,1436.440888
10.6450,-51.95010285,114.7910698,1435.728452
10.6500,-52.16361117,115.1142643,1435.004685
10.6550,-52.37744047,115.4378592,1434.269096
10.6600,-52.59268174,115.7613869,1433.520732
10.6650,-52.80888037,116.0836241,1432.759498
10.6700,-53.02570066,116.4066573,1431.986737
10.6750,-53.24264539,116.729828,1431.200647
10.6800,-53.45874998,117.0544856,1430.401389
10.6850,-53.6742403,117.3797395,1429.588709
10.6900,-53.89052335,117.7049207,1428.762109
10.6950,-54.10537362,118.0298576,1427.921647
10.7000,-54.31826295,118.354817,1427.066624
10.7050,-54.52805293,118.6808459,1426.196617
10.7100,-54.73451339,119.0060737,1425.311694
10.7150,-54.93601888,119.3311433,1424.411915
10.7200,-55.13110179,119.6570963,1423.497382
10.7250,-55.32012703,119.9821158,1422.567826
10.7300,-55.50307722,120.3060275,1421.623342
10.7350,-55.67902155,120.6288727,1420.663938
10.7400,-55.84696304,120.9506529,1419.689781
10.7450,-56.00708527,121.2726302,1418.701916
10.7500,-56.15980915,121.5944962,1417.700335
10.7550,-56.30550378,121.9166159,1416.68552
10.7600,-56.44270009,122.2376302,1415.65806
10.7650,-56.57306705,122.5582995,1414.617765
10.7700,-56.695743,122.8764953,1413.565178
10.7750,-56.81205196,123.1934483,1412.500556
10.7800,-56.92344693,123.50853,1411.424048
10.7850,-57.02810997,123.8225038,1410.336773
10.7900,-57.12610598,124.1357807,1409.239002
10.7950,-57.21698054,124.4501753,1408.132088
10.8000,-57.30156905,124.7650491,1407.016224
10.8050,-57.37846024,125.0802168,1405.892398
10.8100,-57.44730749,125.3946346,1404.760725
10.8150,-57.50864183,125.710107,1403.621821
10.8200,-57.56166164,126.0264835,1402.475638
10.8250,-57.60709835,126.343897,1401.323929
10.8300,-57.6432516,126.6621932,1400.166792
10.8350,-57.67083417,126.9811972,1399.004873
10.8400,-57.69033487,127.3010136,1397.838022
10.8450,-57.70252019,127.6219818,1396.667378
10.8500,-57.70695528,127.9425601,1395.492612
10.8550,-57.70443088,128.2645878,1394.314199
10.8600,-57.69462954,128.5866252,1393.132782
10.8650,-57.6783602,128.9089358,1391.947907
10.8700,-57.65733404,129.2302494,1390.760268
10.8750,-57.63245022,129.5518638,1389.568268
10.8800,-57.60475455,129.874217,1388.372715
10.8850,-57.57576622,130.1955989,1387.172621
10.8900,-57.54609666,130.5159787,1385.968213
10.8950,-57.51699509,130.8355943,1384.75944
10.9000,-57.48954018,131.1530828,1383.545185
10.9050,-57.46478267,131.4712206,1382.326985
10.9100,-57.44170353,131.7896706,1381.103344
10.9150,-57.42117006,132.1078504,1379.874148
10.9200,-57.4026113,132.4278741,1378.638897
10.9250,-57.38543459,132.7499716,1377.398306
10.9300,-57.36862494,133.0754631,1376.151353
10.9350,-57.35266906,133.4054916,1374.898912
10.9400,-57.33678797,133.7399361,1373.63999
10.9450,-57.32141179,134.0792577,1372.374232
10.9500,-57.30571716,134.4237008,1371.101176
10.9550,-57.28931684,134.7733272,1369.819935
10.9600,-57.27139122,135.1273568,1368.531406
10.9650,-57.25343081,135.4858597,1367.234848
10.9700,-57.23467787,135.8479398,1365.92839
10.9750,-57.21532347,136.212465,1364.613043
10.9800,-57.19532817,136.5798517,1363.287345
10.9850,-57.17355277,136.9499737,1361.951332
10.9900,-57.14942058,137.3218249,1360.604857
10.9950,-57.12378129,137.6956865,1359.247466
11.0000,-57.09653442,138.0715924,1357.879105
11.0050,-57.06879613,138.4478216,1356.49911
11.0100,-57.03907256,138.8248202,1355.106976
11.0150,-57.00808567,139.2021003,1353.702022
11.0200,-56.9751674,139.5785735,1352.283809
11.0250,-56.94056266,139.9545169,1350.853212
11.0300,-56.90338346,140.3303074,1349.408939
11.0350,-56.8623373,140.7054127,1347.951787
11.0400,-56.81811338,141.0792815,1346.480856
11.0450,-56.77033599,141.4504465,1344.996335
11.0500,-56.71831754,141.8188941,1343.498092
11.0550,-56.66210224,142.1838717,1341.986282
11.0600,-56.60201136,142.54492,1340.459913
11.0650,-56.53692758,142.901651,1338.920875
11.0700,-56.46546187,143.2542904,1337.36836
11.0750,-56.38585756,143.6028946,1335.802968
11.0800,-56.29809053,143.9466266,1334.224517
11.0850,-56.20272719,144.2830351,1332.632496
11.0900,-56.10000665,144.6124346,1331.027704
11.0950,-55.99032843,144.9326625,1329.409413
11.1000,-55.87469779,145.2435511,1327.77897
11.1050,-55.75120897,145.5468369,1326.136305
11.1100,-55.62101996,145.8423419,1324.481632
11.1150,-55.48421367,146.1291912,1322.815687
11.1200,-55.34193287,146.4079576,1321.13875
11.1250,-55.19347408,146.6772672,1319.450763
11.1300,-55.03870493,146.9387946,1317.751321
11.1350,-54.87667616,147.1930835,1316.041739
11.1400,-54.70577155,147.4393265,1314.322299
11.1450,-54.52626873,147.6776404,1312.593197
11.1500,-54.3371611,147.9096264,1310.854852
11.1550,-54.13906583,148.1341447,1309.107604
11.1600,-53.93085482,148.3519675,1307.351738
11.1650,-53.71268425,148.5631028,1305.588074
11.1700,-53.4841498,148.768185,1303.818259
11.1750,-53.24505613,148.9672405,1302.043345
11.1800,-52.99553178,149.1586488,1300.262692
11.1850,-52.73604737,149.34341,1298.478349
11.1900,-52.46612251,149.5201732,1296.689965
11.1950,-52.1862454,149.6897361,1294.899306
11.2000,-51.89646957,149.8519063,1293.106646
11.2050,-51.5968391,150.0042167,1291.31177
11.2100,-51.28715269,150.1467883,1289.515863
11.2150,-50.96894911,150.2778868,1287.719318
11.2200,-50.64204202,150.3968378,1285.922843
11.2250,-50.30824671,150.5027365,1284.127115
11.2300,-49.96894381,150.5942082,1282.332326
11.2350,-49.62498105,150.6695639,1280.540163
11.2400,-49.27744377,150.7296882,1278.750499
11.2450,-48.92698444,150.7730758,1276.963845
11.2500,-48.57346624,150.8005235,1275.18166
11.2550,-48.21846499,150.8121204,1273.403857
11.2600,-47.86256602,150.8068477,1271.630198
11.2650,-47.50550866,150.7862498,1269.86136
11.2700,-47.14815666,150.7505014,1268.097642
11.2750,-46.78967321,150.7006949,1266.338904
11.2800,-46.43033171,150.6364182,1264.586079
11.2850,-46.07123439,150.5585251,1262.839118
11.2900,-45.71136899,150.4683693,1261.098583
11.2950,-45.34957365,150.3663719,1259.36499
11.3000,-44.9860073,150.2509406,1257.638595
11.3050,-44.61930206,150.1244606,1255.920133
11.3100,-44.25091372,149.9855574,1254.21074
11.3150,-43.88056667,149.8353473,1252.510185
11.3200,-43.50913218,149.67458,1250.819378
11.3250,-43.13677819,149.5032748,1249.138195
11.3300,-42.76341188,149.3218943,1247.467611
11.3350,-42.38990133,149.1310317,1245.806698
11.3400,-42.01444503,148.9315836,1244.156075
11.3450,-41.6369429,148.7232563,1242.514251
11.3500,-41.25629713,148.5080332,1240.882508
11.3550,-40.87201838,148.2858144,1239.260594
11.3600,-40.48421999,148.0581071,1237.648876
11.3650,-40.09189318,147.8247631,1236.046293
11.3700,-39.6962314,147.5874556,1234.4532
11.3750,-39.29767755,147.3464842,1232.869614
11.3800,-38.89674531,147.1013741,1231.295981
11.3850,-38.49323329,146.8542976,1229.732575
11.3900,-38.08793567,146.604973,1228.178981
11.3950,-37.68036816,146.3557197,1226.635663
11.4000,-37.27056535,146.1071449,1225.101877
11.4050,-36.85917347,145.8593438,1223.577078
11.4100,-36.44568069,145.6144686,1222.061537
11.4150,-36.02957852,145.3717661,1220.555503
11.4200,-35.6099673,145.1322822,1219.058859
11.4250,-35.18542868,144.8985016,1217.571744
11.4300,-34.75791025,144.6684587,1216.093479
11.4350,-34.3274262,144.4422818,1214.623663
11.4400,-33.89599594,144.2209905,1213.163074
11.4450,-33.4628668,144.0038341,1211.710876
11.4500,-33.02890956,143.7903795,1210.268695
11.4550,-32.59438831,143.5804321,1208.835421
11.4600,-32.15982357,143.3735308,1207.411206
11.4650,-31.72447353,143.1713559,1205.995859
11.4700,-31.28841868,142.9723405,1204.58845
11.4750,-30.8514204,142.7763216,1203.18936
11.4800,-30.41263394,142.5850132,1201.798162
11.4850,-29.97247354,142.3990966,1200.415507
11.4900,-29.53041927,142.2194911,1199.040876
11.4950,-29.08612795,142.0451522,1197.673455
11.5000,-28.63915366,141.8780442,1196.314098
11.5050,-28.18952216,141.7173124,1194.962879
11.5100,-27.73854369,141.5631068,1193.618763
11.5150,-27.28484287,141.415931,1192.281706
11.5200,-26.83066251,141.2733904,1190.95178
11.5250,-26.37386266,141.1359068,1189.628175
11.5300,-25.91487584,141.0029136,1188.311253
11.5350,-25.45410853,140.8746424,1186.999633
11.5400,-24.99294207,140.7491486,1185.693762
11.5450,-24.52965737,140.6279655,1184.39374
11.5500,-24.06552378,140.5112352,1183.098744
11.5550,-23.599459,140.3975884,1181.809389
11.5600,-23.13151258,140.289162,1180.525477
11.5650,-22.66072942,140.1842984,1179.246482
11.5700,-22.18712928,140.0825842,1177.97198
11.5750,-21.710147,139.9839961,1176.702289
11.5800,-21.22959945,139.8888489,1175.436722
11.5850,-20.74553401,139.7963046,1174.175292
11.5900,-20.2576806,139.7064998,1172.917401
11.5950,-19.76670961,139.6187617,1171.662897
11.6000,-19.27240618,139.5338863,1170.411851
11.6050,-18.7744553,139.4502203,1169.163259
11.6100,-18.27166242,139.3696439,1167.916929
11.6150,-17.76489392,139.2907678,1166.672624
11.6200,-17.25387445,139.2131588,1165.430179
11.6250,-16.73839907,139.1380182,1164.18897
11.6300,-16.21942295,139.0633787,1162.949296
11.6350,-15.69675943,138.991548,1161.712174
11.6400,-15.1716551,138.9211692,1160.476949
11.6450,-14.64289725,138.8536217,1159.244101
11.6500,-14.11119596,138.7880677,1158.012632
11.6550,-13.57556267,138.7259832,1156.782071
11.6600,-13.0364299,138.6674915,1155.552089
11.6650,-12.49439346,138.6125305,1154.323279
11.6700,-11.94848722,138.5615097,1153.094964
11.6750,-11.39857147,138.5140035,1151.866823
11.6800,-10.84424132,138.4706714,1150.638752
11.6850,-10.28655563,138.4312622,1149.410805
11.6900,-9.724016961,138.3960652,1148.183138
11.6950,-9.157531883,138.3640805,1146.955539
11.7000,-8.585732821,138.3340981,1145.727577
11.7050,-8.010784595,138.3056766,1144.500426
11.7100,-7.431680762,138.2784443,1143.273602
11.7150,-6.849743314,138.2529567,1142.047126
11.7200,-6.263729749,138.2286489,1140.820582
11.7250,-5.675324288,138.2036327,1139.593477
11.7300,-5.083056278,138.1793459,1138.366497
11.7350,-4.488051925,138.1557669,1137.139453
11.7400,-3.888021547,138.1314321,1135.911004
11.7450,-3.283752356,138.1082034,1134.682883
11.7500,-2.674738133,138.0854888,1133.453855
11.7550,-2.061841771,138.0637484,1132.225736
11.7600,-1.444896585,138.0411859,1130.997654
11.7650,-0.8236115748,138.0172577,1129.769643
11.7700,-0.1992977861,137.9920175,1128.542383
11.7750,0.4269446722,137.9647202,1127.315849
11.7800,1.05540982,137.9357495,1126.090648
11.7850,1.68616643,137.9040711,1124.866448
11.7900,2.31870819,137.8698052,1123.643925
11.7950,2.953041182,137.8338226,1122.423403
11.8000,3.589022307,137.79374,1121.204454
11.8050,4.227949458,137.7505886,1119.987839
11.8100,4.869165531,137.7036517,1118.774027
11.8150,5.51202653,137.6526178,1117.563421
11.8200,6.157719373,137.5984506,1116.35593
11.8250,6.805483694,137.5398286,1115.151987
11.8300,7.455953246,137.4750438,1113.95023
11.8350,8.109370333,137.4046834,1112.751971
11.8400,8.766632945,137.3273946,1111.557253
11.8450,9.42686483,137.2418264,1110.366101
11.8500,10.08997182,137.1449015,1109.178554
11.8550,10.75581969,137.0373263,1107.994409
11.8600,11.4230928,136.9170906,1106.813366
11.8650,12.09139271,136.7836248,1105.635666
11.8700,12.76176424,136.6352253,1104.460834
11.8750,13.43189816,136.4717332,1103.289206
11.8800,14.10294169,136.2931477,1102.120776
11.8850,14.77528418,136.0985412,1100.955069
11.8900,15.44713851,135.8880786,1099.793199
11.8950,16.11900373,135.6600818,1098.633614
11.9000,16.79091435,135.416396,1097.476962
11.9050,17.46035443,135.1562759,1096.323565
11.9100,18.12763353,134.8791334,1095.172833
11.9150,18.79227281,134.5871357,1094.025671
11.9200,19.45374052,134.2787244,1092.88114
11.9250,20.11207759,133.9552302,1091.740377
11.9300,20.76682069,133.6180919,1090.602504
11.9350,21.41763821,133.2669278,1089.467311
11.9400,22.06569887,132.9032844,1088.334803
11.9450,22.70931801,132.5283509,1087.205879
11.9500,23.34849461,132.1421662,1086.080407
11.9550,23.98470393,131.7459434,1084.958524
11.9600,24.61890966,131.340058,1083.841008
11.9650,25.25321747,130.9256854,1082.726691
11.9700,25.88562508,130.501248,1081.615979
11.9750,26.51679603,130.068374,1080.509319
11.9800,27.1484003,129.6278358,1079.405876
11.9850,27.78080193,129.1809818,1078.305979
11.9900,28.41389453,128.7271623,1077.208884
11.9950,29.04756253,128.2668407,1076.114711
12.0000,29.68182326,127.8027833,1075.024057
12.0050,30.31780137,127.3354291,1073.935893
12.0100,30.9560593,126.8667117,1072.85072
12.0150,31.59908434,126.3970299,1071.768194
12.0200,32.24708238,125.927491,1070.688582
12.0250,32.90238649,125.459106,1069.611547
12.0300,33.56661805,124.9923419,1068.537434
12.0350,34.24195906,124.5272697,1067.466377
12.0400,34.92907123,124.0650211,1066.398903
12.0450,35.62837646,123.6032786,1065.334467
12.0500,36.34089362,123.1430324,1064.273331
12.0550,37.06835333,122.6824504,1063.214897
12.0600,37.81047821,122.2233128,1062.160053
12.0650,38.56681958,121.7629057,1061.109164
12.0700,39.34035518,121.3023736,1060.061794
12.0750,40.13231605,120.8411827,1059.018155
12.0800,40.94361467,120.378715,1057.978556
12.0850,41.7772136,119.9161958,1056.942792
12.0900,42.63376153,119.4524972,1055.910912
12.0950,43.51458479,118.9877865,1054.883002
12.1000,44.42067013,118.5223994,1053.859092
12.1050,45.34904613,118.0562376,1052.839875
12.1100,46.29839169,117.5890871,1051.825538
12.1150,47.2668518,117.1199433,1050.816733
12.1200,48.25259034,116.6490887,1049.813487
12.1250,49.25303618,116.1753666,1048.816567
12.1300,50.26437911,115.6999377,1047.827398
12.1350,51.28403111,115.2214824,1046.845814
12.1400,52.30849247,114.739575,1045.872497
12.1450,53.33458422,114.2532982,1044.908036
12.1500,54.36150918,113.7628312,1043.952308
12.1550,55.38542734,113.2670181,1043.006371
12.1600,56.40644766,112.7643307,1042.070336
12.1650,57.42191112,112.2535589,1041.144642
12.1700,58.42734269,111.734403,1040.230115
12.1750,59.42192206,111.2044655,1039.327032
12.1800,60.40212548,110.6619587,1038.436028
12.1850,61.36688068,110.1065113,1037.557582
12.1900,62.3154907,109.5358704,1036.691251
12.1950,63.24597297,108.9512194,1035.838123
12.2000,64.15711167,108.350257,1034.997791
12.2050,65.04963013,107.7334085,1034.170281
12.2100,65.92238487,107.1005924,1033.355712
12.2150,66.77654286,106.4515275,1032.55341
12.2200,67.61323723,105.7882109,1031.76346
12.2250,68.43313207,105.1111562,1030.985564
12.2300,69.23809886,104.422526,1030.219696
12.2350,70.028389,103.721928,1029.465501
12.2400,70.80353228,103.0120674,1028.723561
12.2450,71.56540375,102.2922475,1027.992338
12.2500,72.3147445,101.5641179,1027.27205
12.2550,73.05052538,100.8288446,1026.562543
12.2600,73.77294167,100.0870732,1025.863571
12.2650,74.48203041,99.34095262,1025.175237
12.2700,75.17890515,98.59305835,1024.497522
12.2750,75.86459049,97.84227085,1023.8296
12.2800,76.53877628,97.09143687,1023.172208
12.2850,77.20342354,96.34149395,1022.524616
12.2900,77.86000026,95.59414364,1021.886816
12.2950,78.50996741,94.84920231,1021.257827
12.3000,79.15515706,94.10829173,1020.637509
12.3050,79.7981791,93.37212599,1020.025161
12.3100,80.44087696,92.63915751,1019.420105
12.3150,81.08403813,91.91102397,1018.822218
12.3200,81.72907222,91.18715462,1018.230935
12.3250,82.37659735,90.4690719,1017.646524
12.3300,83.02688778,89.75661901,1017.068523
12.3350,83.68093278,89.04987388,1016.496535
12.3400,84.33924312,88.3492024,1015.930567
12.3450,85.00375853,87.6560523,1015.37019
12.3500,85.6742569,86.9690559,1014.815232
12.3550,86.35272647,86.29063226,1014.265945
12.3600,87.04070592,85.6213004,1013.721857
12.3650,87.74056432,84.9632704,1013.183009
12.3700,88.45229209,84.31737415,1012.649627
12.3750,89.17568305,83.68271534,1012.121493
12.3800,89.91175829,83.06041336,1011.598703
12.3850,90.65872451,82.44802405,1011.08135
12.3900,91.41624366,81.84553142,1010.569713
12.3950,92.18338726,81.25086864,1010.063706
12.4000,92.95944695,80.66520542,1009.564095
12.4050,93.74501696,80.0857009,1009.070156
12.4100,94.54155348,79.51207891,1008.581804
12.4150,95.3491302,78.94353613,1008.099039
12.4200,96.16699378,78.37781322,1007.621851
12.4250,96.99517365,77.81427506,1007.149929
12.4300,97.83416417,77.25260334,1006.683189
12.4350,98.6830661,76.69206448,1006.221808
12.4400,99.54435753,76.13138196,1005.764946
12.4450,100.4177197,75.57193986,1005.312861
12.4500,101.3023289,75.0149322,1004.866083
12.4550,102.1997554,74.45832936,1004.423833
12.4600,103.1092248,73.90389415,1003.986437
12.4650,104.0303862,73.35051693,1003.553788
12.4700,104.9645166,72.79883099,1003.125996
12.4750,105.9114756,72.24947782,1002.702729
12.4800,106.870423,71.7012717,1002.283858
12.4850,107.8403807,71.15547156,1001.86974
12.4900,108.8222175,70.61221916,1001.460158
12.4950,109.8145429,70.0712744,1001.055208
12.5000,110.8169742,69.53335311,1000.655078
12.5050,111.8278437,68.99964425,1000.260112
12.5100,112.8460231,68.47017996,999.8703949
12.5150,113.8706108,67.94595893,999.4860493
12.5200,114.899896,67.42819572,999.1076951
12.5250,115.9331098,66.91555213,998.7347786
12.5300,116.9682506,66.40822965,998.3676144
12.5350,118.0051431,65.90796771,998.0062864
12.5400,119.041621,65.41421033,997.6509673
12.5450,120.0774672,64.92783543,997.3015671
12.5500,121.109737,64.44889261,996.9583709
12.5550,122.1370945,63.97780509,996.6216244
12.5600,123.1579093,63.51321101,996.2909598
12.5650,124.1698167,63.05496738,995.9667643
12.5700,125.1711993,62.60274201,995.6489461
12.5750,126.1609976,62.15811551,995.3377581
12.5800,127.1378955,61.72013669,995.0326974
12.5850,128.1000084,61.28885052,994.7342321
12.5900,129.0477809,60.8633449,994.4416078
12.5950,129.9795797,60.44621362,994.1557043
12.6000,130.8959967,60.03656999,993.8758199
12.6050,131.7939412,59.63313038,993.6024189
12.6100,132.6723732,59.23601947,993.3352664
12.6150,133.5315482,58.8456863,993.0744859
12.6200,134.3696094,58.46140632,992.8200222
12.6250,135.1866799,58.08248468,992.5717787
12.6300,135.9814143,57.70976676,992.3299604
12.6350,136.7543617,57.3422806,992.0943171
12.6400,137.5031992,56.98006724,991.8652337
12.6450,138.2270696,56.62168308,991.6425645
12.6500,138.9256926,56.26974359,991.4268297
12.6550,139.5966221,55.92206601,991.2178934
12.6600,140.2400725,55.57866682,991.0159183
12.6650,140.8537757,55.23850885,990.8211095
12.6700,141.4373862,54.9002275,990.6333171
12.6750,141.9920707,54.56504238,990.4527932
12.6800,142.5149845,54.23050603,990.2793833
12.6850,143.0083024,53.89903314,990.1131276
12.6900,143.4723405,53.57009116,989.9538403
12.6950,143.9073645,53.24438124,989.8017614
12.7000,144.3137372,52.92128152,989.6564989
12.7050,144.6924245,52.60114726,989.5181243
12.7100,145.0446781,52.2830153,989.3863021
12.7150,145.3726918,51.96881143,989.2607652
12.7200,145.6786213,51.65880298,989.1411784
12.7250,145.964762,51.35397397,989.0271462
12.7300,146.2324861,51.05472437,988.9186647
12.7350,146.4861974,50.7610764,988.8148262
12.7400,146.7281663,50.4759905,988.7157714
12.7450,146.960881,50.1963312,988.6204992
12.7500,147.1868173,49.92319661,988.5286617
12.7550,147.4073396,49.65759613,988.440222
12.7600,147.623887,49.39974498,988.3549603
12.7650,147.8386989,49.15049923,988.2723828
12.7700,148.0522667,48.90933824,988.1922192
12.7750,148.2649584,48.67572165,988.1144656
12.7800,148.477975,48.45178757,988.0391028
12.7850,148.6911172,48.23575615,987.9658256
12.7900,148.9028505,48.02807012,987.8948388
12.7950,149.1130177,47.8288875,987.8261586
12.8000,149.3207446,47.63770531,987.7597883
12.8050,149.5250247,47.45331415,987.6955888
12.8100,149.7257534,47.2760491,987.6335949
12.8150,149.9216835,47.10323763,987.5736191
12.8200,150.1107367,46.93539956,987.5159616
12.8250,150.2911183,46.77169865,987.4608093
12.8300,150.4618089,46.61155169,987.4081103
12.8350,150.6215744,46.45402292,987.3580419
12.8400,150.7686889,46.29842068,987.3106702
12.8450,150.901236,46.14372976,987.2661609
12.8500,151.0199294,45.99091971,987.2246871
12.8550,151.1225241,45.83766686,987.1861176
12.8600,151.2099281,45.68608018,987.150787
12.8650,151.2816521,45.53482813,987.1184504
12.8700,151.3376329,45.38466486,987.089372
12.8750,151.3775191,45.23599352,987.0634498
12.8800,151.4009741,45.0889711,987.0409936
12.8850,151.409334,44.94281444,987.0215588
12.8900,151.4012709,44.80031517,987.0060101
12.8950,151.3774288,44.66092839,986.9938865
12.9000,151.3365927,44.52415285,986.9856102
12.9050,151.2810626,44.3917459,986.9809182
12.9100,151.2096765,44.26531953,986.9803906
12.9150,151.1219142,44.14498188,986.984104
12.9200,151.019383,44.03234134,986.9921861
12.9250,150.9002167,43.92767589,987.0050561
12.9300,150.7655151,43.83045029,987.0225788
12.9350,150.6133519,43.74255062,987.0453767
12.9400,150.4441565,43.66301432,987.0733142
12.9450,150.2572919,43.59359218,987.1068021
12.9500,150.0534675,43.53330262,987.1457917
12.9550,149.8323337,43.48263435,987.1905586
12.9600,149.5937394,43.44237442,987.2413225
12.9650,149.3375406,43.41339928,987.2981864
12.9700,149.0633738,43.39524708,987.3613034
12.9750,148.7711224,43.38806298,987.4307215
12.9800,148.4600325,43.39293255,987.506818
12.9850,148.130435,43.40772646,987.5894121
12.9900,147.7823996,43.43380496,987.6786948
12.9950,147.4159349,43.47051237,987.7744925
13.0000,147.0330178,43.51857318,987.8769474
13.0050,146.6332157,43.5779683,987.986156
13.0100,146.2159953,43.64933704,988.1023281
13.0150,145.7820555,43.73101882,988.2253962
13.0200,145.3316242,43.82379536,988.3554879
13.0250,144.8646292,43.92774135,988.4928046
13.0300,144.3826806,44.04177338,988.6371651
13.0350,143.8858579,44.16722323,988.7889276
13.0400,143.3714817,44.30329794,988.9484322
13.0450,142.8417678,44.451639,989.115934
13.0500,142.2953829,44.6107503,989.2916183
13.0550,141.7329386,44.78128383,989.4756783
13.0600,141.154765,44.96200105,989.6679502
13.0650,140.5609824,45.15392915,989.868846
13.0700,139.9509865,45.35614498,990.0784631
13.0750,139.3256192,45.5700675,990.2970667
13.0800,138.6847563,45.7943386,990.5245229
13.0850,138.026039,46.02981754,990.7617293
13.0900,137.3503616,46.27638112,991.0085049
13.0950,136.6580554,46.53345274,991.2649211
13.1000,135.947439,46.80115479,991.5314951
13.1050,135.2188203,47.08040524,991.8085592
13.1100,134.4715944,47.37132158,992.0963381
13.1150,133.7045387,47.67391634,992.395299
13.1200,132.9200598,47.9875116,992.70518
13.1250,132.1172644,48.31271294,993.0264959
13.1300,131.2972259,48.64946864,993.359501
13.1350,130.4596689,48.99637853,993.704067
13.1400,129.605167,49.35347757,994.0605958
13.1450,128.733712,49.72100995,994.4293384
13.1500,127.8452036,50.09802949,994.8106686
13.1550,126.9411033,50.48434096,995.2043767
13.1600,126.0197201,50.88013736,995.6112464
13.1650,125.08153,51.2850443,996.0313736
13.1700,124.1274487,51.6984218,996.4647895
13.1750,123.1578801,52.11928159,996.9117591
13.1800,122.1724139,52.54773291,997.3725391
13.1850,121.171391,52.98391161,997.8471814
13.1900,120.1549185,53.42641515,998.3353717
13.1950,119.1243116,53.87535093,998.837367
13.2000,118.079627,54.33091748,999.3528977
13.2050,117.0219109,54.79312005,999.882108
13.2100,115.951944,55.26110744,1000.424506
13.2150,114.8713246,55.73470926,1000.979881
13.2200,113.7795466,56.21369936,1001.548416
13.2250,112.6792311,56.69792075,1002.129583
13.2300,111.5696241,57.18597416,1002.723204
13.2350,110.4533242,57.67758577,1003.328797
13.2400,109.3313249,58.17263195,1003.946058
13.2450,108.2061191,58.67078534,1004.574436
13.2500,107.0772472,59.16988281,1005.213788
13.2550,105.9471381,59.67074221,1005.8635
13.2600,104.8170179,60.17130158,1006.523259
13.2650,103.6874733,60.67042449,1007.192678
13.2700,102.5600471,61.16848615,1007.871468
13.2750,101.4346072,61.66499244,1008.559363
13.2800,100.3134081,62.15947119,1009.255958
13.2850,99.19652953,62.6526313,1009.961428
13.2900,98.08436526,63.14289338,1010.675165
13.2950,96.97802079,63.63089762,1011.397232
13.3000,95.87604131,64.11654444,1012.127894
13.3050,94.77929472,64.59991682,1012.866634
13.3100,93.68813384,65.08168591,1013.613471
13.3150,92.60144321,65.56136664,1014.368824
13.3200,91.51994588,66.04016489,1015.132772
13.3250,90.44315713,66.51787851,1015.905289
13.3300,89.37158122,66.99576494,1016.686507
13.3350,88.30313462,67.47302386,1017.477045
13.3400,87.23835467,67.95025635,1018.276799
13.3450,86.17580464,68.42677413,1019.085991
13.3500,85.11578429,68.90356633,1019.905094
13.3550,84.05681183,69.38125919,1020.734554
13.3600,82.99769266,69.86039353,1021.574815
13.3650,81.93837729,70.34089262,1022.426045
13.3700,80.87675232,70.8247257,1023.289368
13.3750,79.81217471,71.31092985,1024.164765
13.3800,78.74405178,71.80037258,1025.052807
13.3850,77.6731333,72.29210823,1025.953282
13.3900,76.59892028,72.78744808,1026.866813
13.3950,75.51834924,73.28567072,1027.793863
13.4000,74.43314246,73.78691391,1028.733937
13.4050,73.34419209,74.29165408,1029.68722
13.4100,72.25090235,74.7990519,1030.653283
13.4150,71.15453656,75.31162204,1031.632803
13.4200,70.05326666,75.82823981,1032.625916
13.4250,68.94939567,76.3499256,1033.632371
13.4300,67.84233895,76.87627057,1034.652311
13.4350,66.73311898,77.40807959,1035.685948
13.4400,65.62224949,77.94451356,1036.732584
13.4450,64.51074849,78.4856949,1037.792374
13.4500,63.39940428,79.03119445,1038.86445
13.4550,62.28804063,79.58221785,1039.949871
13.4600,61.17916072,80.13751212,1041.047504
13.4650,60.07284245,80.69655829,1042.157066
13.4700,58.97087292,81.26133735,1043.278814
13.4750,57.87450993,81.83102962,1044.411659
13.4800,56.78490659,82.40578624,1045.555114
13.4850,55.70150986,82.98617554,1046.70909
13.4900,54.62555291,83.57274747,1047.873641
13.4950,53.55645893,84.16435493,1049.048066
13.5000,52.49603441,84.76148439,1050.231831
13.5050,51.44422216,85.36489412,1051.424577
13.5100,50.40118156,85.9737489,1052.626091
13.5150,49.36625332,86.58765085,1053.835794
13.5200,48.33999539,87.20585671,1055.053305
13.5250,47.32141295,87.82832865,1056.278266
13.5300,46.31192029,88.45388895,1057.510179
13.5350,45.31089389,89.08298953,1058.748617
13.5400,44.31849931,89.71444979,1059.993271
13.5450,43.33423371,90.34784812,1061.243824
13.5500,42.35955582,90.98287894,1062.499596
13.5550,41.39270826,91.61727089,1063.760092
13.5600,40.43419421,92.25122315,1065.02493
13.5650,39.48463757,92.88432514,1066.294337
13.5700,38.54293228,93.51513217,1067.567227
13.5750,37.60995871,94.14190083,1068.843606
13.5800,36.68562338,94.76411228,1070.12287
13.5850,35.76827705,95.38037903,1071.404571
13.5900,34.8588986,95.9900153,1072.68867
13.5950,33.95843588,96.59226179,1073.974102
13.6000,33.06574847,97.18596668,1075.260825
13.6050,32.18134179,97.77072395,1076.549292
13.6100,31.30431546,98.34642786,1077.838665
13.6150,30.43562615,98.91323741,1079.128395
13.6200,29.57424985,99.46908495,1080.418094
13.6250,28.72013825,100.0152537,1081.708004
13.6300,27.87168707,100.5504844,1082.997972
13.6350,27.02967383,101.075802,1084.28757
13.6400,26.1930265,101.5908561,1085.57709
13.6450,25.36209842,102.0978513,1086.86651
13.6500,24.53494666,102.5966478,1088.155735
13.6550,23.71163309,103.0867932,1089.44499
13.6600,22.89219607,103.5693732,1090.734374
13.6650,22.07496161,104.0438685,1092.024442
13.6700,21.26081612,104.5114281,1093.314862
13.6750,20.44924839,104.972033,1094.605785
13.6800,19.64030156,105.425719,1095.896948
13.6850,18.83277743,105.8744883,1097.188607
13.6900,18.02573091,106.3171986,1098.480725
13.6950,17.22015593,106.7552757,1099.773156
13.7000,16.4163159,107.1885075,1101.066374
13.7050,15.61230422,107.6166059,1102.360473
13.7100,14.80830322,108.0416687,1103.656004
13.7150,14.00574783,108.4617161,1104.951579
13.7200,13.20483762,108.8787533,1106.247105
13.7250,12.4046386,109.2915253,1107.543207
13.7300,11.60510009,109.7011644,1108.839066
13.7350,10.80634504,110.107037,1110.134156
13.7400,10.00850677,110.5104824,1111.429596
13.7450,9.212489559,110.9114712,1112.724803
13.7500,8.418198644,111.3098541,1114.019813
13.7550,7.627014303,111.705858,1115.314109
13.7600,6.838947527,112.0996995,1116.607851
