type,name,time_units,begin_time,frequency,count,units
signal_3d,"Noraxon MyoMotion-Trajectories-Ulnar styloid process RT","s",0.0000,200,5088,"mm"

time,x,y,z
0.0000,181.5380488,100.0230695,999.214024
0.0050,181.5454362,99.96116671,999.1931169
0.0100,181.5528155,99.8992588,999.1722227
0.0150,181.5601868,99.8373458,999.1513415
0.0200,181.564343,99.77240734,999.1298776
0.0250,181.5646565,99.7051312,999.1081396
0.0300,181.5605997,99.63622215,999.0864359
0.0350,181.5517801,99.56636701,999.0650594
0.0400,181.5379643,99.49621307,999.0442772
0.0450,181.5190978,99.4263564,999.0243237
0.0500,181.4953172,99.35733067,999.0053944
0.0550,181.4669417,99.28959382,998.9876403
0.0600,181.4344503,99.22351976,998.9711667
0.0650,181.3984546,99.15939738,998.9560342
0.0700,181.359675,99.0974301,998.9422606
0.0750,181.3189128,99.03773555,998.9298219
0.0800,181.2770225,98.98035198,998.9186572
0.0850,181.2348836,98.92525242,998.9086748
0.0900,181.1933773,98.87236297,998.89976
0.0950,181.1533669,98.82158123,998.891782
0.1000,181.1156753,98.7727894,998.8846003
0.1050,181.0810604,98.72586197,998.8780696
0.1100,181.0501912,98.68067298,998.8720444
0.1150,181.0236277,98.63710301,998.8663835
0.1200,181.0018068,98.59504433,998.8609544
0.1250,180.9850351,98.55440818,998.8556375
0.1300,180.9734909,98.51513366,998.8503301
0.1350,180.967232,98.47719106,998.8449466
0.1400,180.9662072,98.4405743,998.839417
0.1450,180.9702659,98.40528473,998.8336828
0.1500,180.9791665,98.37131098,998.8276931
0.1550,180.9938827,98.25465581,998.7978911
0.1600,181.0101404,98.13937174,998.7681129
0.1650,181.0283309,98.02605646,998.7383636
0.1700,181.0483919,97.91468193,998.7086953
0.1750,181.0692879,97.80422807,998.6789633
0.1800,181.0905151,97.6955862,998.6493601
0.1850,181.1127623,97.58721756,998.6194236
0.1900,181.1350162,97.4793672,998.5892559
0.1950,181.1558356,97.37205359,998.558987
0.2000,181.1772816,97.26499071,998.528458
0.2050,181.198872,97.15841173,998.497642
0.2100,181.2208747,97.05139961,998.4663892
0.2150,181.240853,96.94511329,998.4351797
0.2200,181.2606383,96.84002382,998.4040788
0.2250,181.2781462,96.73496985,998.3729443
0.2300,181.2950361,96.63066962,998.341762
0.2350,181.3091872,96.52660457,998.3107289
0.2400,181.3225268,96.42297584,998.2797177
0.2450,181.3336754,96.31905889,998.2485793
0.2500,181.3445865,96.21623619,998.2176447
0.2550,181.3548113,96.11370651,998.1867725
0.2600,181.3642579,96.01262056,998.1562366
0.2650,181.373855,95.91140885,998.1255989
0.2700,181.3818046,95.81037898,998.0950527
0.2750,181.3884723,95.70904728,998.0645899
0.2800,181.392832,95.60826982,998.0344829
0.2850,181.3962155,95.50743015,998.0044372
0.2900,181.3974887,95.40773004,997.9749147
0.2950,181.3978032,95.30953803,997.9459131
0.3000,181.395997,95.2123446,997.9173444
0.3050,181.3925104,95.11709674,997.889571
0.3100,181.3869971,95.02217684,997.8621997
0.3150,181.3792182,94.92966694,997.8358585
0.3200,181.3703444,94.83918994,997.8102911
0.3250,181.359346,94.75032433,997.7855185
0.3300,181.3459041,94.66429849,997.7619165
0.3350,181.3304943,94.58043008,997.7393573
0.3400,181.3131201,94.49966572,997.7179895
0.3450,181.2951174,94.42111307,997.6974392
0.3500,181.274747,94.34533578,997.6781287
0.3550,181.2539937,94.27213565,997.6598059
0.3600,181.231638,94.20204742,997.6426303
0.3650,181.2083635,94.13511581,997.6265639
0.3700,181.1844023,94.07176018,997.6117277
0.3750,181.1596101,94.01168079,997.59799
0.3800,181.1336135,93.95493453,997.5853817
0.3850,181.1071708,93.90204847,997.5740461
0.3900,181.0788894,93.85317993,997.5640217
0.3950,181.0494431,93.80875107,997.5554905
0.4000,181.0168158,93.76875387,997.5486742
0.4050,180.9806685,93.73390596,997.5436623
0.4100,180.9412928,93.70389617,997.5404895
0.4150,180.8983101,93.67806936,997.5389809
0.4200,180.8521617,93.65828252,997.5394996
0.4250,180.8012634,93.64339976,997.5419895
0.4300,180.7462483,93.63414257,997.546473
0.4350,180.6871856,93.62969769,997.5528893
0.4400,180.6234999,93.62932523,997.5609879
0.4450,180.5546381,93.6340169,997.570901
0.4500,180.4805259,93.64344922,997.5827998
0.4550,180.4021364,93.65667579,997.5963452
0.4600,180.3187048,93.67427813,997.6115526
0.4650,180.2318761,93.69636195,997.6285198
0.4700,180.1405471,93.72306271,997.6472154
0.4750,180.0453299,93.75316704,997.6673406
0.4800,179.9463213,93.78749733,997.6890287
0.4850,179.8430097,93.8262244,997.7124123
0.4900,179.7360155,93.86824508,997.7371118
0.4950,179.6246446,93.91336662,997.7632191
0.5000,179.508638,93.96294962,997.7912123
0.5050,179.3863765,94.01567089,997.8208193
0.5100,179.2581287,94.07120866,997.8520283
0.5150,179.1245301,94.12887022,997.8846564
0.5200,178.9843301,94.18850911,997.9187907
0.5250,178.8384765,94.25072446,997.9544225
0.5300,178.6870222,94.31349555,997.9911414
0.5350,178.5285799,94.37732319,998.0290924
0.5400,178.3629633,94.44172372,998.0683658
0.5450,178.190674,94.50770495,998.1090735
0.5500,178.0113829,94.5737163,998.1508922
0.5550,177.8250335,94.63939087,998.1938129
0.5600,177.6319655,94.70402552,998.2375094
0.5650,177.431945,94.76893347,998.2825352
0.5700,177.225792,94.83453286,998.3289116
0.5750,177.013261,94.89875826,998.376013
0.5800,176.7954259,94.96225873,998.4241251
0.5850,176.5704987,95.02483772,998.4733316
0.5900,176.3402186,95.08679798,998.5236179
0.5950,176.1041259,95.14672107,998.5745789
0.6000,175.8619402,95.20482712,998.6264513
0.6050,175.6139233,95.26113943,998.67913
0.6100,175.3607321,95.31620213,998.7327811
0.6150,175.1012997,95.36899144,998.7872219
0.6200,174.8356305,95.42038703,998.8428182
0.6250,174.5642727,95.47005531,998.8994997
0.6300,174.2876982,95.51841328,998.957331
0.6350,174.0052754,95.56584083,999.0165291
0.6400,173.7167184,95.61189411,999.0770875
0.6450,173.4216558,95.65787578,999.1394585
0.6500,173.1213753,95.70274429,999.2032415
0.6550,172.8141923,95.74748311,999.2688806
0.6600,172.5023616,95.79183533,999.3361879
0.6650,172.1848461,95.83634893,999.4054497
0.6700,171.8613259,95.88069012,999.4766872
0.6750,171.531761,95.92469278,999.5499439
0.6800,171.1969485,95.96897824,999.625284
0.6850,170.855856,96.01269924,999.7025887
0.6900,170.5094585,96.05604281,999.7820626
0.6950,170.1573489,96.10022451,999.8639514
0.7000,169.8010855,96.14388377,999.9477056
0.7050,169.4400023,96.18724579,1000.033486
0.7100,169.0743502,96.23094688,1000.121568
0.7150,168.702259,96.27654685,1000.212545
0.7200,168.3212873,96.32238608,1000.306274
0.7250,167.9347654,96.36845723,1000.402563
0.7300,167.5405919,96.41537003,1000.501926
0.7350,167.137588,96.46317579,1000.604348
0.7400,166.7262467,96.51353747,1000.710416
0.7450,166.3062154,96.56532145,1000.819968
0.7500,165.8780687,96.61860973,1000.932995
0.7550,165.4404578,96.67413709,1001.050009
0.7600,164.9927469,96.73168639,1001.171304
0.7650,164.5336193,96.79176626,1001.297221
0.7700,164.0642924,96.85295798,1001.427521
0.7750,163.5830514,96.91681009,1001.562783
0.7800,163.0911228,96.98313818,1001.703087
0.7850,162.5883311,97.05097596,1001.848383
0.7900,162.0754635,97.12137069,1001.999131
0.7950,161.5511211,97.19370539,1002.155355
0.8000,161.0157039,97.26787342,1002.317141
0.8050,160.4710387,97.34392344,1002.484518
0.8100,159.9170527,97.4231606,1002.657732
0.8150,159.3530233,97.50602906,1002.837372
0.8200,158.7797403,97.59170282,1003.023189
0.8250,158.1978008,97.68021056,1003.215597
0.8300,157.6064121,97.7723473,1003.414987
0.8350,157.0074208,97.86859065,1003.621409
0.8400,156.4005099,97.96718824,1003.834617
0.8450,155.7859381,98.0682234,1004.054798
0.8500,155.1636292,98.1719478,1004.282204
0.8550,154.5335529,98.27886858,1004.517167
0.8600,153.8966375,98.38877108,1004.759783
0.8650,153.2514724,98.50155227,1005.010307
0.8700,152.6000851,98.61666869,1005.268527
0.8750,151.942213,98.73489068,1005.535091
0.8800,151.2775672,98.85512258,1005.809779
0.8850,150.6062808,98.97847776,1006.093213
0.8900,149.9292092,99.10281136,1006.384887
0.8950,149.2461212,99.22962631,1006.685554
0.9000,148.5580191,99.35869434,1006.995248
0.9050,147.865172,99.49072209,1007.314329
0.9100,147.1660527,99.62569184,1007.643283
0.9150,146.461671,99.764089,1007.982335
0.9200,145.7515118,99.90460619,1008.331422
0.9250,145.0366207,100.0491991,1008.690875
0.9300,144.3155717,100.1963902,1009.060908
0.9350,143.5895687,100.3477565,1009.441802
0.9400,142.8563987,100.502884,1009.833813
0.9450,142.116884,100.6605144,1010.236516
0.9500,141.3703895,100.8215882,1010.65042
0.9550,140.6169601,100.986598,1011.075606
0.9600,139.8550948,101.1544844,1011.511836
0.9650,139.084474,101.3253537,1011.959362
0.9700,138.304683,101.499517,1012.417937
0.9750,137.5160597,101.6759528,1012.887356
0.9800,136.7158079,101.8549072,1013.367788
0.9850,135.9060411,102.0368366,1013.859194
0.9900,135.085109,102.2213692,1014.361436
0.9950,134.2528221,102.407176,1014.874102
1.0000,133.4080224,102.5945586,1015.397676
1.0050,132.5502984,102.7848541,1015.932402
1.0100,131.6786441,102.9762105,1016.477742
1.0150,130.7950733,103.1684683,1017.033467
1.0200,129.8985357,103.3609373,1017.599634
1.0250,128.9878998,103.5538753,1018.176107
1.0300,128.063338,103.747533,1018.76319
1.0350,127.125868,103.9413582,1019.360438
1.0400,126.174021,104.1344647,1019.967965
1.0450,125.2090474,104.326867,1020.585775
1.0500,124.2300077,104.519435,1021.213956
1.0550,123.2384315,104.7111891,1021.852184
1.0600,122.2345896,104.9019486,1022.500254
1.0650,121.2194016,105.0924135,1023.158396
1.0700,120.1921083,105.2828438,1023.826701
1.0750,119.1537463,105.4728975,1024.504851
1.0800,118.1038884,105.6621231,1025.192767
1.0850,117.0428834,105.8513168,1025.890647
1.0900,115.9709137,106.0402066,1026.597951
1.0950,114.8902931,106.2297522,1027.31472
1.1000,113.800698,106.4198443,1028.040785
1.1050,112.7030727,106.6103507,1028.776004
1.1100,111.5974765,106.800797,1029.520355
1.1150,110.4864131,106.9914665,1030.273088
1.1200,109.3695867,107.1824932,1031.03453
1.1250,108.2474344,107.3746865,1031.804248
1.1300,107.1198936,107.5669296,1032.582208
1.1350,105.9888616,107.7602596,1033.368192
1.1400,104.855784,107.9565017,1034.162139
1.1450,103.720673,108.154782,1034.964388
1.1500,102.5847273,108.3568354,1035.774945
1.1550,101.4486488,108.5625053,1036.593837
1.1600,100.3135762,108.7716471,1037.420719
1.1650,99.18163763,108.9851126,1038.255764
1.1700,98.05156395,109.2023029,1039.099216
1.1750,96.92496788,109.4246281,1039.951241
1.1800,95.80275723,109.6518486,1040.811776
1.1850,94.68586198,109.8842004,1041.680648
1.1900,93.57367511,110.123196,1042.559012
1.1950,92.46629063,110.3678177,1043.446659
1.2000,91.36364393,110.6182738,1044.343768
1.2050,90.26646148,110.874898,1045.250903
1.2100,89.17437571,111.138411,1046.167904
1.2150,88.08826545,111.4081481,1047.094916
1.2200,87.00848966,111.685559,1048.032093
1.2250,85.93393196,111.9692876,1048.979546
1.2300,84.86512606,112.260782,1049.937266
1.2350,83.80208401,112.5590062,1050.905619
1.2400,82.74716487,112.8647388,1051.88416
1.2450,81.69913129,113.1773022,1052.87345
1.2500,80.65765965,113.4970293,1053.873344
1.2550,79.62295523,113.8231189,1054.884183
1.2600,78.595214,114.1554787,1055.906023
1.2650,77.5756436,114.4946705,1056.938659
1.2700,76.56316854,114.8388528,1057.982414
1.2750,75.55693757,115.1900923,1059.038068
1.2800,74.55889423,115.5462061,1060.104677
1.2850,73.56660494,115.9080473,1061.183354
1.2900,72.57951008,116.2746981,1062.274372
1.2950,71.59726006,116.6459902,1063.378053
1.3000,70.62046132,117.0229765,1064.49419
1.3050,69.64894495,117.4040489,1065.622884
1.3100,68.68280399,117.7904686,1066.764227
1.3150,67.72097881,118.1819469,1067.918714
1.3200,66.76386957,118.5795166,1069.085871
1.3250,65.80944796,118.9831682,1070.267054
1.3300,64.85869979,119.3929138,1071.46125
1.3350,63.91063883,119.8094382,1072.669063
1.3400,62.96596058,120.2326397,1073.890317
1.3450,62.02464734,120.6625839,1075.124404
1.3500,61.08610341,121.0991197,1076.37157
1.3550,60.14911163,121.5422761,1077.631904
1.3600,59.21438423,121.9922821,1078.905422
1.3650,58.28080489,122.4486418,1080.191643
1.3700,57.34870271,122.9110177,1081.490442
1.3750,56.41929502,123.3786714,1082.80161
1.3800,55.4926544,123.8510209,1084.125337
1.3850,54.56801244,124.3280143,1085.461065
1.3900,53.64523873,124.8083177,1086.80989
1.3950,52.72476907,125.2918093,1088.170972
1.4000,51.80624985,125.7771445,1089.544293
1.4050,50.88857453,126.2647171,1090.930138
1.4100,49.97143675,126.7533767,1092.328456
1.4150,49.05486675,127.243599,1093.739691
1.4200,48.1391854,127.7345523,1095.162911
1.4250,47.2247081,128.2258151,1096.598499
1.4300,46.3120933,128.7189265,1098.046466
1.4350,45.40159959,129.2125152,1099.506542
1.4400,44.49133385,129.7058183,1100.979002
1.4450,43.58133244,130.1988945,1102.462987
1.4500,42.67262082,130.6912778,1103.958387
1.4550,41.76444642,131.1818478,1105.463961
1.4600,40.85659515,131.6705323,1106.979616
1.4650,39.94850253,132.1567539,1108.504476
1.4700,39.04089873,132.6416287,1110.038371
1.4750,38.13335495,133.1242154,1111.580593
1.4800,37.22646672,133.6057577,1113.131589
1.4850,36.32064201,134.0845062,1114.690344
1.4900,35.41512213,134.5608321,1116.256616
1.4950,34.51056127,135.0343074,1117.82978
1.5000,33.60793033,135.505571,1119.409534
1.5050,32.70602203,135.9730916,1120.995211
1.5100,31.80711017,136.4365208,1122.586548
1.5150,30.91040013,136.8953807,1124.183081
1.5200,30.01597942,137.3494664,1125.784992
1.5250,29.12396402,137.7989956,1127.392047
1.5300,28.23420895,138.242689,1129.003932
1.5350,27.34724991,138.6811219,1130.61927
1.5400,26.46211416,139.1143047,1132.239112
1.5450,25.57905537,139.5414197,1133.862081
1.5500,24.69901555,139.9629373,1135.488269
1.5550,23.82112593,140.3783852,1137.117392
1.5600,22.94605387,140.7885696,1138.749048
1.5650,22.07350686,141.1918256,1140.382806
1.5700,21.20373267,141.5888626,1142.017693
1.5750,20.33584075,141.9789065,1143.65367
1.5800,19.47029015,142.3647071,1145.291441
1.5850,18.60738029,142.7431191,1146.928927
1.5900,17.74798801,143.1155235,1148.565879
1.5950,16.89129189,143.4819838,1150.202212
1.6000,16.03758179,143.8414686,1151.83731
1.6050,15.18773993,144.1943254,1153.470514
1.6100,14.3424215,144.5403656,1155.101965
1.6150,13.50075481,144.8791186,1156.730804
1.6200,12.66440342,145.2120095,1158.357414
1.6250,11.8348776,145.5384384,1159.98054
1.6300,11.01162159,145.8574621,1161.601098
1.6350,10.19616164,146.1696193,1163.218227
1.6400,9.388496479,146.4755613,1164.831815
1.6450,8.588321603,146.7743209,1166.44221
1.6500,7.796250881,147.065605,1168.049069
1.6550,7.0142898,147.3503152,1169.652097
1.6600,6.241521577,147.6286173,1171.251762
1.6650,5.479431417,147.8992593,1172.847356
1.6700,4.728979123,148.1628535,1174.438148
1.6750,3.989604815,148.4198964,1176.024929
1.6800,3.261668888,148.6701566,1177.606459
1.6850,2.545495978,148.9133145,1179.182916
1.6900,1.841399827,149.1498663,1180.752583
1.6950,1.148002874,149.3788398,1182.316578
1.7000,0.4666282378,149.6012979,1183.874584
1.7050,-0.2019405187,149.8180621,1185.426001
1.7100,-0.857189641,150.0283855,1186.970952
1.7150,-1.500790254,150.2315097,1188.508492
1.7200,-2.13142875,150.4275573,1190.03887
1.7250,-2.750636059,150.6158303,1191.561297
1.7300,-3.357736444,150.7961387,1193.07574
1.7350,-3.954230311,150.9683914,1194.582864
1.7400,-4.538984312,151.1325325,1196.082225
1.7450,-5.111252722,151.2905051,1197.573872
1.7500,-5.671905002,151.4408188,1199.057532
1.7550,-6.221038591,151.5848199,1200.534212
1.7600,-6.75878146,151.7222191,1202.004624
1.7650,-7.285412351,151.8530925,1203.468354
1.7700,-7.801382678,151.9761831,1204.925085
1.7750,-8.305583589,152.0924912,1206.37537
1.7800,-8.80071501,152.2008834,1207.819077
1.7850,-9.286897318,152.302056,1209.257678
1.7900,-9.764393194,152.3946464,1210.690215
1.7950,-10.23358223,152.4790062,1212.117498
1.8000,-10.69557968,152.5548025,1213.539728
1.8050,-11.15004547,152.6218837,1214.956635
1.8100,-11.59806894,152.679655,1216.368831
1.8150,-12.0402335,152.7292817,1217.776653
1.8200,-12.47802927,152.770668,1219.180154
1.8250,-12.91177957,152.8026776,1220.579453
1.8300,-13.34055563,152.8274719,1221.974496
1.8350,-13.76597897,152.8440162,1223.366399
1.8400,-14.18809202,152.8508949,1224.754116
1.8450,-14.60683954,152.8512988,1226.138392
1.8500,-15.02245091,152.8435139,1227.519294
1.8550,-15.43520444,152.8282995,1228.896758
1.8600,-15.84530671,152.8050057,1230.270857
1.8650,-16.25428866,152.7749549,1231.642055
1.8700,-16.662133,152.7380066,1233.010958
1.8750,-17.06824779,152.694466,1234.376749
1.8800,-17.47354012,152.6429212,1235.739259
1.8850,-17.87786366,152.5860306,1237.100078
1.8900,-18.28140207,152.5230693,1238.458051
1.8950,-18.68386739,152.4544943,1239.813236
1.9000,-19.08538494,152.3813757,1241.16604
1.9050,-19.48681323,152.3039325,1242.516644
1.9100,-19.88806732,152.2224214,1243.865755
1.9150,-20.28814425,152.1383847,1245.213345
1.9200,-20.68797345,152.0505055,1246.559602
1.9250,-21.08731551,151.9596859,1247.904514
1.9300,-21.48674977,151.8667362,1249.248315
1.9350,-21.88560961,151.7707421,1250.591271
1.9400,-22.28384999,151.6720936,1251.932569
1.9450,-22.68068382,151.5723152,1253.273164
1.9500,-23.07631839,151.4718636,1254.613094
1.9550,-23.47109165,151.3704136,1255.952331
1.9600,-23.86371757,151.2695614,1257.29075
1.9650,-24.25573374,151.1698508,1258.628782
1.9700,-24.64611157,151.0712384,1259.96675
1.9750,-25.03503754,150.9733763,1261.30449
1.9800,-25.42199126,150.8769026,1262.641814
1.9850,-25.80548278,150.7813301,1263.978856
1.9900,-26.18601671,150.6867153,1265.316453
1.9950,-26.56266034,150.5926062,1266.653068
2.0000,-26.9370555,150.4989425,1267.989199
2.0050,-27.30948341,150.4044303,1269.324795
2.0100,-27.67988223,150.3103365,1270.659185
2.0150,-28.04907286,150.2154788,1271.993314
2.0200,-28.41618433,150.1208687,1273.326248
2.0250,-28.78103342,150.0266889,1274.658325
2.0300,-29.14318097,149.9329258,1275.988575
2.0350,-29.50216193,149.8392805,1277.316868
2.0400,-29.85762246,149.7455048,1278.642585
2.0450,-30.21100735,149.6502571,1279.965609
2.0500,-30.56131348,149.5549906,1281.286218
2.0550,-30.90769364,149.4593745,1282.603636
2.0600,-31.25110068,149.3629303,1283.917365
2.0650,-31.59002639,149.266315,1285.227938
2.0700,-31.92474971,149.1689232,1286.535966
2.0750,-32.2555817,149.0707755,1287.840795
2.0800,-32.58178763,148.971175,1289.141972
2.0850,-32.90249171,148.8711821,1290.439049
2.0900,-33.21748567,148.7709844,1291.732848
2.0950,-33.52730772,148.6707385,1293.023127
2.1000,-33.83033133,148.5715152,1294.31016
2.1050,-34.12696983,148.4720243,1295.59408
2.1100,-34.41705469,148.3720002,1296.874032
2.1150,-34.70002315,148.2711707,1298.150228
2.1200,-34.97500788,148.1693642,1299.422486
2.1250,-35.24163277,148.0667799,1300.690954
2.1300,-35.50138569,147.9615217,1301.955568
2.1350,-35.75460847,147.854104,1303.216193
2.1400,-36.00036366,147.7441935,1304.47221
2.1450,-36.23977019,147.6308187,1305.724021
2.1500,-36.47275675,147.5146799,1306.971639
2.1550,-36.69950989,147.3956542,1308.214321
2.1600,-36.92102352,147.2731218,1309.452727
2.1650,-37.13646828,147.1467284,1310.686534
2.1700,-37.34581325,147.0168677,1311.914588
2.1750,-37.54960644,146.882895,1313.137944
2.1800,-37.74780252,146.7450167,1314.356771
2.1850,-37.94003721,146.6032888,1315.569911
2.1900,-38.12716914,146.458142,1316.778516
2.1950,-38.30838427,146.3097415,1317.982457
2.2000,-38.48400659,146.1581663,1319.182248
2.2050,-38.65408022,146.0021749,1320.37821
2.2100,-38.81994051,145.8430254,1321.570128
2.2150,-38.98168426,145.6783689,1322.758335
2.2200,-39.13778132,145.5101371,1323.94191
2.2250,-39.28960628,145.33728,1325.121201
2.2300,-39.43659674,145.1604747,1326.295888
2.2350,-39.57935545,144.9794526,1327.46644
2.2400,-39.71846408,144.7954423,1328.633631
2.2450,-39.85383134,144.6078419,1329.79698
2.2500,-39.98585168,144.4165336,1330.955822
2.2550,-40.1149346,144.2221552,1332.110228
2.2600,-40.24046898,144.0239339,1333.260082
2.2650,-40.36235948,143.821574,1334.405368
2.2700,-40.48142855,143.6160411,1335.546389
2.2750,-40.59763774,143.4071612,1336.682573
2.2800,-40.71078712,143.1958627,1337.814807
2.2850,-40.82182106,142.9821536,1338.941891
2.2900,-40.93069021,142.766955,1340.064814
2.2950,-41.03742585,142.5508359,1341.183915
2.3000,-41.14102745,142.3334951,1342.298101
2.3050,-41.24167198,142.1153743,1343.408266
2.3100,-41.33992992,141.8959934,1344.514396
2.3150,-41.43537198,141.6767867,1345.616304
2.3200,-41.52810165,141.4569141,1346.714916
2.3250,-41.61780848,141.2375529,1347.810042
2.3300,-41.70430694,141.0180809,1348.902527
2.3350,-41.787662,140.7975858,1349.99182
2.3400,-41.86841468,140.5767991,1351.07852
2.3450,-41.94494702,140.3564285,1352.162366
2.3500,-42.01829502,140.1352497,1353.24388
2.3550,-42.08946177,139.9128934,1354.32352
2.3600,-42.15682024,139.6900001,1355.401261
2.3650,-42.22199503,139.4659071,1356.476513
2.3700,-42.28526431,139.2397999,1357.549549
2.3750,-42.34625529,139.0120601,1358.620766
2.3800,-42.40466167,138.7825004,1359.690866
2.3850,-42.46244385,138.551239,1360.759315
2.3900,-42.51894524,138.3182177,1361.826143
2.3950,-42.57274891,138.0827215,1362.891691
2.4000,-42.62509422,137.8439713,1363.956555
2.4050,-42.67619301,137.6031239,1365.020459
2.4100,-42.72644549,137.3607839,1366.084547
2.4150,-42.77531903,137.1161702,1367.147515
2.4200,-42.82321497,136.8692915,1368.210664
2.4250,-42.86977477,136.6203167,1369.273162
2.4300,-42.91460874,136.3694814,1370.335745
2.4350,-42.95772969,136.1167947,1371.397918
2.4400,-43.00017166,135.8633262,1372.460945
2.4450,-43.0409563,135.6077872,1373.524358
2.4500,-43.08133575,135.3504585,1374.587893
2.4550,-43.12051076,135.0911522,1375.65203
2.4600,-43.1577836,134.8308504,1376.716829
2.4650,-43.19282165,134.569898,1377.781518
2.4700,-43.22617988,134.3074009,1378.847536
2.4750,-43.25783417,134.0441884,1379.913364
2.4800,-43.28858519,133.7800592,1380.978877
2.4850,-43.3185163,133.5153009,1382.044662
2.4900,-43.34753737,133.2486791,1383.110635
2.4950,-43.37612318,132.9804653,1384.176972
2.5000,-43.40491475,132.7113374,1385.243246
2.5050,-43.43378768,132.4418388,1386.309569
2.5100,-43.46132986,132.1722605,1387.375196
2.5150,-43.48792795,131.9033147,1388.440164
2.5200,-43.51427702,131.6346041,1389.505308
2.5250,-43.53869932,131.3675706,1390.57022
2.5300,-43.56237798,131.1014913,1391.634798
2.5350,-43.58398773,130.8383955,1392.698662
2.5400,-43.60406295,130.5769064,1393.761541
2.5450,-43.62199079,130.3173108,1394.823445
2.5500,-43.63647095,130.0606505,1395.885143
2.5550,-43.6475618,129.8066745,1396.946245
2.5600,-43.65634358,129.5542173,1398.006181
2.5650,-43.66160191,129.3043446,1399.063949
2.5700,-43.66375904,129.0568158,1400.119658
2.5750,-43.66305219,128.8124006,1401.172752
2.5800,-43.66009793,128.570068,1402.223166
2.5850,-43.65493922,128.3293937,1403.270733
2.5900,-43.64754077,128.0909158,1404.314578
2.5950,-43.6381463,127.8552454,1405.354468
2.6000,-43.62626838,127.6208546,1406.390595
2.6050,-43.6139376,127.3890403,1407.422509
2.6100,-43.60012004,127.1593019,1408.450006
2.6150,-43.58518445,126.9311119,1409.472548
2.6200,-43.57002857,126.7057776,1410.490721
2.6250,-43.55482135,126.4813516,1411.504858
2.6300,-43.53990289,126.2585485,1412.513745
2.6350,-43.52530251,126.0393256,1413.518607
2.6400,-43.51024055,125.8222395,1414.518543
2.6450,-43.49460966,125.6069389,1415.513625
2.6500,-43.47807742,125.3933903,1416.503677
2.6550,-43.45977014,125.1825718,1417.488565
2.6600,-43.44057503,124.9741093,1418.46887
2.6650,-43.41978112,124.767755,1419.444358
2.6700,-43.39686045,124.5637427,1420.414807
2.6750,-43.3735147,124.3616782,1421.38004
2.6800,-43.3483549,124.1619034,1422.340007
2.6850,-43.32005869,123.9624738,1423.294636
2.6900,-43.28885734,123.7642657,1424.243814
2.6950,-43.25502174,123.5664391,1425.188298
2.7000,-43.21836814,123.368908,1426.127242
2.7050,-43.17911669,123.1713244,1427.061286
2.7100,-43.13597028,122.9726996,1427.990614
2.7150,-43.09022415,122.7731301,1428.916176
2.7200,-43.04066965,122.5727496,1429.836985
2.7250,-42.98754145,122.3701514,1430.754141
2.7300,-42.93015346,122.1655381,1431.66687
2.7350,-42.86755469,121.9586485,1432.575365
2.7400,-42.79909641,121.7480018,1433.479155
2.7450,-42.72452256,121.534356,1434.379406
2.7500,-42.64344906,121.3168263,1435.27514
2.7550,-42.55473743,121.0965667,1436.16705
2.7600,-42.45863904,120.8736927,1437.054883
2.7650,-42.35388716,120.6476291,1437.939496
2.7700,-42.24011735,120.4189102,1438.819791
2.7750,-42.11598557,120.1871667,1439.695806
2.7800,-41.98200323,119.9520628,1440.567768
2.7850,-41.83929941,119.7139794,1441.435334
2.7900,-41.68685302,119.4726854,1442.298022
2.7950,-41.52540588,119.2291742,1443.155817
2.8000,-41.35534384,118.9824476,1444.007919
2.8050,-41.17704669,118.7326903,1444.853701
2.8100,-40.99117531,118.4793416,1445.693665
2.8150,-40.79854975,118.2227074,1446.527119
2.8200,-40.60077796,117.9628613,1447.354168
2.8250,-40.40035016,117.6997271,1448.174519
2.8300,-40.19687674,117.4340366,1448.988161
2.8350,-39.99268327,117.1644324,1449.795135
2.8400,-39.78790044,116.8916237,1450.595668
2.8450,-39.58444809,116.6152412,1451.38958
2.8500,-39.38267789,116.3344229,1452.17626
2.8550,-39.18237263,116.0500542,1452.956255
2.8600,-38.984157,115.7635753,1453.729797
2.8650,-38.78867888,115.4735031,1454.497725
2.8700,-38.59550492,115.1811605,1455.259716
2.8750,-38.40510188,114.8865205,1456.017067
2.8800,-38.21733204,114.58971,1456.769073
2.8850,-38.03223077,114.2915691,1457.51688
2.8900,-37.85060751,113.9906344,1458.26048
2.8950,-37.67258756,113.6875293,1459.000572
2.9000,-37.4980445,113.3836267,1459.737466
2.9050,-37.32508556,113.0768567,1460.47168
2.9100,-37.15606331,112.7687509,1461.203558
2.9150,-36.98913158,112.4592917,1461.933193
2.9200,-36.82547039,112.1470097,1462.660084
2.9250,-36.66450986,111.8337291,1463.384631
2.9300,-36.50660696,111.5177152,1464.107168
2.9350,-36.35303593,111.199417,1464.827844
2.9400,-36.20388443,110.8791481,1465.54674
2.9450,-36.06014598,110.5578566,1466.264667
2.9500,-35.92276933,110.2350143,1466.981063
2.9550,-35.79158127,109.9094083,1467.695867
2.9600,-35.66731585,109.5824128,1468.409719
2.9650,-35.54953142,109.2535799,1469.122394
2.9700,-35.43861811,108.9241461,1469.833288
2.9750,-35.33277944,108.5933768,1470.542976
2.9800,-35.23368584,108.2609214,1471.251029
2.9850,-35.14036605,107.927987,1471.957974
2.9900,-35.05247695,107.5947029,1472.663603
2.9950,-34.97078839,107.2620939,1473.367516
3.0000,-34.894313,106.9293661,1474.068871
3.0050,-34.82152217,106.5968491,1474.767547
3.0100,-34.75351136,106.2648569,1475.463178
3.0150,-34.68899889,105.9345704,1476.155748
3.0200,-34.62850869,105.6051617,1476.845415
3.0250,-34.57081949,105.2787948,1477.531574
3.0300,-34.51723591,104.9550245,1478.214513
3.0350,-34.46694488,104.6330279,1478.894415
3.0400,-34.41983957,104.3149377,1479.571087
3.0450,-34.37641927,103.9995689,1480.243962
3.0500,-34.33580199,103.6877322,1480.913317
3.0550,-34.29851947,103.3788281,1481.578556
3.0600,-34.26402268,103.0735931,1482.239675
3.0650,-34.23380765,102.7712728,1482.896604
3.0700,-34.20650733,102.4726057,1483.549158
3.0750,-34.18289312,102.1777216,1484.197768
3.0800,-34.16142143,101.8870069,1484.841299
3.0850,-34.14158212,101.5995854,1485.479616
3.0900,-34.12380712,101.3161877,1486.112582
3.0950,-34.10767386,101.0361041,1486.739357
3.1000,-34.09208354,100.7597221,1487.359902
3.1050,-34.0766302,100.4872732,1487.974243
3.1100,-34.06277326,100.2193431,1488.582027
3.1150,-34.04883108,99.95509741,1489.183489
3.1200,-34.0349757,99.69399632,1489.777917
3.1250,-34.0193656,99.43599461,1490.364929
3.1300,-34.00221133,99.18079582,1490.944679
3.1350,-33.98305183,98.92853307,1491.517153
3.1400,-33.96193772,98.6790511,1492.081496
3.1450,-33.93735623,98.4325923,1492.637618
3.1500,-33.91017763,98.18999585,1493.18621
3.1550,-33.88048511,97.95001286,1493.726408
3.1600,-33.84915956,97.71237306,1494.258514
3.1650,-33.81573462,97.47735538,1494.782398
3.1700,-33.779715,97.24354534,1495.29824
3.1750,-33.74027473,97.01174012,1495.805387
3.1800,-33.69791464,96.78117362,1496.304256
3.1850,-33.65189004,96.55159682,1496.795439
3.1900,-33.60227554,96.32391326,1497.278299
3.1950,-33.54835556,96.09729665,1497.753228
3.2000,-33.49178726,95.87204903,1498.220708
3.2050,-33.43166888,95.64928946,1498.680479
3.2100,-33.36716233,95.42766136,1499.132421
3.2150,-33.29874217,95.20699066,1499.576456
3.2200,-33.22632186,94.98828053,1500.013604
3.2250,-33.150149,94.77205473,1500.443629
3.2300,-33.07079793,94.55913946,1500.867169
3.2350,-32.98770807,94.34946322,1501.283905
3.2400,-32.90160797,94.14369837,1501.695015
3.2450,-32.81204073,93.94065022,1502.099578
3.2500,-32.71883256,93.74288869,1502.498492
3.2550,-32.6223347,93.55108287,1502.891648
3.2600,-32.52307665,93.36332592,1503.278097
3.2650,-32.42072368,93.18088562,1503.659
3.2700,-32.3157619,93.00401888,1504.034627
3.2750,-32.20978644,92.83258781,1504.405205
3.2800,-32.10107816,92.66717712,1504.770692
3.2850,-31.99201373,92.50638344,1505.130609
3.2900,-31.88178361,92.35020842,1505.485113
3.2950,-31.7710354,92.19781718,1505.834424
3.3000,-31.66078379,92.05016548,1506.179671
3.3050,-31.54919468,91.90728167,1506.520636
3.3100,-31.43731237,91.76897586,1506.857187
3.3150,-31.32475256,91.63350116,1507.189367
3.3200,-31.2111748,91.50064418,1507.51685
3.3250,-31.09777246,91.36992004,1507.840415
3.3300,-30.98330289,91.24018157,1508.159544
3.3350,-30.86817174,91.1120201,1508.474483
3.3400,-30.75245091,90.98362664,1508.785941
3.3450,-30.63548756,90.85586997,1509.09366
3.3500,-30.51721149,90.72900311,1509.398746
3.3550,-30.398821,90.60203717,1509.701269
3.3600,-30.278606,90.47393734,1510.001116
3.3650,-30.15611077,90.34657724,1510.298898
3.3700,-30.03245427,90.21832739,1510.594792
3.3750,-29.90667779,90.09027199,1510.888613
3.3800,-29.77991632,89.96107895,1511.180765
3.3850,-29.65089768,89.8313835,1511.471116
3.3900,-29.52049303,89.70137716,1511.760168
3.3950,-29.38897475,89.57115726,1512.048501
3.4000,-29.25688533,89.43969214,1512.336969
3.4050,-29.12477178,89.30739296,1512.625438
3.4100,-28.99115973,89.17337987,1512.913868
3.4150,-28.85856261,89.03817397,1513.202427
3.4200,-28.72512438,88.90089816,1513.491042
3.4250,-28.5917503,88.76163342,1513.780055
3.4300,-28.45839526,88.62050472,1514.068783
3.4350,-28.32478257,88.4770478,1514.357418
3.4400,-28.19040157,88.3313455,1514.645899
3.4450,-28.05728972,88.18383036,1514.934926
3.4500,-27.92649189,88.03364441,1515.223879
3.4550,-27.79737837,87.88147499,1515.513457
3.4600,-27.66874658,87.72712371,1515.80324
3.4650,-27.54294225,87.57099098,1516.093976
3.4700,-27.41998292,87.41400384,1516.385108
3.4750,-27.30005882,87.2565172,1516.677189
3.4800,-27.1815392,87.09830587,1516.969494
3.4850,-27.06632787,86.9403899,1517.261555
3.4900,-26.95361168,86.78244726,1517.554528
3.4950,-26.84425183,86.62582409,1517.848037
3.5000,-26.73795888,86.46967215,1518.141542
3.5050,-26.63476391,86.3152121,1518.435091
3.5100,-26.53518714,86.16296808,1518.729141
3.5150,-26.44021046,86.01310612,1519.023703
3.5200,-26.34991851,85.86565376,1519.318341
3.5250,-26.26300361,85.72060307,1519.612649
3.5300,-26.18106888,85.57762254,1519.907033
3.5350,-26.1033229,85.43745369,1520.200516
3.5400,-26.02832335,85.30058104,1520.492508
3.5450,-25.95667519,85.16721029,1520.783207
3.5500,-25.88801101,85.03543934,1521.072497
3.5550,-25.8221317,84.90486808,1521.35964
3.5600,-25.75678943,84.77615804,1521.643875
3.5650,-25.69288891,84.64924884,1521.925617
3.5700,-25.62939372,84.52356568,1522.204192
3.5750,-25.56492624,84.39900548,1522.478991
3.5800,-25.49978052,84.27564679,1522.749974
3.5850,-25.43178054,84.15304029,1523.01715
3.5900,-25.36070417,84.03052742,1523.280272
3.5950,-25.28603745,83.90803702,1523.53906
3.6000,-25.20592549,83.78504029,1523.793258
3.6050,-25.12291722,83.65974373,1524.042957
3.6100,-25.0349592,83.53299026,1524.288446
3.6150,-24.94228302,83.4047004,1524.529592
3.6200,-24.84541733,83.27473966,1524.767326
3.6250,-24.74448092,83.1422305,1525.00147
3.6300,-24.63866442,83.00753743,1525.232723
3.6350,-24.52864247,82.87026968,1525.461152
3.6400,-24.41482777,82.73120677,1525.68688
3.6450,-24.29688457,82.58885532,1525.910283
3.6500,-24.17449552,82.44295662,1526.131448
3.6550,-24.04732067,82.29339224,1526.350698
3.6600,-23.91705738,82.14087395,1526.568848
3.6650,-23.78463559,81.98471212,1526.786285
3.6700,-23.64998546,81.82582009,1527.004328
3.6750,-23.5146717,81.66364241,1527.224488
3.6800,-23.37708599,81.50031276,1527.447134
3.6850,-23.23849196,81.33559826,1527.673197
3.6900,-23.09753574,81.17009793,1527.902979
3.6950,-22.95413196,81.00414609,1528.136762
3.7000,-22.80885383,80.83802549,1528.374593
3.7050,-22.66219652,80.67164961,1528.617322
3.7100,-22.51508404,80.50602835,1528.866136
3.7150,-22.3684136,80.34139156,1529.121629
3.7200,-22.22300749,80.17899764,1529.385365
3.7250,-22.07984062,80.02001451,1529.658061
3.7300,-21.93976336,79.86519108,1529.94052
3.7350,-21.80454452,79.71558053,1530.233431
3.7400,-21.67389977,79.570777,1530.537487
3.7450,-21.54849037,79.43149186,1530.852072
3.7500,-21.42752726,79.29872139,1531.176992
3.7550,-21.31368327,79.17266187,1531.512717
3.7600,-21.20714768,79.05445312,1531.859743
3.7650,-21.10722604,78.94561943,1532.217295
3.7700,-21.0157208,78.84542371,1532.586367
3.7750,-20.93249261,78.7529906,1532.965084
3.7800,-20.85832021,78.67016838,1533.354385
3.7850,-20.79272635,78.59634462,1533.753587
3.7900,-20.73541456,78.53326504,1534.161922
3.7950,-20.6850642,78.47985342,1534.578464
3.8000,-20.64186562,78.4371755,1535.003326
3.8050,-20.60563814,78.40361775,1535.434844
3.8100,-20.57447629,78.38019421,1535.8722
3.8150,-20.54762571,78.36682525,1536.314682
3.8200,-20.52370615,78.36299662,1536.761089
3.8250,-20.50371661,78.36825646,1537.210028
3.8300,-20.48546089,78.38279862,1537.660319
3.8350,-20.46736201,78.40618336,1538.111167
3.8400,-20.45014759,78.43665647,1538.561504
3.8450,-20.43288368,78.47264848,1539.009843
3.8500,-20.41585235,78.51337291,1539.454995
3.8550,-20.39753184,78.55992282,1539.897045
3.8600,-20.37879071,78.61042384,1540.335369
3.8650,-20.35867405,78.66457919,1540.767992
3.8700,-20.33671227,78.721115,1541.194712
3.8750,-20.31308991,78.77984979,1541.614454
3.8800,-20.28773635,78.83933526,1542.026935
3.8850,-20.26000248,78.89961512,1542.431208
3.8900,-20.22979743,78.95951952,1542.826356
3.8950,-20.1970159,79.01836643,1543.2116
3.9000,-20.1613024,79.07527981,1543.586712
3.9050,-20.12246728,79.12995945,1543.950753
3.9100,-20.07975747,79.1807809,1544.303142
3.9150,-20.03409629,79.22660516,1544.643308
3.9200,-19.98381616,79.26870124,1544.971086
3.9250,-19.92774749,79.30541428,1545.285778
3.9300,-19.86595097,79.33678137,1545.586938
3.9350,-19.79832692,79.3613498,1545.874961
3.9400,-19.72427945,79.37834771,1546.149899
3.9450,-19.64423376,79.38914847,1546.411807
3.9500,-19.55935551,79.39135449,1546.660491
3.9550,-19.47020956,79.38672658,1546.897161
3.9600,-19.37590215,79.37365143,1547.121707
3.9650,-19.27523819,79.35248284,1547.333613
3.9700,-19.16746952,79.32272217,1547.532869
3.9750,-19.05185686,79.28434464,1547.718892
3.9800,-18.9295946,79.23690768,1547.892854
3.9850,-18.80038924,79.18000628,1548.05446
3.9900,-18.66511317,79.11439796,1548.204823
3.9950,-18.52433021,79.03897918,1548.34411
4.0000,-18.37818372,78.95511982,1548.474045
4.0050,-18.22618983,78.86350419,1548.594572
4.0100,-18.06927928,78.76345921,1548.706398
4.0150,-17.90490465,78.6568608,1548.810266
4.0200,-17.73461753,78.54319619,1548.905758
4.0250,-17.55801833,78.42245268,1548.993674
4.0300,-17.3764373,78.29506214,1549.075098
4.0350,-17.18943827,78.16072775,1549.150488
4.0400,-17.00030985,78.02055385,1549.220609
4.0450,-16.80870306,77.87446174,1549.286909
4.0500,-16.61518027,77.72312382,1549.350665
4.0550,-16.42004974,77.56836851,1549.412388
4.0600,-16.22488848,77.40855733,1549.47238
4.0650,-16.02978835,77.24494228,1549.531289
4.0700,-15.83473229,77.07856223,1549.588988
4.0750,-15.64190395,76.91116443,1549.648056
4.0800,-15.45162698,76.7425882,1549.707909
4.0850,-15.26469167,76.57489129,1549.769729
4.0900,-15.08167497,76.40724258,1549.833472
4.0950,-14.90348029,76.24142077,1549.89918
4.1000,-14.73102158,76.07895427,1549.967508
4.1050,-14.56436384,75.92112978,1550.038777
4.1100,-14.40455742,75.76799864,1550.112715
4.1150,-14.2515816,75.62105654,1550.189557
4.1200,-14.10739922,75.48041747,1550.269536
4.1250,-13.97071062,75.34670743,1550.352466
4.1300,-13.8418782,75.22107864,1550.438084
4.1350,-13.72262378,75.10401205,1550.526204
4.1400,-13.61322719,74.99620268,1550.616645
4.1450,-13.51305234,74.8987396,1550.709462
4.1500,-13.42317161,74.81297054,1550.804479
4.1550,-13.34378455,74.73805834,1550.900827
4.1600,-13.27505159,74.67448752,1550.99781
4.1650,-13.21745231,74.62180588,1551.095702
4.1700,-13.17139223,74.57992206,1551.193178
4.1750,-13.13578526,74.54913306,1551.289857
4.1800,-13.11131374,74.52894777,1551.385092
4.1850,-13.09800838,74.51941355,1551.478238
4.1900,-13.09633122,74.52037418,1551.569175
4.1950,-13.10474295,74.53112248,1551.656407
4.2000,-13.12496727,74.55065326,1551.739515
4.2050,-13.15557788,74.57926034,1551.818535
4.2100,-13.19692475,74.61669481,1551.892307
4.2150,-13.24716809,74.66304287,1551.960027
4.2200,-13.3082599,74.71627036,1552.020781
4.2250,-13.37863604,74.77663603,1552.073891
4.2300,-13.45859293,74.84332815,1552.11916
4.2350,-13.54865971,74.91780164,1552.156403
4.2400,-13.64828612,74.9989502,1552.184565
4.2450,-13.75745326,75.08566792,1552.203024
4.2500,-13.87587539,75.17992573,1552.212127
4.2550,-14.00036703,75.27993184,1552.210098
4.2600,-14.1321073,75.38630199,1552.196947
4.2650,-14.27129837,75.49804995,1552.172559
4.2700,-14.41764796,75.6163849,1552.137002
4.2750,-14.57016462,75.73982026,1552.089508
4.2800,-14.73016448,75.86939244,1552.030199
4.2850,-14.89658507,76.00464029,1551.959147
4.2900,-15.06883856,76.14505332,1551.875809
4.2950,-15.2460582,76.29093258,1551.780305
4.3000,-15.42810551,76.44226446,1551.672036
4.3050,-15.61417866,76.59912421,1551.55124
4.3100,-15.80357717,76.76086887,1551.417522
4.3150,-15.99644102,76.92682075,1551.270125
4.3200,-16.19247496,77.09868918,1551.110163
4.3250,-16.39133139,77.27563,1550.937162
4.3300,-16.59198516,77.45737635,1550.751411
4.3350,-16.79573509,77.64549861,1550.553217
4.3400,-17.00004164,77.83989447,1550.342754
4.3450,-17.20504183,78.04095833,1550.119856
4.3500,-17.41126019,78.24745363,1549.884458
4.3550,-17.6185283,78.45912839,1549.636816
4.3600,-17.82671917,78.67781328,1549.377464
4.3650,-18.03557209,78.90307872,1549.107148
4.3700,-18.2459766,79.13474401,1548.826092
4.3750,-18.45633077,79.37254438,1548.533829
4.3800,-18.66844782,79.61609985,1548.231407
4.3850,-18.88126163,79.86476712,1547.918442
4.3900,-19.09685467,80.11923054,1547.596115
4.3950,-19.31544616,80.37829343,1547.265536
4.4000,-19.53621393,80.64170206,1546.926337
4.4050,-19.76035007,80.90915871,1546.579053
4.4100,-19.98811589,81.18021776,1546.224886
4.4150,-20.21946082,81.45477452,1545.863242
4.4200,-20.45332281,81.73326379,1545.494265
4.4250,-20.69127639,82.0156564,1545.118982
4.4300,-20.93229482,82.30071686,1544.737455
4.4350,-21.17594891,82.58734073,1544.349917
4.4400,-21.42257306,82.87622869,1543.957128
4.4450,-21.67246886,83.16675171,1543.559171
4.4500,-21.92482246,83.45868813,1543.156341
4.4550,-22.18106377,83.75160416,1542.749111
4.4600,-22.44069912,84.04635958,1542.338483
4.4650,-22.70418044,84.34261371,1541.924014
4.4700,-22.97132309,84.63900989,1541.506106
4.4750,-23.24186708,84.93587538,1541.084646
4.4800,-23.51577858,85.23270364,1540.660071
4.4850,-23.79298896,85.52938883,1540.232479
4.4900,-24.07263657,85.82607165,1539.801673
4.4950,-24.35512234,86.12261256,1539.368159
4.5000,-24.63997072,86.41948324,1538.931276
4.5050,-24.92707574,86.7160715,1538.491299
4.5100,-25.21712004,87.0120733,1538.048472
4.5150,-25.50978891,87.30706625,1537.602854
4.5200,-25.80399037,87.60205823,1537.154369
4.5250,-26.10199787,87.8972075,1536.703812
4.5300,-26.40304965,88.19187171,1536.250541
4.5350,-26.7059104,88.48513799,1535.794423
4.5400,-27.00980445,88.77804018,1535.335421
4.5450,-27.31493064,89.07184118,1534.874085
4.5500,-27.62102585,89.3658224,1534.41026
4.5550,-27.92881629,89.66001319,1533.943731
4.5600,-28.236632,89.95472525,1533.474375
4.5650,-28.54453314,90.25004217,1533.00194
4.5700,-28.85246196,90.54599261,1532.52669
4.5750,-29.16120875,90.84462045,1532.049225
4.5800,-29.46880437,91.1436598,1531.569115
4.5850,-29.77617632,91.44356407,1531.085872
4.5900,-30.08404532,91.74562023,1530.600616
4.5950,-30.39129566,92.0495408,1530.112649
4.6000,-30.6977165,92.35444834,1529.622002
4.6050,-31.00391237,92.65987282,1529.12866
4.6100,-31.30788632,92.96758642,1528.632941
4.6150,-31.6120084,93.27665685,1528.13506
4.6200,-31.91441809,93.58666586,1527.634941
4.6250,-32.21599899,93.89800713,1527.132466
4.6300,-32.51550859,94.21077313,1526.626634
4.6350,-32.81201474,94.52393358,1526.118138
4.6400,-33.10707469,94.83705546,1525.606221
4.6450,-33.39977125,95.15053421,1525.090997
4.6500,-33.69061387,95.46555756,1524.573061
4.6550,-33.97961827,95.7812834,1524.052242
4.6600,-34.26582778,96.09839401,1523.528761
4.6650,-34.55009532,96.41609199,1523.001925
4.6700,-34.83164346,96.73578119,1522.4722
4.6750,-35.111836,97.05558239,1521.939483
4.6800,-35.38894535,97.37637958,1521.403626
4.6850,-35.66426789,97.69818717,1520.864952
4.6900,-35.93707903,98.02075173,1520.323527
4.6950,-36.20684393,98.34424216,1519.778799
4.7000,-36.47450445,98.66848717,1519.230901
4.7050,-36.73928445,98.99375139,1518.680371
4.7100,-37.00230642,99.32057804,1518.126119
4.7150,-37.26442936,99.6482059,1517.569518
4.7200,-37.5261211,99.97671327,1517.010103
4.7250,-37.78760743,100.3056027,1516.448233
4.7300,-38.04966707,100.6361554,1515.883041
4.7350,-38.31219946,100.9682633,1515.314648
4.7400,-38.57384374,101.3016392,1514.742933
4.7450,-38.83534415,101.6366501,1514.167722
4.7500,-39.09654061,101.9736477,1513.588824
4.7550,-39.35725911,102.3117613,1513.005617
4.7600,-39.61720278,102.6509231,1512.417998
4.7650,-39.87739189,102.9906102,1511.825594
4.7700,-40.13792049,103.3329392,1511.229299
4.7750,-40.3987211,103.677017,1510.628462
4.7800,-40.66065544,104.0239332,1510.023348
4.7850,-40.9235043,104.3721079,1509.413602
4.7900,-41.18893838,104.7215389,1508.799455
4.7950,-41.45685235,105.0732227,1508.18043
4.8000,-41.72596272,105.4260725,1507.55641
4.8050,-41.99699004,105.7810114,1506.926606
4.8100,-42.27000005,106.1382954,1506.290768
4.8150,-42.54563866,106.4969986,1505.648319
4.8200,-42.82474506,106.8569927,1504.999059
4.8250,-43.10672983,107.2180228,1504.342621
4.8300,-43.39192502,107.5809167,1503.679267
4.8350,-43.68073679,107.9456614,1503.007977
4.8400,-43.97307636,108.3128167,1502.329793
4.8450,-44.26741539,108.6825611,1501.6436
4.8500,-44.56437397,109.0548118,1500.949758
4.8550,-44.86435048,109.4307064,1500.247843
4.8600,-45.16727332,109.8100039,1499.537505
4.8650,-45.47250328,110.1938801,1498.819242
4.8700,-45.7804979,110.582255,1498.091844
4.8750,-46.09064863,110.9749794,1497.355112
4.8800,-46.4037644,111.3730004,1496.608273
4.8850,-46.71921774,111.7770299,1495.852181
4.8900,-47.0364293,112.1844748,1495.084877
4.8950,-47.35624479,112.597341,1494.307263
4.9000,-47.67831561,113.0160183,1493.518242
4.9050,-48.00290544,113.4405502,1492.717888
4.9100,-48.33048034,113.8698415,1491.9045
4.9150,-48.6595102,114.3046644,1491.079119
4.9200,-48.99063685,114.744818,1490.240274
4.9250,-49.32392562,115.1906588,1489.388821
4.9300,-49.66099795,115.6417826,1488.524648
4.9350,-50.00069611,116.0991495,1487.646705
4.9400,-50.34303385,116.562619,1486.75559
4.9450,-50.68844367,117.0320031,1485.851019
4.9500,-51.0365559,117.5064302,1484.93298
4.9550,-51.38713949,117.9866418,1484.00099
4.9600,-51.74105817,118.4715758,1483.053997
4.9650,-52.09885717,118.9605554,1482.092705
4.9700,-52.46018343,119.4521818,1481.116852
4.9750,-52.82408765,119.9481639,1480.126209
4.9800,-53.19073548,120.4480407,1479.121613
4.9850,-53.55956895,120.9525059,1478.101907
4.9900,-53.92912356,121.4615477,1477.066708
4.9950,-54.2993728,121.9750799,1476.01517
5.0000,-54.66979287,122.4922881,1474.947576
5.0050,-55.04066465,123.0140724,1473.863627
5.0100,-55.41137316,123.5390322,1472.762983
5.0150,-55.78144455,124.0682596,1471.644852
5.0200,-56.15073755,124.5998981,1470.510083
5.0250,-56.51891393,125.1340989,1469.358219
5.0300,-56.88535331,125.669538,1468.189823
5.0350,-57.25175214,126.2065647,1467.005116
5.0400,-57.6178907,126.7450445,1465.803336
5.0450,-57.98386216,127.2851539,1464.584408
5.0500,-58.34905565,127.8244234,1463.347897
5.0550,-58.7117309,128.3632081,1462.093506
5.0600,-59.07234534,128.9005373,1460.821342
5.0650,-59.43001384,129.4364627,1459.53252
5.0700,-59.78471239,129.970796,1458.226327
5.0750,-60.13772703,130.5020401,1456.903572
5.0800,-60.4868383,131.0302566,1455.563789
5.0850,-60.83331814,131.5549331,1454.206893
5.0900,-61.17603961,132.0763864,1452.833248
5.0950,-61.5172154,132.5924485,1451.44321
5.1000,-61.85585659,133.1048686,1450.038138
5.1050,-62.19320172,133.6121577,1448.617386
5.1100,-62.52668057,134.114859,1447.181768
5.1150,-62.85734225,134.6143152,1445.732316
5.1200,-63.18351401,135.1094855,1444.269264
5.1250,-63.50448966,135.6012315,1442.792425
5.1300,-63.82134023,136.0883334,1441.301643
5.1350,-64.13368176,136.5706735,1439.797608
5.1400,-64.44170897,137.0491043,1438.279705
5.1450,-64.74715664,137.5222185,1436.749218
5.1500,-65.04848849,137.989838,1435.205079
5.1550,-65.34512622,138.4523493,1433.648132
5.1600,-65.63804567,138.9106304,1432.078539
5.1650,-65.92779587,139.3641613,1430.496588
5.1700,-66.21367359,139.8125939,1428.902561
5.1750,-66.49554635,140.255418,1427.296784
5.1800,-66.77229277,140.6932588,1425.680151
5.1850,-67.04365115,141.1263512,1424.052165
5.1900,-67.30880905,141.5557613,1422.413794
5.1950,-67.56695766,141.9809945,1420.765072
5.2000,-67.81896783,142.4009474,1419.106475
5.2050,-68.06278564,142.815869,1417.437966
5.2100,-68.29873089,143.2269723,1415.76082
5.2150,-68.52687565,143.6331844,1414.074234
5.2200,-68.74813097,144.0351568,1412.379573
5.2250,-68.96095714,144.432096,1410.676284
5.2300,-69.16564669,144.8244359,1408.965475
5.2350,-69.36257247,145.2109006,1407.246871
5.2400,-69.55116477,145.5909709,1405.520344
5.2450,-69.7313356,145.9642985,1403.786037
5.2500,-69.90167379,146.3312486,1402.043393
5.2550,-70.0618614,146.6908688,1400.292609
5.2600,-70.21230441,147.0438327,1398.534626
5.2650,-70.35144456,147.3895783,1396.769795
5.2700,-70.4796972,147.7282108,1394.997291
5.2750,-70.59680437,148.0595654,1393.217577
5.2800,-70.70285469,148.383204,1391.429955
5.2850,-70.79719465,148.6975129,1389.636006
5.2900,-70.87880847,149.0018723,1387.835662
5.2950,-70.94800486,149.2968481,1386.030791
5.3000,-71.00270924,149.5828366,1384.220807
5.3050,-71.04387782,149.8577583,1382.405908
5.3100,-71.07004079,150.1233467,1380.587176
5.3150,-71.0807401,150.3781449,1378.764767
5.3200,-71.07496388,150.6231338,1376.938176
5.3250,-71.05232309,150.8581567,1375.107958
5.3300,-71.01314005,151.0826883,1373.273657
5.3350,-70.95710002,151.2958915,1371.436291
5.3400,-70.88574632,151.4975362,1369.596123
5.3450,-70.79951231,151.6868921,1367.754482
5.3500,-70.69961766,151.8660365,1365.911459
5.3550,-70.58869324,152.0365544,1364.068913
5.3600,-70.46901267,152.1980424,1362.22719
5.3650,-70.33994518,152.3521963,1360.387226
5.3700,-70.20173204,152.4979328,1358.549666
5.3750,-70.05540285,152.6368798,1356.715306
5.3800,-69.90301965,152.7693166,1354.883896
5.3850,-69.74443197,152.8973658,1353.056814
5.3900,-69.58138368,153.0213865,1351.233956
5.3950,-69.4137252,153.1422316,1349.415662
5.4000,-69.24291953,153.2599521,1347.601451
5.4050,-69.06921602,153.3756921,1345.793402
5.4100,-68.89447786,153.4887163,1343.990522
5.4150,-68.71836416,153.5988452,1342.192973
5.4200,-68.54199034,153.7073512,1340.40144
5.4250,-68.3674604,153.8144251,1338.616537
5.4300,-68.19491218,153.9211021,1336.838574
5.4350,-68.02437981,154.0288228,1335.067457
5.4400,-67.85584476,154.1373908,1333.303188
5.4450,-67.68936714,154.2465002,1331.545519
5.4500,-67.52509615,154.3573251,1329.793674
5.4550,-67.36375092,154.4698797,1328.048042
5.4600,-67.20459073,154.5844721,1326.308339
5.4650,-67.04791229,154.7004036,1324.573592
5.4700,-66.89428222,154.8182929,1322.843245
5.4750,-66.7448215,154.9378332,1321.117176
5.4800,-66.59985804,155.0587632,1319.394687
5.4850,-66.45996341,155.1801349,1317.675469
5.4900,-66.32512132,155.3020867,1315.959901
5.4950,-66.19557177,155.4232486,1314.24742
5.5000,-66.07086849,155.5437938,1312.538194
5.5050,-65.95201916,155.6635529,1310.8321
5.5100,-65.8395426,155.781146,1309.128545
5.5150,-65.7329382,155.8967197,1307.427949
5.5200,-65.6298577,156.0099526,1305.730424
5.5250,-65.53133651,156.1203112,1304.035524
5.5300,-65.43547087,156.2276776,1302.342271
5.5350,-65.34193686,156.3320592,1300.651832
5.5400,-65.24985761,156.4346683,1298.963263
5.5450,-65.15862065,156.5341935,1297.277008
5.5500,-65.06871694,156.6300487,1295.592643
5.5550,-64.97866273,156.7220079,1293.90966
5.5600,-64.88773053,156.8072846,1292.228445
5.5650,-64.79557452,156.8863497,1290.548264
5.5700,-64.70054687,156.9594887,1288.870392
5.5750,-64.6026378,157.0256268,1287.194051
5.5800,-64.50112162,157.0838735,1285.519255
5.5850,-64.39471316,157.1351737,1283.846154
5.5900,-64.28463184,157.1781726,1282.174308
5.5950,-64.1691839,157.2119274,1280.502642
5.6000,-64.0490994,157.2357511,1278.831795
5.6050,-63.9223544,157.2492887,1277.161836
5.6100,-63.78948806,157.2517639,1275.492934
5.6150,-63.65012395,157.2435213,1273.824937
5.6200,-63.50576736,157.223301,1272.158751
5.6250,-63.35527837,157.1904671,1270.494426
5.6300,-63.20005529,157.1447842,1268.832806
5.6350,-63.03794876,157.086199,1267.173696
5.6400,-62.87009395,157.0153547,1265.518314
5.6450,-62.695726,156.9326157,1263.866323
5.6500,-62.51340696,156.8372613,1262.218763
5.6550,-62.32395238,156.7289892,1260.57573
5.6600,-62.12630184,156.6080642,1258.937659
5.6650,-61.92045942,156.4746321,1257.303683
5.6700,-61.70685082,156.3296843,1255.674
5.6750,-61.48601144,156.1738051,1254.048378
5.6800,-61.25689446,156.0075015,1252.427266
5.6850,-61.02044599,155.8324346,1250.810179
5.6900,-60.77572879,155.6484834,1249.197484
5.6950,-60.52122107,155.4585193,1247.589916
5.7000,-60.25790517,155.2629726,1245.987445
5.7050,-59.98477064,155.0626261,1244.389675
5.7100,-59.70230744,154.8597863,1242.797158
5.7150,-59.4102467,154.6553483,1241.210107
5.7200,-59.10949366,154.4502017,1239.626859
5.7250,-58.79882553,154.2459705,1238.048382
5.7300,-58.4777493,154.0448327,1236.473816
5.7350,-58.14649887,153.8474556,1234.903339
5.7400,-57.80629844,153.6537328,1233.336626
5.7450,-57.45712917,153.4642096,1231.772602
5.7500,-57.09917712,153.2808181,1230.212044
5.7550,-56.7324959,153.1035842,1228.653613
5.7600,-56.35788976,152.9319598,1227.097255
5.7650,-55.97415202,152.7684461,1225.542788
5.7700,-55.58151429,152.6129709,1223.990321
5.7750,-55.17960137,152.46604,1222.439022
5.7800,-54.76788951,152.3281943,1220.888692
5.7850,-54.34650754,152.1991454,1219.339536
5.7900,-53.91602226,152.0792221,1217.791059
5.7950,-53.47753302,151.9685408,1216.243102
5.8000,-53.03077666,151.8668863,1214.695245
5.8050,-52.57692379,151.7733439,1213.147716
5.8100,-52.11478578,151.688736,1211.59997
5.8150,-51.64455714,151.6126476,1210.052045
5.8200,-51.16767839,151.5430874,1208.503381
5.8250,-50.68383523,151.4804558,1206.955175
5.8300,-50.1923703,151.4236377,1205.407274
5.8350,-49.69437992,151.3724198,1203.859413
5.8400,-49.19062142,151.3241241,1202.31212
5.8450,-48.68129773,151.2785528,1200.764717
5.8500,-48.16708795,151.233935,1199.217281
5.8550,-47.65002427,151.1891718,1197.6711
5.8600,-47.12959263,151.1452967,1196.126104
5.8650,-46.60546049,151.1004486,1194.581844
5.8700,-46.07935475,151.0516805,1193.037767
5.8750,-45.55108262,150.9990458,1191.495318
5.8800,-45.01991243,150.941273,1189.954074
5.8850,-44.48610592,150.876764,1188.414083
5.8900,-43.949454,150.8060795,1186.876295
5.8950,-43.41060861,150.7273786,1185.340932
5.9000,-42.86986801,150.6402413,1183.808017
5.9050,-42.32939408,150.5442857,1182.277884
5.9100,-41.78833399,150.4389702,1180.751115
5.9150,-41.24758822,150.3241347,1179.229077
5.9200,-40.70564762,150.1989567,1177.711028
5.9250,-40.16398991,150.0626509,1176.197939
5.9300,-39.62117354,149.9165139,1174.690207
5.9350,-39.07918609,149.7591608,1173.187847
5.9400,-38.53645289,149.5902937,1171.692043
5.9450,-37.99270779,149.409375,1170.203062
5.9500,-37.44891958,149.2173723,1168.721593
5.9550,-36.90476225,149.0136275,1167.246998
5.9600,-36.35956138,148.7996827,1165.779092
5.9650,-35.81471362,148.5752399,1164.318772
5.9700,-35.2702455,148.3403366,1162.865566
5.9750,-34.72562603,148.0962943,1161.420234
5.9800,-34.18228507,147.8429129,1159.98263
5.9850,-33.6387379,147.580965,1158.552814
5.9900,-33.09567529,147.3113253,1157.130446
5.9950,-32.55329446,147.0335514,1155.715633
6.0000,-32.01119156,146.7484759,1154.308613
6.0050,-31.46873967,146.4583079,1152.908504
6.0100,-30.92693275,146.1620139,1151.515824
6.0150,-30.3851805,145.8614861,1150.129966
6.0200,-29.844351,145.5570917,1148.752009
6.0250,-29.30354142,145.2498997,1147.380635
6.0300,-28.76315372,144.9396779,1146.016546
6.0350,-28.22253049,144.6265445,1144.658666
6.0400,-27.68253222,144.311468,1143.3076
6.0450,-27.14299063,143.9960824,1141.963399
6.0500,-26.604314,143.6786627,1140.625781
6.0550,-26.06682673,143.3609958,1139.295615
6.0600,-25.52958075,143.0431268,1137.971896
6.0650,-24.99296814,142.724721,1136.65492
6.0700,-24.45642078,142.4059875,1135.34479
6.0750,-23.91900654,142.0879188,1134.04126
6.0800,-23.38134033,141.7706143,1132.744493
6.0850,-22.84304232,141.4557701,1131.45478
6.0900,-22.30284982,141.1424486,1130.171007
6.0950,-21.75981841,140.8309728,1128.893434
6.1000,-21.21357493,140.5234521,1127.622568
6.1050,-20.66225551,140.2199701,1126.357513
6.1100,-20.10731761,139.9189143,1125.098665
6.1150,-19.54866348,139.6220039,1123.846203
6.1200,-18.98502491,139.3289765,1122.599762
6.1250,-18.4163037,139.0390439,1121.358533
6.1300,-17.84314733,138.7527068,1120.122551
6.1350,-17.26566987,138.4696542,1118.891835
6.1400,-16.68308226,138.1901674,1117.665985
6.1450,-16.09556243,137.9147116,1116.445285
6.1500,-15.5025007,137.6432373,1115.229836
6.1550,-14.903475,137.3751812,1114.019095
6.1600,-14.29791632,137.1095305,1112.812555
6.1650,-13.68669129,136.8457649,1111.611577
6.1700,-13.06925795,136.5852306,1110.416315
6.1750,-12.44447789,136.3260626,1109.22546
6.1800,-11.81255569,136.0689432,1108.03939
6.1850,-11.17363056,135.8123772,1106.857425
6.1900,-10.52749427,135.5570829,1105.679829
6.1950,-9.874056542,135.3024288,1104.506527
6.2000,-9.212430659,135.0486751,1103.337412
6.2050,-8.541607742,134.7955402,1102.173031
6.2100,-7.862239573,134.5432224,1101.013326
6.2150,-7.173148806,134.2905247,1099.857192
6.2200,-6.47414835,134.0385038,1098.705534
6.2250,-5.765156761,133.7871795,1097.558192
6.2300,-5.045512806,133.535491,1096.414988
6.2350,-4.314757089,133.2835163,1095.276077
6.2400,-3.571957257,133.0303276,1094.14065
6.2450,-2.818033197,132.7768314,1093.008827
6.2500,-2.053793474,132.5217719,1091.880289
6.2550,-1.278726737,132.2657813,1090.755781
6.2600,-0.4932318748,132.0075875,1089.635174
6.2650,0.3027088342,131.7471574,1088.518351
6.2700,1.108719765,131.4848214,1087.405343
6.2750,1.924244859,131.2171749,1086.295467
6.2800,2.750235446,130.9445686,1085.188191
6.2850,3.585314267,130.6663194,1084.084281
6.2900,4.430987446,130.3822884,1082.983269
6.2950,5.285086283,130.0908357,1081.885199
6.3000,6.149296669,129.7921051,1080.789519
6.3050,7.021944528,129.4841214,1079.696465
6.3100,7.903962288,129.1687734,1078.606488
6.3150,8.794456935,128.8440636,1077.519698
6.3200,9.694815088,128.511013,1076.436006
6.3250,10.60376718,128.1686963,1075.355942
6.3300,11.52152009,127.8173256,1074.279604
6.3350,12.44752924,127.4575121,1073.207695
6.3400,13.38292374,127.0887689,1072.139902
6.3450,14.32765715,126.7121451,1071.076742
6.3500,15.28013841,126.3271936,1070.018603
6.3550,16.24136397,125.932542,1068.96498
6.3600,17.21037093,125.5291649,1067.916813
6.3650,18.18513169,125.11561,1066.874201
6.3700,19.16477724,124.69289,1065.837841
6.3750,20.14811036,124.2588874,1064.8078
6.3800,21.13469713,123.8137574,1063.784332
6.3850,22.1235435,123.3565064,1062.767429
6.3900,23.11186,122.8877567,1061.75818
6.3950,24.099002,122.4071403,1060.75687
6.4000,25.08458801,121.9136885,1059.762963
6.4050,26.06645318,121.408128,1058.77784
6.4100,27.04544199,120.890578,1057.800887
6.4150,28.0203612,120.3602514,1056.832381
6.4200,28.99012967,119.8179547,1055.872569
6.4250,29.95474911,119.2638964,1054.921727
6.4300,30.91215679,118.6976654,1053.980492
6.4350,31.86323126,118.1188205,1053.048436
6.4400,32.8063754,117.5289362,1052.126971
6.4450,33.74189877,116.9273698,1051.215796
6.4500,34.66976977,116.3144366,1050.31513
6.4550,35.58979566,115.6903808,1049.425175
6.4600,36.50202749,115.0561115,1048.546078
6.4650,37.40619505,114.4121412,1047.677637
6.4700,38.3027739,113.7580253,1046.819835
6.4750,39.19094036,113.0957097,1045.973544
6.4800,40.07107551,112.4250486,1045.138221
6.4850,40.94135157,111.7471715,1044.31502
6.4900,41.80277988,111.0605171,1043.503114
6.4950,42.65407438,110.3664464,1042.703105
6.5000,43.49443552,109.6645275,1041.914988
6.5050,44.32326348,108.9561828,1041.139245
6.5100,45.14182775,108.2400691,1040.375165
6.5150,45.94811007,107.5169883,1039.623626
6.5200,46.74297211,106.7871945,1038.884153
6.5250,47.52608618,106.0511033,1038.156758
6.5300,48.29661696,105.3101047,1037.441681
6.5350,49.05529201,104.5651203,1036.738851
6.5400,49.80090927,103.8167515,1036.048371
6.5450,50.53409035,103.0648317,1035.370057
6.5500,51.25603098,102.3106064,1034.703956
6.5550,51.9662405,101.5545928,1034.049739
6.5600,52.66499707,100.7967839,1033.407278
6.5650,53.35406853,100.0372351,1032.775776
6.5700,54.0347536,99.275792,1032.154645
6.5750,54.70575549,98.51263736,1031.544073
6.5800,55.36714705,97.74889174,1030.94429
6.5850,56.01855398,96.98396175,1030.354889
6.5900,56.65751649,96.21768337,1029.776295
6.5950,57.28626168,95.45204414,1029.208146
6.6000,57.90374691,94.68631401,1028.650221
6.6050,58.51018548,93.92129265,1028.102681
6.6100,59.10484224,93.15575831,1027.564813
6.6150,59.68871389,92.39209015,1027.036766
6.6200,60.26141948,91.6304222,1026.518528
6.6250,60.82232149,90.87092926,1026.010025
6.6300,61.37287798,90.11499523,1025.510908
6.6350,61.91270146,89.3623086,1025.021011
6.6400,62.44130516,88.61388018,1024.540361
6.6450,62.95956306,87.86871455,1024.068535
6.6500,63.46871349,87.12794492,1023.605149
6.6550,63.96851727,86.39161752,1023.150102
6.6600,64.45961867,85.66073097,1022.703464
6.6650,64.94291279,84.93553351,1022.264876
6.6700,65.42035574,84.21572691,1021.833439
6.6750,65.89179999,83.50336445,1021.40938
6.6800,66.35830651,82.79840787,1020.992513
6.6850,66.82100303,82.10079206,1020.582165
6.6900,67.28098816,81.41008422,1020.177684
6.6950,67.7379196,80.72714452,1019.77898
6.7000,68.19156579,80.05147112,1019.385766
6.7050,68.64252707,79.38272568,1018.997508
6.7100,69.09019576,78.72278879,1018.614605
6.7150,69.53699095,78.07070019,1018.23613
6.7200,69.98242572,77.42548179,1017.861729
6.7250,70.42699119,76.78899404,1017.491326
6.7300,70.87207872,76.16014736,1017.124166
6.7350,71.31795772,75.54026271,1016.760392
6.7400,71.76460087,74.92679467,1016.399173
6.7450,72.21189304,74.32034905,1016.040511
6.7500,72.6601696,73.7218949,1015.684403
6.7550,73.10993236,73.13059842,1015.33061
6.7600,73.56153699,72.54571059,1014.978687
6.7650,74.01579551,71.96649543,1014.628247
6.7700,74.47282899,71.39413537,1014.279538
6.7750,74.93234297,70.82664477,1013.932203
6.7800,75.39361502,70.26445528,1013.58682
6.7850,75.85876839,69.7064365,1013.242462
6.7900,76.32638211,69.15264548,1012.899687
6.7950,76.7968192,68.60145805,1012.558092
6.8000,77.27019722,68.05328409,1012.217987
6.8050,77.74578443,67.50620436,1011.879052
6.8100,78.22277739,66.96002132,1011.541516
6.8150,78.70046094,66.41413544,1011.205813
6.8200,79.17829322,65.86984457,1010.872213
6.8250,79.65554152,65.32570353,1010.540948
6.8300,80.13132492,64.78196445,1010.212398
6.8350,80.60413814,64.23794113,1009.887069
6.8400,81.07397691,63.69275771,1009.564857
6.8450,81.53917252,63.14680218,1009.246462
6.8500,81.9989822,62.59923375,1008.931924
6.8550,82.45390809,62.04864408,1008.621402
6.8600,82.90300874,61.49573616,1008.315232
6.8650,83.34581945,60.94079883,1008.013929
6.8700,83.77979889,60.38281836,1007.718133
6.8750,84.20704266,59.82292131,1007.427484
6.8800,84.62610955,59.26001803,1007.142472
6.8850,85.03671125,58.69409494,1006.863081
6.8900,85.43926123,58.12563609,1006.589431
6.8950,85.83217833,57.55407588,1006.321707
6.9000,86.21478355,56.97802322,1006.059929
6.9050,86.58554312,56.39948463,1005.804725
6.9100,86.94647316,55.81872183,1005.555727
6.9150,87.29604249,55.23515094,1005.312902
6.9200,87.63402003,54.64902466,1005.076425
6.9250,87.96171649,54.06186389,1004.846223
6.9300,88.27748157,53.47416531,1004.622519
6.9350,88.5825952,52.8878562,1004.405224
6.9400,88.87847039,52.30326268,1004.193949
6.9450,89.16524542,51.72091507,1003.988466
6.9500,89.44405537,51.14207071,1003.788544
6.9550,89.71550401,50.56805673,1003.59407
6.9600,89.98049157,49.99746547,1003.404229
6.9650,90.24184316,49.43203285,1003.218535
6.9700,90.49865343,48.87225234,1003.037196
6.9750,90.7537442,48.3174447,1002.859151
6.9800,91.00786461,47.76793645,1002.684076
6.9850,91.26152851,47.22386228,1002.511787
6.9900,91.51586544,46.68500849,1002.341976
6.9950,91.7725681,46.15174124,1002.17417
7.0000,92.03226575,45.62274306,1002.007866
7.0050,92.29518345,45.09827183,1001.843028
7.0100,92.56174039,44.57695402,1001.679183
7.0150,92.83104693,44.05901876,1001.516329
7.0200,93.10342543,43.54465547,1001.354393
7.0250,93.37799044,43.03179113,1001.193195
7.0300,93.65443288,42.52313992,1001.033146
7.0350,93.93244026,42.01694428,1000.873807
7.0400,94.2119193,41.51511083,1000.715388
7.0450,94.49341563,41.01721863,1000.557654
7.0500,94.77623807,40.52260215,1000.40048
7.0550,95.06052437,40.0327972,1000.244002
7.0600,95.34505955,39.548593,1000.088564
7.0650,95.63059688,39.07150811,999.9341366
7.0700,95.91619577,38.60091147,999.7806928
7.0750,96.20259457,38.13776279,999.6281763
7.0800,96.48886167,37.68231619,999.4768519
7.0850,96.77472139,37.23537184,999.3269916
7.0900,97.06123175,36.7975637,999.1782901
7.0950,97.34898351,36.36973864,999.0308631
7.1000,97.6364905,35.95104572,998.8848182
7.1050,97.92503285,35.54279631,998.7402586
7.1100,98.21149824,35.14458203,998.5980465
7.1150,98.49785307,34.75777798,998.4578232
7.1200,98.78151509,34.3806915,998.3201613
7.1250,99.06291413,34.013116,998.1849404
7.1300,99.34176318,33.65594291,998.0526254
7.1350,99.61674992,33.30928916,997.923357
7.1400,99.88609635,32.9730635,997.7977535
7.1450,100.1501847,32.64694515,997.675718
7.1500,100.4081852,32.33309246,997.5578367
7.1550,100.6597603,32.03128189,997.444092
7.1600,100.9032281,31.74142661,997.3349048
7.1650,101.1381045,31.46310694,997.230229
7.1700,101.3641005,31.19828515,997.1304303
7.1750,101.578277,30.94707982,997.0361592
7.1800,101.7816689,30.70853772,996.9470679
7.1850,101.9728335,30.48387137,996.8635771
7.1900,102.1527716,30.27250417,996.7854757
7.1950,102.3219862,30.07469468,996.7128116
7.2000,102.4797234,29.89218828,996.6459078
7.2050,102.6270003,29.72297076,996.5842759
7.2100,102.7625615,29.56854615,996.5285217
7.2150,102.8853904,29.42917506,996.4789731
7.2200,102.9951689,29.30440516,996.4356057
7.2250,103.0929599,29.19298185,996.397893
7.2300,103.1785022,29.09584204,996.3662174
7.2350,103.2514923,29.0110244,996.3403974
7.2400,103.3116293,28.93815883,996.3204859
7.2450,103.3579929,28.8780907,996.3070459
7.2500,103.3908317,28.82954811,996.2998837
7.2550,103.4107509,28.7926526,996.2989192
7.2600,103.4171512,28.76770944,996.3044877
7.2650,103.4092459,28.75356582,996.3169036
7.2700,103.3870939,28.75019726,996.3360637
7.2750,103.3497966,28.75650154,996.3623239
7.2800,103.2974656,28.77222633,996.3956185
7.2850,103.2288079,28.79786958,996.4365298
7.2900,103.1442769,28.83418313,996.4849815
7.2950,103.0428058,28.88036868,996.5412333
7.3000,102.9256292,28.93706626,996.6053245
7.3050,102.7911453,29.00360254,996.6774408
7.3100,102.6392806,29.08028699,996.7579247
7.3150,102.4696801,29.16688171,996.8469059
7.3200,102.2818625,29.26440608,996.9446605
7.3250,102.0755521,29.37217473,997.0512582
7.3300,101.8493562,29.49009651,997.1670813
7.3350,101.6025977,29.61791042,997.2923917
7.3400,101.3364504,29.75638255,997.4270937
7.3450,101.0495978,29.90437452,997.5714583
7.3500,100.7398098,30.0633336,997.7262225
7.3550,100.4088224,30.23404511,997.8913085
7.3600,100.0561916,30.41659746,998.0669012
7.3650,99.68142677,30.60947188,998.2529985
7.3700,99.28428253,30.81434952,998.4501063
7.3750,98.86479658,31.0309513,998.6583525
7.3800,98.42281134,31.25916685,998.8778338
7.3850,97.95872631,31.4993686,999.1084534
7.3900,97.47229004,31.75141941,999.3505844
7.3950,96.96308986,32.01619798,999.6045588
7.4000,96.43128918,32.29368821,999.8706003
7.4050,95.87629053,32.583542,1000.148823
7.4100,95.29973625,32.88563829,1000.43894
7.4150,94.70016549,33.20040012,1000.741519
7.4200,94.07900975,33.52842155,1001.056356
7.4250,93.43481347,33.8708551,1001.383892
7.4300,92.76816186,34.22558524,1001.723897
7.4350,92.08070921,34.59409797,1002.076407
7.4400,91.37299227,34.97682497,1002.44128
7.4450,90.64496399,35.37307676,1002.818504
7.4500,89.89634927,35.78126438,1003.208163
7.4550,89.12819761,36.20196767,1003.610109
7.4600,88.34125678,36.6359638,1004.024306
7.4650,87.5358838,37.08235953,1004.451014
7.4700,86.71264655,37.54111263,1004.890013
7.4750,85.873388,38.01062507,1005.340871
7.4800,85.01856884,38.49243174,1005.803822
7.4850,84.14950111,38.98444712,1006.278583
7.4900,83.26523775,39.48747907,1006.765704
7.4950,82.36733163,40.00075605,1007.264857
7.5000,81.45707846,40.52468317,1007.775865
7.5050,80.53544836,41.05877292,1008.298899
7.5100,79.60256091,41.60238838,1008.833666
7.5150,78.66086877,42.1556628,1009.380076
7.5200,77.71113177,42.71825624,1009.938005
7.5250,76.75202657,43.29020955,1010.508181
7.5300,75.78641435,43.87059963,1011.08995
7.5350,74.81403331,44.45956678,1011.683492
7.5400,73.83610361,45.05777932,1012.288985
7.5450,72.85266872,45.6627214,1012.905951
7.5500,71.86599194,46.27590518,1013.534385
7.5550,70.87446057,46.89493228,1014.174591
7.5600,69.88128655,47.52037623,1014.825998
7.5650,68.88445299,48.15151828,1015.488799
7.5700,67.88634594,48.78755511,1016.162816
7.5750,66.88723195,49.42917207,1016.84786
7.5800,65.88623451,50.07443389,1017.544286
7.5850,64.88617213,50.72281752,1018.25108
7.5900,63.8858537,51.37261971,1018.968595
7.5950,62.88633151,52.02296583,1019.696257
7.6000,61.88666708,52.67445289,1020.434617
7.6050,60.88851268,53.32596142,1021.182842
7.6100,59.89229165,53.97696564,1021.940735
7.6150,58.89863119,54.62702994,1022.708157
7.6200,57.90723349,55.27524261,1023.484987
7.6250,56.91746864,55.92236893,1024.271463
7.6300,55.93119884,56.56605783,1025.06669
7.6350,54.94834254,57.20836988,1025.871001
7.6400,53.96967466,57.84708523,1026.683635
7.6450,52.99437185,58.48491091,1027.505246
7.6500,52.02422825,59.11911158,1028.334864
7.6550,51.05772071,59.74945336,1029.172362
7.6600,50.09539505,60.37627468,1030.017951
7.6650,49.13677423,60.99985463,1030.871455
7.6700,48.18291748,61.61758374,1031.732223
7.6750,47.23250836,62.23152527,1032.600656
7.6800,46.28662136,62.84069526,1033.476343
7.6850,45.34442696,63.44520421,1034.359367
7.6900,44.40605907,64.04496179,1035.249665
7.6950,43.47106672,64.63883125,1036.146953
7.7000,42.54028512,65.22704913,1037.050887
7.7050,41.61354625,65.80923963,1037.961477
7.7100,40.69099833,66.38646893,1038.878111
7.7150,39.77228652,66.95718678,1039.800615
7.7200,38.85809722,67.52237671,1040.729058
7.7250,37.94788528,68.08201009,1041.66311
7.7300,37.04020107,68.63553933,1042.603053
7.7350,36.13519318,69.18273473,1043.548431
7.7400,35.23338068,69.72460591,1044.499609
7.7450,34.33296191,70.26085834,1045.456704
7.7500,33.43463976,70.79128038,1046.418825
7.7550,32.53719248,71.31701322,1047.38653
7.7600,31.6417713,71.83730202,1048.359919
7.7650,30.74629145,72.35206155,1049.338708
7.7700,29.85084698,72.8610075,1050.322829
7.7750,28.95519775,73.36535069,1051.312831
7.7800,28.05892524,73.86455515,1052.308385
7.7850,27.16119802,74.35873735,1053.309715
7.7900,26.26358105,74.84810188,1054.31618
7.7950,25.36517346,75.3332795,1055.328423
7.8000,24.46402971,75.81215021,1056.346541
7.8050,23.56163702,76.28618453,1057.3703
7.8100,22.65752576,76.75390268,1058.400195
7.8150,21.75101194,77.21587975,1059.436115
7.8200,20.84272117,77.67257766,1060.478196
7.8250,19.93427611,78.12280389,1061.526043
7.8300,19.0235327,78.56741586,1062.580156
7.8350,18.11240715,79.00553696,1063.640302
7.8400,17.20019087,79.43648014,1064.706188
7.8450,16.2890614,79.86321983,1065.778008
7.8500,15.37639234,80.28342759,1066.856262
7.8550,14.46390627,80.69851517,1067.940234
7.8600,13.54943843,81.10737339,1069.030796
7.8650,12.63560851,81.51174301,1070.127448
7.8700,11.71954779,81.91119317,1071.230481
7.8750,10.80448717,82.30675928,1072.339471
7.8800,9.889913045,82.6994506,1073.454734
7.8850,8.974890103,83.08877327,1074.576325
7.8900,8.060569848,83.47553301,1075.704221
7.8950,7.146209619,83.85997372,1076.838657
7.9000,6.232038892,84.24171963,1077.979677
7.9050,5.319902923,84.6220559,1079.127085
7.9100,4.40825982,84.99995088,1080.281416
7.9150,3.498374271,85.37729074,1081.442353
7.9200,2.590879906,85.75330449,1082.610093
7.9250,1.687120691,86.12895913,1083.784451
7.9300,0.7874623867,86.50497509,1084.965362
7.9350,-0.1073775403,86.87996035,1086.152922
7.9400,-0.9972703377,87.25524745,1087.347788
7.9450,-1.881609532,87.62861685,1088.548788
7.9500,-2.75899759,88.00292031,1089.756744
7.9550,-3.629592116,88.37593,1090.971578
7.9600,-4.492705105,88.74823837,1092.193237
7.9650,-5.347147254,89.11924452,1093.42157
7.9700,-6.192640363,89.48983753,1094.656636
7.9750,-7.028190445,89.85727221,1095.897625
7.9800,-7.853192204,90.22262468,1097.144681
7.9850,-8.667971118,90.58516148,1098.398549
7.9900,-9.472036359,90.94405629,1099.658113
7.9950,-10.26526758,91.29927798,1100.923865
8.0000,-11.04797899,91.65011551,1102.195913
8.0050,-11.81979788,91.99630645,1103.473003
8.0100,-12.58094339,92.33789253,1104.756622
8.0150,-13.33178997,92.67469803,1106.046342
8.0200,-14.0730956,93.00541172,1107.341643
8.0250,-14.80396319,93.32939115,1108.642647
8.0300,-15.52454522,93.64755641,1109.949767
8.0350,-16.23541447,93.95955977,1111.262789
8.0400,-16.9368693,94.26411481,1112.580875
8.0450,-17.62853761,94.56126276,1113.903916
8.0500,-18.31064606,94.85150091,1115.232814
8.0550,-18.98299569,95.1337686,1116.567028
8.0600,-19.64627762,95.40831644,1117.905728
8.0650,-20.29867521,95.67722924,1119.249562
8.0700,-20.9419347,95.93877651,1120.598327
8.0750,-21.57534496,96.19367533,1121.952068
8.0800,-22.19981076,96.44237075,1123.310908
8.0850,-22.81453903,96.6845925,1124.674115
8.0900,-23.42034232,96.920688,1126.04286
8.0950,-24.01852248,97.14966222,1127.417102
8.1000,-24.60736843,97.37207348,1128.796199
8.1050,-25.18778307,97.5876613,1130.180912
8.1100,-25.75965652,97.79642613,1131.569975
8.1150,-26.32420576,97.99757,1132.963962
8.1200,-26.88090073,98.19158973,1134.362846
8.1250,-27.43146064,98.37900066,1135.766983
8.1300,-27.97461912,98.55966572,1137.176342
8.1350,-28.51303931,98.73380587,1138.591265
8.1400,-29.04617069,98.90199444,1140.011604
8.1450,-29.57456353,99.06366812,1141.437518
8.1500,-30.09851533,99.21902006,1142.869244
8.1550,-30.61754258,99.36989031,1144.307303
8.1600,-31.13282302,99.51512824,1145.751236
8.1650,-31.64389418,99.65430906,1147.200932
8.1700,-32.15064438,99.78733814,1148.656511
8.1750,-32.65546384,99.91369934,1150.118788
8.1800,-33.15737944,100.0336416,1151.586719
8.1850,-33.65687014,100.1471277,1153.061313
8.1900,-34.15299468,100.2549036,1154.542234
8.1950,-34.6453346,100.3565532,1156.029515
8.2000,-35.13475867,100.4526177,1157.523121
8.2050,-35.62168791,100.541605,1159.023691
8.2100,-36.10512204,100.6257991,1160.53056
8.2150,-36.58653311,100.703301,1162.044658
8.2200,-37.06519806,100.7751158,1163.564798
8.2250,-37.5403106,100.8410387,1165.091379
8.2300,-38.01225678,100.9007961,1166.625013
8.2350,-38.48079821,100.9543279,1168.16469
8.2400,-38.94592692,101.0014477,1169.710304
8.2450,-39.40676335,101.0423551,1171.262145
8.2500,-39.86275201,101.0765567,1172.819846
8.2550,-40.31423207,101.1041577,1174.383277
8.2600,-40.76070375,101.1241569,1175.952167
8.2650,-41.20326922,101.1382333,1177.526384
8.2700,-41.64102379,101.1455053,1179.105606
8.2750,-42.07333234,101.1478424,1180.690936
8.2800,-42.50048183,101.1430155,1182.281606
8.2850,-42.92121502,101.1330138,1183.876514
8.2900,-43.33598797,101.1173704,1185.476658
8.2950,-43.74410487,101.0963943,1187.081223
8.3000,-44.14490902,101.0701415,1188.689766
8.3050,-44.53892527,101.0392173,1190.302724
8.3100,-44.92595123,101.0031095,1191.919627
8.3150,-45.30576155,100.9625599,1193.539502
8.3200,-45.67937857,100.9169973,1195.163027
8.3250,-46.04672339,100.8668814,1196.789325
8.3300,-46.40798394,100.8128061,1198.417584
8.3350,-46.76277109,100.7537137,1200.047247
8.3400,-47.11137472,100.6922468,1201.67946
8.3450,-47.45327442,100.6286864,1203.312918
8.3500,-47.78854155,100.5629571,1204.946822
8.3550,-48.11741048,100.49619,1206.581317
8.3600,-48.4396098,100.428052,1208.216253
8.3650,-48.75608494,100.3585499,1209.851088
8.3700,-49.06543516,100.2888429,1211.485265
8.3750,-49.36845189,100.2186715,1213.118376
8.3800,-49.66607053,100.1474746,1214.750309
8.3850,-49.95786515,100.0752927,1216.380956
8.3900,-50.24426536,100.003026,1218.009196
8.3950,-50.52451256,99.9306311,1219.633496
8.4000,-50.79863755,99.85972559,1221.254748
8.4050,-51.06754317,99.79060344,1222.872047
8.4100,-51.33151967,99.72432737,1224.486433
8.4150,-51.58844799,99.66086828,1226.096544
8.4200,-51.83972489,99.60117329,1227.701827
8.4250,-52.08330465,99.54598526,1229.301726
8.4300,-52.32108659,99.49418571,1230.896338
8.4350,-52.5516995,99.44802367,1232.485175
8.4400,-52.77580287,99.40621865,1234.068171
8.4450,-52.99466331,99.36897917,1235.644965
8.4500,-53.20757481,99.33681987,1237.215173
8.4550,-53.41443683,99.30803644,1238.778734
8.4600,-53.61507019,99.28456113,1240.336855
8.4650,-53.81082491,99.26447172,1241.888647
8.4700,-53.99989088,99.25077163,1243.434134
8.4750,-54.18306857,99.24103087,1244.974083
8.4800,-54.35958519,99.23613363,1246.508838
8.4850,-54.52914223,99.23578771,1248.037526
8.4900,-54.69323444,99.23836011,1249.561119
8.4950,-54.85072681,99.24347582,1251.079644
8.5000,-55.00173695,99.25087662,1252.593347
8.5050,-55.14634262,99.26002622,1254.102449
8.5100,-55.28509607,99.26895331,1255.607019
8.5150,-55.41749878,99.27722078,1257.106201
8.5200,-55.54362489,99.28430815,1258.601338
8.5250,-55.6638424,99.28904551,1260.09216
8.5300,-55.77939298,99.29023056,1261.578821
8.5350,-55.88891027,99.28952793,1263.061627
8.5400,-55.99310151,99.28596048,1264.541043
8.5450,-56.0924634,99.27930565,1266.017677
8.5500,-56.18874929,99.2685452,1267.491981
8.5550,-56.28083403,99.25445689,1268.96335
8.5600,-56.36929538,99.23666592,1270.431953
8.5650,-56.45341338,99.21474247,1271.898806
8.5700,-56.53335999,99.18829067,1273.364098
8.5750,-56.61176339,99.15807923,1274.826891
8.5800,-56.6879057,99.12437867,1276.288041
8.5850,-56.76179766,99.08577908,1277.748758
8.5900,-56.83420919,99.04322348,1279.207971
8.5950,-56.90581385,98.99638999,1280.666803
8.6000,-56.97711557,98.94561066,1282.12565
8.6050,-57.04925084,98.89053512,1283.58474
8.6100,-57.12178088,98.83303014,1285.044368
8.6150,-57.19518373,98.77288526,1286.504689
8.6200,-57.2690335,98.71079681,1287.96601
8.6250,-57.34240243,98.64631,1289.428154
8.6300,-57.41590795,98.58006105,1290.890312
8.6350,-57.49013373,98.51220738,1292.35323
8.6400,-57.56411535,98.44242974,1293.816305
8.6450,-57.63888392,98.37155022,1295.279687
8.6500,-57.71542728,98.29801868,1296.742597
8.6550,-57.79377285,98.22224933,1298.204737
8.6600,-57.87538874,98.1453166,1299.665677
8.6650,-57.96050516,98.06563794,1301.124973
8.6700,-58.04951333,97.98431816,1302.581793
8.6750,-58.14221902,97.90157281,1304.035849
8.6800,-58.23812931,97.81903934,1305.48669
8.6850,-58.3379912,97.73813886,1306.933453
8.6900,-58.44209454,97.65819064,1308.375491
8.6950,-58.5498137,97.57998397,1309.812357
8.7000,-58.66182869,97.50481196,1311.243564
8.7050,-58.77662551,97.43308057,1312.668197
8.7100,-58.89449599,97.36537243,1314.085619
8.7150,-59.01569226,97.30241612,1315.495947
8.7200,-59.14016734,97.24312861,1316.899049
8.7250,-59.26915113,97.18883995,1318.295051
8.7300,-59.40115554,97.14058379,1319.682333
8.7350,-59.53623308,97.09700963,1321.060846
8.7400,-59.67506341,97.05886955,1322.430389
8.7450,-59.81637756,97.02658462,1323.790868
8.7500,-59.95985226,97.00077804,1325.141841
8.7550,-60.10503066,96.9823002,1326.483036
8.7600,-60.25134715,96.9701925,1327.812681
8.7650,-60.39758639,96.96466812,1329.131306
8.7700,-60.54360386,96.96283489,1330.438002
8.7750,-60.68862099,96.96619808,1331.73214
8.7800,-60.83368305,96.97222559,1333.013997
8.7850,-60.97718075,96.98122491,1334.283094
8.7900,-61.11949743,96.99374914,1335.538776
8.7950,-61.26028894,97.00960408,1336.78118
8.8000,-61.39797996,97.02788072,1338.009726
8.8050,-61.53137864,97.04977295,1339.224928
8.8100,-61.65960759,97.07457401,1340.426574
8.8150,-61.78206313,97.10155078,1341.61505
8.8200,-61.89753975,97.13105249,1342.7902
8.8250,-62.00473133,97.1619526,1343.952095
8.8300,-62.10246114,97.19432065,1345.100288
8.8350,-62.1899623,97.22680142,1346.235371
8.8400,-62.26673823,97.25863875,1347.358188
8.8450,-62.33102973,97.28884027,1348.46842
8.8500,-62.3808646,97.31746016,1349.565768
8.8550,-62.41675428,97.34217589,1350.651463
8.8600,-62.43912025,97.36217311,1351.724501
8.8650,-62.44836247,97.37555806,1352.785921
8.8700,-62.44595743,97.38220017,1353.83611
8.8750,-62.42847536,97.37930603,1354.875275
8.8800,-62.39783665,97.36730758,1355.903684
8.8850,-62.35459665,97.34517147,1356.921298
8.8900,-62.29888336,97.31070063,1357.929039
8.8950,-62.23125698,97.26414781,1358.926956
8.9000,-62.15327936,97.2042421,1359.914898
8.9050,-62.06473768,97.13187143,1360.893537
8.9100,-61.96756097,97.04504879,1361.863106
8.9150,-61.86256437,96.94431161,1362.824384
8.9200,-61.75021699,96.83032777,1363.777486
8.9250,-61.63246715,96.70420247,1364.72364
8.9300,-61.50845907,96.5666866,1365.66443
8.9350,-61.37995538,96.41825332,1366.600253
8.9400,-61.24744347,96.26105712,1367.532086
8.9450,-61.11107286,96.09478234,1368.460968
8.9500,-60.97067761,95.92133689,1369.387803
8.9550,-60.8274709,95.74220109,1370.313363
8.9600,-60.68162194,95.55600505,1371.238311
8.9650,-60.53297378,95.36643678,1372.163439
8.9700,-60.38140001,95.17292094,1373.089919
8.9750,-60.22653418,94.97605687,1374.018541
8.9800,-60.06960496,94.77553489,1374.948953
8.9850,-59.9101168,94.5726272,1375.883068
8.9900,-59.74875228,94.36559869,1376.820642
8.9950,-59.58545996,94.15558174,1377.762809
9.0000,-59.42117525,93.94083049,1378.709355
9.0050,-59.25730881,93.72216565,1379.660931
9.0100,-59.09328541,93.50002119,1380.617695
9.0150,-58.92973426,93.27429934,1381.579796
9.0200,-58.76741696,93.04537562,1382.54684
9.0250,-58.60623963,92.81251613,1383.519101
9.0300,-58.44716354,92.5753973,1384.496767
9.0350,-58.29023784,92.33566638,1385.480319
9.0400,-58.1354723,92.09159569,1386.468817
9.0450,-57.98259478,91.84494223,1387.462049
9.0500,-57.8332118,91.59534378,1388.460178
9.0550,-57.6882501,91.34229174,1389.46293
9.0600,-57.54679626,91.08610436,1390.470383
9.0650,-57.40952008,90.8283906,1391.48309
9.0700,-57.27669936,90.56853198,1392.501169
9.0750,-57.14899393,90.30705767,1393.52413
9.0800,-57.02631479,90.04483374,1394.550866
9.0850,-56.90884186,89.78132328,1395.581777
9.0900,-56.79466572,89.51666142,1396.615969
9.0950,-56.68374285,89.2509723,1397.653139
9.1000,-56.57510212,88.98533261,1398.693242
9.1050,-56.47000932,88.71963469,1399.734369
9.1100,-56.36635144,88.45552574,1400.777253
9.1150,-56.2629789,88.19206563,1401.820691
9.1200,-56.15990273,87.92860362,1402.864544
9.1250,-56.05767662,87.66624262,1403.908125
9.1300,-55.95460519,87.40483256,1404.951669
9.1350,-55.85293732,87.14362166,1405.994194
9.1400,-55.75111202,86.88296268,1407.034163
9.1450,-55.64914048,86.62384721,1408.071952
9.1500,-55.54824249,86.3655819,1409.107442
9.1550,-55.44649519,86.10949722,1410.140629
9.1600,-55.34318189,85.85552198,1411.171444
9.1650,-55.23723312,85.60306908,1412.198198
9.1700,-55.12837509,85.35318355,1413.221309
9.1750,-55.01744705,85.10481896,1414.240299
9.1800,-54.90445993,84.85877066,1415.255113
9.1850,-54.78950783,84.61465055,1416.264751
9.1900,-54.67403198,84.3725054,1417.269526
9.1950,-54.55688343,84.13178755,1418.268456
9.2000,-54.43861851,83.89308624,1419.261928
9.2050,-54.31833611,83.65600672,1420.249377
9.2100,-54.19655199,83.42096222,1421.231241
9.2150,-54.0721678,83.18713501,1422.207173
9.2200,-53.94550247,82.95576393,1423.176763
9.2250,-53.81660281,82.72618701,1424.140582
9.2300,-53.68542545,82.49858386,1425.097101
9.2350,-53.55006225,82.27283032,1426.046727
9.2400,-53.41238507,82.04809506,1426.989381
9.2450,-53.27161723,81.82503711,1427.924853
9.2500,-53.12777981,81.60447428,1428.854822
9.2550,-52.9799586,81.38475479,1429.778703
9.2600,-52.82802045,81.1669467,1430.697121
9.2650,-52.67269675,80.95020296,1431.610635
9.2700,-52.51399701,80.73385269,1432.519408
9.2750,-52.35306996,80.51821638,1433.423747
9.2800,-52.18755984,80.30228733,1434.323949
9.2850,-52.01850551,80.08374752,1435.218974
9.2900,-51.84660083,79.86451023,1436.109755
9.2950,-51.67377263,79.64369473,1436.997187
9.3000,-51.49966107,79.4214523,1437.880962
9.3050,-51.32456579,79.19714136,1438.761283
9.3100,-51.15008863,78.96899234,1439.637888
9.3150,-50.97709848,78.73783882,1440.51068
9.3200,-50.80472121,78.50264289,1441.380115
9.3250,-50.63414362,78.26440802,1442.245607
9.3300,-50.46548766,78.02228661,1443.107215
9.3350,-50.29909469,77.77558997,1443.964023
9.3400,-50.1354889,77.52569936,1444.817087
9.3450,-49.97600198,77.27101593,1445.665819
9.3500,-49.81943382,77.01356566,1446.50945
9.3550,-49.66576127,76.75307192,1447.348351
9.3600,-49.51639926,76.49029433,1448.183132
9.3650,-49.37092583,76.22446715,1449.012325
9.3700,-49.22858687,75.9573245,1449.835753
9.3750,-49.08819926,75.68931333,1450.653304
9.3800,-48.9478242,75.42120292,1451.464763
9.3850,-48.80749096,75.15270355,1452.268943
9.3900,-48.66851747,74.88484989,1453.065905
9.3950,-48.53036742,74.61814899,1453.855157
9.4000,-48.39319963,74.35251647,1454.635806
9.4050,-48.25577635,74.08827121,1455.408094
9.4100,-48.11754297,73.82464779,1456.170865
9.4150,-47.97987666,73.56314162,1456.924872
9.4200,-47.84240247,73.3047641,1457.669493
9.4250,-47.70424451,73.0494758,1458.404862
9.4300,-47.56616605,72.79786519,1459.130602
9.4350,-47.42735415,72.55075837,1459.845959
9.4400,-47.2872998,72.30772868,1460.551867
9.4450,-47.14706613,72.06904168,1461.246955
9.4500,-47.00553862,71.83433571,1461.930929
9.4550,-46.86271648,71.60286294,1462.603397
9.4600,-46.71848364,71.37444745,1463.264794
9.4650,-46.57309735,71.15075145,1463.914787
9.4700,-46.42626593,70.92994885,1464.552542
9.4750,-46.27869994,70.71337647,1465.17931
9.4800,-46.12992956,70.4999142,1465.793943
9.4850,-45.9787672,70.28993321,1466.397587
9.4900,-45.82467868,70.08416675,1466.989576
9.4950,-45.6676446,69.88169407,1467.570406
9.5000,-45.50632069,69.68286844,1468.140358
9.5050,-45.34086373,69.48674303,1468.69935
9.5100,-45.17107204,69.29324155,1469.247378
9.5150,-44.99766102,69.1019118,1469.784169
9.5200,-44.82073711,68.91299486,1470.310429
9.5250,-44.64013599,68.72602973,1470.825783
9.5300,-44.45570382,68.54093112,1471.33176
9.5350,-44.26801902,68.35770921,1471.828405
9.5400,-44.0767313,68.17650656,1472.315696
9.5450,-43.88235152,67.99628343,1472.79378
9.5500,-43.6837542,67.81727048,1473.261954
9.5550,-43.48229486,67.63949297,1473.721371
9.5600,-43.27708163,67.4628717,1474.172172
9.5650,-43.06796283,67.28596621,1474.614567
9.5700,-42.85387363,67.10989974,1475.048841
9.5750,-42.6358612,66.9332975,1475.474834
9.5800,-42.41569991,66.75539784,1475.893142
9.5850,-42.19293135,66.57792779,1476.304127
9.5900,-41.96714286,66.39961505,1476.70796
9.5950,-41.73923551,66.22030322,1477.104259
9.6000,-41.50898931,66.04016204,1477.493483
9.6050,-41.27609131,65.85787792,1477.875363
9.6100,-41.04132458,65.67361858,1478.250136
9.6150,-40.80463541,65.48668285,1478.618351
9.6200,-40.56724778,65.29839003,1478.980491
9.6250,-40.33023532,65.10741567,1479.336821
9.6300,-40.09382627,64.915957,1479.687828
9.6350,-39.85859046,64.72287406,1480.034191
9.6400,-39.62628153,64.52888789,1480.376236
9.6450,-39.39788562,64.33352117,1480.714121
9.6500,-39.17423789,64.13637344,1481.048934
9.6550,-38.95525709,63.93971673,1481.380979
9.6600,-38.74118242,63.743134,1481.709573
9.6650,-38.5314261,63.54773858,1482.0355
9.6700,-38.32847921,63.35278146,1482.358669
9.6750,-38.13281787,63.15930233,1482.680006
9.6800,-37.94511591,62.96716718,1482.999426
9.6850,-37.76496527,62.77955849,1483.318688
9.6900,-37.59192195,62.59428312,1483.637659
9.6950,-37.42440802,62.41267688,1483.956784
9.7000,-37.26120988,62.23525107,1484.275813
9.7050,-37.10168367,62.06105732,1484.595247
9.7100,-36.94584123,61.8907003,1484.914671
9.7150,-36.7920069,61.72284053,1485.23406
9.7200,-36.64034033,61.55667968,1485.553054
9.7250,-36.49024092,61.39186379,1485.871815
9.7300,-36.34102493,61.22745511,1486.189691
9.7350,-36.19118544,61.06267785,1486.506789
9.7400,-36.03970562,60.89757273,1486.822894
9.7450,-35.88525359,60.73168677,1487.137701
9.7500,-35.72770487,60.56417028,1487.451021
9.7550,-35.56781332,60.39426214,1487.762564
9.7600,-35.40597765,60.22169462,1488.072546
9.7650,-35.24250409,60.04425632,1488.381159
9.7700,-35.07652339,59.86320966,1488.688525
9.7750,-34.90682146,59.67700206,1488.993593
9.7800,-34.73339446,59.48626357,1489.296852
9.7850,-34.55504571,59.29027825,1489.597525
9.7900,-34.37194854,59.08797162,1489.895087
9.7950,-34.18381011,58.8800669,1490.189261
9.8000,-33.99059812,58.66509482,1490.479581
9.8050,-33.79291526,58.4437365,1490.766122
9.8100,-33.58969168,58.21555616,1491.047095
9.8150,-33.3795593,57.98163222,1491.323126
9.8200,-33.16141585,57.74009823,1491.592633
9.8250,-32.93356818,57.49359846,1491.855007
9.8300,-32.69545752,57.24168127,1492.108775
9.8350,-32.44750616,56.9842906,1492.353939
9.8400,-32.18968898,56.72021765,1492.588835
9.8450,-31.92152243,56.45134586,1492.813838
9.8500,-31.64562398,56.17705616,1493.028343
9.8550,-31.36098923,55.8975527,1493.231273
9.8600,-31.0687334,55.61222915,1493.421649
9.8650,-30.77005137,55.32293557,1493.598966
9.8700,-30.46763051,55.02961704,1493.763354
9.8750,-30.16162898,54.73354178,1493.914555
9.8800,-29.85473297,54.43623413,1494.053192
9.8850,-29.54845788,54.13824621,1494.179701
9.8900,-29.24469328,53.84160706,1494.295025
9.8950,-28.94453996,53.54608279,1494.39911
9.9000,-28.64970638,53.25414417,1494.492649
9.9050,-28.36291437,52.96646982,1494.576565
9.9100,-28.08390005,52.68546053,1494.651668
9.9150,-27.81396902,52.4129799,1494.718252
9.9200,-27.55425626,52.14877793,1494.777262
9.9250,-27.30534008,51.89476907,1494.829919
9.9300,-27.06913559,51.65017647,1494.876571
9.9350,-26.84641571,51.41566824,1494.917399
9.9400,-26.63703104,51.19309109,1494.95318
9.9450,-26.4416019,50.98154439,1494.984014
9.9500,-26.26002467,50.78134705,1495.010452
9.9550,-26.09326772,50.59187156,1495.032753
9.9600,-25.94105548,50.41283724,1495.051101
9.9650,-25.80436661,50.24448083,1495.066192
9.9700,-25.68114511,50.08619871,1495.078197
9.9750,-25.57137076,49.93710021,1495.086369
9.9800,-25.47595318,49.79674456,1495.091019
9.9850,-25.39559227,49.66277588,1495.09222
9.9900,-25.3286079,49.536088,1495.089592
9.9950,-25.27562694,49.41520234,1495.083184
10.0000,-25.2379978,49.29843195,1495.0736
10.0050,-25.21500235,49.18591643,1495.060357
10.0100,-25.20679184,49.07596431,1495.043918
10.0150,-25.21271478,48.96995284,1495.024571
10.0200,-25.23196404,48.86762301,1495.002097
10.0250,-25.2627016,48.76816891,1494.975737
10.0300,-25.30540752,48.6722327,1494.945434
10.0350,-25.35959698,48.57900426,1494.911249
10.0400,-25.42597983,48.4885036,1494.872995
10.0450,-25.50348656,48.40023418,1494.831096
10.0500,-25.59182654,48.31541304,1494.785577
10.0550,-25.68863203,48.23558465,1494.736167
10.0600,-25.79322942,48.15993534,1494.682073
10.0650,-25.90377433,48.08958616,1494.62264
10.0700,-26.02021083,48.02403169,1494.557963
10.0750,-26.14275823,47.96418878,1494.487478
10.0800,-26.27001968,47.9096497,1494.410356
10.0850,-26.40396701,47.86133526,1494.326298
10.0900,-26.5428959,47.82043387,1494.23516
10.0950,-26.68643632,47.78762169,1494.136646
10.1000,-26.83243384,47.76485286,1494.029633
10.1050,-26.98016276,47.75302933,1493.913305
10.1100,-27.12924127,47.7529475,1493.788173
10.1150,-27.27888922,47.76439216,1493.652442
10.1200,-27.4292152,47.78752117,1493.506307
10.1250,-27.58062639,47.82178865,1493.34942
10.1300,-27.73385353,47.86699896,1493.18087
10.1350,-27.88738361,47.92405647,1492.999664
10.1400,-28.04082899,47.99386877,1492.806031
10.1450,-28.19340243,48.0764933,1492.599211
10.1500,-28.34384495,48.17088713,1492.37842
10.1550,-28.49319037,48.27676986,1492.144224
10.1600,-28.64080816,48.395458,1491.8973
10.1650,-28.78721366,48.52542687,1491.636629
10.1700,-28.93184362,48.66608584,1491.362307
10.1750,-29.07522954,48.81805047,1491.075039
10.1800,-29.21628185,48.98079872,1490.774097
10.1850,-29.35446808,49.15339197,1490.45947
10.1900,-29.49059454,49.33469837,1490.131074
10.1950,-29.62460603,49.52562616,1489.789948
10.2000,-29.75833683,49.72410086,1489.435652
10.2050,-29.89086029,49.93074801,1489.069686
10.2100,-30.02375297,50.1451753,1488.692703
10.2150,-30.15816179,50.36495005,1488.30486
10.2200,-30.29488985,50.59092238,1487.906817
10.2250,-30.4348824,50.82131068,1487.49826
10.2300,-30.57673336,51.05683499,1487.080126
10.2350,-30.72282888,51.29740841,1486.653667
10.2400,-30.87085015,51.54267563,1486.218671
10.2450,-31.02136148,51.79379215,1485.776644
10.2500,-31.17528985,52.04990413,1485.327116
10.2550,-31.331763,52.31010554,1484.870631
10.2600,-31.49008597,52.57573185,1484.408144
10.2650,-31.65140629,52.8453142,1483.939613
10.2700,-31.81546336,53.11906009,1483.465288
10.2750,-31.98229801,53.39605265,1482.985587
10.2800,-32.15283525,53.6755421,1482.501415
10.2850,-32.32614228,53.95672763,1482.011978
10.2900,-32.50353168,54.23926167,1481.518608
10.2950,-32.68521662,54.52331589,1481.020988
10.3000,-32.8705064,54.8076785,1480.519814
10.3050,-33.05912296,55.0920459,1480.014745
10.3100,-33.2518742,55.37739798,1479.506408
10.3150,-33.44955479,55.66288491,1478.994895
10.3200,-33.65200059,55.94854721,1478.480895
10.3250,-33.86075949,56.23420828,1477.96531
10.3300,-34.07386733,56.51982343,1477.448451
10.3350,-34.29134997,56.80528111,1476.930896
10.3400,-34.51396506,57.09149385,1476.412759
10.3450,-34.74144369,57.37774191,1475.894025
10.3500,-34.97331593,57.6639609,1475.374847
10.3550,-35.21084532,57.94934677,1474.855869
10.3600,-35.45173481,58.23528634,1474.337361
10.3650,-35.69627254,58.52187762,1473.819862
10.3700,-35.94284024,58.80831292,1473.302203
10.3750,-36.19150971,59.09554951,1472.7849
10.3800,-36.4419864,59.38197378,1472.268231
10.3850,-36.69241129,59.66888041,1471.751988
10.3900,-36.94156169,59.95649587,1471.236268
10.3950,-37.18980013,60.24443139,1470.720818
10.4000,-37.43791254,60.53262439,1470.206152
10.4050,-37.68456134,60.81874548,1469.692385
10.4100,-37.92966371,61.10508035,1469.179365
10.4150,-38.17391218,61.39009271,1468.66767
10.4200,-38.41749246,61.67364109,1468.157032
10.4250,-38.6604841,61.95540073,1467.646875
10.4300,-38.90204232,62.23526476,1467.138334
10.4350,-39.14363056,62.51267046,1466.631113
10.4400,-39.38520619,62.78753739,1466.125317
10.4450,-39.62679908,63.05917216,1465.620706
10.4500,-39.86867186,63.32844973,1465.117318
10.4550,-40.10983792,63.59522559,1464.614583
10.4600,-40.35133197,63.86064731,1464.1122
10.4650,-40.59242553,64.12469915,1463.610894
10.4700,-40.83373765,64.38913763,1463.110348
10.4750,-41.07519098,64.65239452,1462.610202
10.4800,-41.31513874,64.91583755,1462.110801
10.4850,-41.55559181,65.17972978,1461.61204
10.4900,-41.79501254,65.44419649,1461.113594
10.4950,-42.03325888,65.70908112,1460.614854
10.5000,-42.26843739,65.97495411,1460.116332
10.5050,-42.50301804,66.24136369,1459.616857
10.5100,-42.73579797,66.50817036,1459.116371
10.5150,-42.96685193,66.77631257,1458.614595
10.5200,-43.19553813,67.04567194,1458.111494
10.5250,-43.42130859,67.3170874,1457.60659
10.5300,-43.64674338,67.58997759,1457.100139
10.5350,-43.87105963,67.86458267,1456.591141
10.5400,-44.09682559,68.13993512,1456.079718
10.5450,-44.32341538,68.41591981,1455.564663
10.5500,-44.55197258,68.69319414,1455.046215
10.5550,-44.78324197,68.97126407,1454.523645
10.5600,-45.01996834,69.25006479,1453.99653
10.5650,-45.26135298,69.52946932,1453.464865
10.5700,-45.50781979,69.81100992,1452.927858
10.5750,-45.75911615,70.09373817,1452.385863
10.5800,-46.01360208,70.37810289,1451.838399
10.5850,-46.27125951,70.66559615,1451.285566
10.5900,-46.53173531,70.95666649,1450.72696
10.5950,-46.7947911,71.25092808,1450.162497
10.6000,-47.06042748,71.54972973,1449.591897
10.6050,-47.32895582,71.85333544,1449.014653
10.6100,-47.60004408,72.16096869,1448.431104
10.6150,-47.87194465,72.47428935,1447.840709
10.6200,-48.14525199,72.79225121,1447.243209
10.6250,-48.42001058,73.11483145,1446.637266
10.6300,-48.69676854,73.44126451,1446.023162
10.6350,-48.97440815,73.77069082,1445.398743
10.6400,-49.25258546,74.10204081,1444.764342
10.6450,-49.53177687,74.43522089,1444.119561
10.6500,-49.81221665,74.76863701,1443.463695
10.6550,-50.09364324,75.10275618,1442.796539
10.6600,-50.3770818,75.43714537,1442.117256
10.6650,-50.66194801,75.77058847,1441.425719
10.6700,-50.94802312,76.10515362,1440.72319
10.6750,-51.23471723,76.44023033,1440.008036
10.6800,-51.5210905,76.77718584,1439.280474
10.6850,-51.80749774,77.11512756,1438.540237
10.6900,-52.09516423,77.45341343,1437.786875
10.6950,-52.38182811,77.79186371,1437.020372
10.7000,-52.66707254,78.13079506,1436.240238
10.7050,-52.94992344,78.47125102,1435.446025
10.7100,-53.23008244,78.81136343,1434.63776
10.7150,-53.50583766,79.1518028,1433.81557
10.7200,-53.7758019,79.49364638,1432.979682
10.7250,-54.04029837,79.83505455,1432.129681
10.7300,-54.29943031,80.17587482,1431.26573
10.7350,-54.55212879,80.51614292,1430.387752
10.7400,-54.7973069,80.85591359,1429.496088
10.7450,-55.03511731,81.19645824,1428.591773
10.7500,-55.2657849,81.53748232,1427.674798
10.7550,-55.48984819,81.87930035,1426.745421
10.7600,-55.70593098,82.22052007,1425.804075
10.7650,-55.91573806,82.56186987,1424.850414
10.7700,-56.11832571,82.90123075,1423.884982
10.7750,-56.31497872,83.23986976,1422.908151
10.7800,-56.50704593,83.57716876,1421.920074
10.7850,-56.69268785,83.91386953,1420.92176
10.7900,-56.87221438,84.25032831,1419.91326
10.7950,-57.04507783,84.58839377,1418.896027
10.8000,-57.21186768,84.92745356,1417.870324
10.8050,-57.37138779,85.26727338,1416.836942
10.8100,-57.52307905,85.60683233,1415.79606
10.8150,-57.66746151,85.94796421,1414.74838
10.8200,-57.80376444,86.29050755,1413.6938
10.8250,-57.93252871,86.63459167,1412.634044
10.8300,-58.05199483,86.98008076,1411.569266
10.8350,-58.162755,87.32677934,1410.500033
10.8400,-58.26519192,87.67483032,1409.426322
10.8450,-58.35997335,88.02454682,1408.349178
10.8500,-58.44650798,88.37442658,1407.26841
10.8550,-58.52575722,88.72629353,1406.184425
10.8600,-58.59727669,89.07865877,1405.097705
10.8650,-58.66206419,89.43175327,1404.007672
10.8700,-58.72200875,89.78429284,1402.914959
10.8750,-58.77835137,90.13758328,1401.81796
10.8800,-58.83215982,90.49204747,1400.717421
10.8850,-58.88488513,90.84601878,1399.612489
10.8900,-58.93729581,91.19947328,1398.503385
10.8950,-58.9907847,91.55265481,1397.390044
10.9000,-59.04646867,91.9041857,1396.271284
10.9050,-59.10548147,92.25691028,1395.148823
10.9100,-59.16694537,92.61046848,1394.021053
10.9150,-59.23171603,92.96426749,1392.88781
10.9200,-59.29956319,93.32040561,1391.748475
10.9250,-59.36992696,93.67903515,1390.603505
10.9300,-59.4420699,94.04149619,1389.451872
10.9350,-59.51664776,94.40887842,1388.294244
10.9400,-59.59294617,94.78101857,1387.129469
10.9450,-59.67142324,95.15841164,1385.957263
10.9500,-59.75129472,95.54129963,1384.777125
10.9550,-59.83237505,95.92974081,1383.588094
10.9600,-59.91362752,96.32295464,1382.391078
10.9650,-59.99671225,96.7209849,1381.185204
10.9700,-60.08088962,97.12297616,1379.968683
10.9750,-60.166239,97.52773172,1378.742341
10.9800,-60.25283199,97.93569717,1377.504747
10.9850,-60.3393363,98.34672977,1376.255909
10.9900,-60.42516255,98.75987369,1374.995791
10.9950,-60.51100521,99.17540853,1373.723945
11.0000,-60.59673846,99.59335143,1372.440255
11.0050,-60.68331419,100.0119973,1371.144116
11.0100,-60.76927564,100.4318281,1369.835089
11.0150,-60.85524199,100.8523798,1368.512554
11.0200,-60.94058957,101.2725258,1367.175944
11.0250,-61.02543738,101.6925361,1365.826127
11.0300,-61.10895608,102.1128214,1364.461862
11.0350,-61.18994653,102.5328606,1363.083926
11.0400,-61.26921942,102.9520591,1361.691251
11.0450,-61.34629829,103.368921,1360.283962
11.0500,-61.42066281,103.7834787,1358.861967
11.0550,-61.49226771,104.1949265,1357.425294
11.0600,-61.56124255,104.6029392,1355.973316
11.0650,-61.62626748,105.0071244,1354.507954
11.0700,-61.68591239,105.4077464,1353.028487
11.0750,-61.73836245,105.8048526,1351.535491
11.0800,-61.78357018,106.1975885,1350.028731
11.0850,-61.82195072,106.5835865,1348.507931
11.0900,-61.85343271,106.9632147,1346.97411
11.0950,-61.87835705,107.3343067,1345.426538
11.1000,-61.89765397,107.6966504,1343.866475
11.1050,-61.90938726,108.0519942,1342.293878
11.1100,-61.91478979,108.4001511,1340.708904
11.1150,-61.9136729,108.7402305,1339.11235
11.1200,-61.90713968,109.0728502,1337.50461
11.1250,-61.89440968,109.3966029,1335.885576
11.1300,-61.87552908,109.7131796,1334.254805
11.1350,-61.84938951,110.0231502,1332.61373
11.1400,-61.81432589,110.3256839,1330.962598
11.1450,-61.77065436,110.6208992,1329.301589
11.1500,-61.71748436,110.9103847,1327.63104
11.1550,-61.65528189,111.1930109,1325.951377
11.1600,-61.58300298,111.4696069,1324.262967
11.1650,-61.50063325,111.7401642,1322.566666
11.1700,-61.40764182,112.0052375,1320.864007
11.1750,-61.30374829,112.2647594,1319.155881
11.1800,-61.18901691,112.5170682,1317.441601
11.1850,-61.06392711,112.7630539,1315.722987
11.1900,-60.92791549,113.0013478,1313.999702
11.1950,-60.78143428,113.2326814,1312.273409
11.2000,-60.62454766,113.456825,1310.544314
11.2050,-60.45721791,113.6712263,1308.812086
11.2100,-60.27918938,113.876063,1307.078076
11.2150,-60.09184433,114.069559,1305.342693
11.2200,-59.8948569,114.2511003,1303.606865
11.2250,-59.68992695,114.4198185,1301.871429
11.2300,-59.47829297,114.5743512,1300.1367
11.2350,-59.26066793,114.7129198,1298.404285
11.2400,-59.03822101,114.836415,1296.674051
11.2450,-58.81154692,114.943262,1294.946432
11.2500,-58.58055182,115.0342033,1293.222783
11.2550,-58.34684246,115.1092747,1291.502927
11.2600,-58.1111017,115.1674674,1289.78662
11.2650,-57.87309151,115.2103694,1288.074639
11.2700,-57.63373647,115.2381657,1286.367294
11.2750,-57.39221348,115.2520096,1284.66458
11.2800,-57.14879189,115.2514514,1282.967382
11.2850,-56.90479269,115.2373621,1281.275577
11.2900,-56.65925923,115.2110171,1279.589563
11.2950,-56.41119251,115.1728421,1277.90979
11.3000,-56.16063681,115.1211525,1276.236423
11.3050,-55.90645626,115.058393,1274.570189
11.3100,-55.64989773,114.9830817,1272.912168
11.3150,-55.39086695,114.8964067,1271.262171
11.3200,-55.1300466,114.799122,1269.621249
11.3250,-54.86776323,114.6912547,1267.989211
11.3300,-54.60382688,114.5732597,1266.367095
11.3350,-54.33915917,114.4457483,1264.753991
11.3400,-54.07193656,114.3096744,1263.150649
11.3450,-53.80220504,114.1647594,1261.555528
11.3500,-53.52881204,114.0128937,1259.969789
11.3550,-53.2512944,113.8540687,1258.393339
11.3600,-52.96987456,113.6897028,1256.82633
11.3650,-52.68362993,113.5196549,1255.267669
11.3700,-52.39387423,113.3455275,1253.717514
11.3750,-52.10114083,113.1677032,1252.175981
11.3800,-51.8057502,112.9856776,1250.643601
11.3850,-51.50769564,112.8014958,1249.120304
11.3900,-51.20778041,112.6149025,1247.605724
11.3950,-50.90563755,112.4282854,1246.100375
11.4000,-50.60129908,112.2423046,1244.603613
11.4050,-50.2954061,112.0571495,1243.115063
11.4100,-49.98742423,111.8749773,1241.635026
11.4150,-49.67688836,111.6949958,1240.163656
11.4200,-49.36298085,111.5182493,1238.700777
11.4250,-49.04443624,111.3471606,1237.246321
11.4300,-48.72316873,111.1797878,1235.799672
11.4350,-48.39917901,111.0161832,1234.36031
11.4400,-48.07454409,110.8574411,1232.929103
11.4450,-47.74847548,110.7028405,1231.505289
11.4500,-47.42170848,110.5519605,1230.090613
11.4550,-47.09461824,110.4046574,1228.683969
11.4600,-46.7676528,110.2603787,1227.285411
11.4650,-46.44024537,110.1209662,1225.894888
11.4700,-46.11242147,109.9847999,1224.511418
11.4750,-45.78379698,109.8516865,1223.13544
11.4800,-45.45367003,109.7233781,1221.76648
11.4850,-45.12246317,109.6005209,1220.405124
11.4900,-44.78958984,109.4839918,1219.050832
11.4950,-44.45474431,109.3727427,1217.702755
11.5000,-44.11746396,109.2688012,1216.361859
11.5050,-43.77767829,109.1713057,1215.028281
11.5100,-43.43688669,109.0803672,1213.700775
11.5150,-43.09368306,108.9964863,1212.379311
11.5200,-42.75019772,108.9171701,1211.06389
11.5250,-42.40446889,108.8428622,1209.753594
11.5300,-42.05688665,108.7730252,1208.448863
11.5350,-41.70789684,108.7080041,1207.148461
11.5400,-41.35871962,108.6458926,1205.853023
11.5450,-41.00780937,108.5883234,1204.562661
11.5500,-40.65639962,108.5355144,1203.276695
11.5550,-40.30330435,108.4860373,1201.995721
11.5600,-39.94866645,108.4420399,1200.719478
11.5650,-39.59149155,108.4018546,1199.44745
11.5700,-39.23178813,108.3649771,1198.179072
11.5750,-38.86907878,108.3313805,1196.914576
11.5800,-38.50317733,108.3013803,1195.653272
11.5850,-38.13408242,108.2741641,1194.395247
11.5900,-37.7615936,108.2500028,1193.140046
11.5950,-37.38638164,108.2282646,1191.88757
11.6000,-37.00824537,108.2097512,1190.637876
11.6050,-36.62688105,108.1928642,1189.390026
11.6100,-36.24129166,108.1795565,1188.143754
11.6150,-35.85227376,108.168396,1186.8988
11.6200,-35.45969904,108.1589563,1185.654867
11.6250,-35.06338456,108.1524219,1184.411267
11.6300,-34.66415449,108.1467501,1183.168284
11.6350,-34.26178405,108.1442105,1181.926901
11.6400,-33.85747946,108.1433917,1180.686401
11.6450,-33.44992589,108.1457329,1179.447437
11.6500,-33.03988815,108.1503925,1178.208944
11.6550,-32.62639169,108.1589717,1176.970615
11.6600,-32.20977095,108.1715218,1175.732089
11.6650,-31.79059508,108.1879352,1174.493905
11.6700,-31.36787574,108.2085407,1173.255276
11.6750,-30.94144742,108.232837,1172.015781
11.6800,-30.51099817,108.2614078,1170.775103
11.6850,-30.07742549,108.2940395,1169.5335
11.6900,-29.6392766,108.3310709,1168.291149
11.6950,-29.19734977,108.3713116,1167.047653
11.7000,-28.75025357,108.4136273,1165.802713
11.7050,-28.30005683,108.4573976,1164.557326
11.7100,-27.84577438,108.5022682,1163.311009
11.7150,-27.3886422,108.5487496,1162.063801
11.7200,-26.92741172,108.5963012,1160.815326
11.7250,-26.46365691,108.6430774,1159.565266
11.7300,-25.99581268,108.6903789,1158.314204
11.7350,-25.52507271,108.7383226,1157.062086
11.7400,-25.04905759,108.7854058,1155.807607
11.7450,-24.56851937,108.8334385,1154.552467
11.7500,-24.08293663,108.8817763,1153.295371
11.7550,-23.59298931,108.9308119,1152.038239
11.7600,-23.09858022,108.9788192,1150.780232
11.7650,-22.59934283,109.02519,1149.52138
11.7700,-22.09645442,109.0699596,1148.262491
11.7750,-21.59103279,109.1125469,1147.003773
11.7800,-21.08273279,109.1532579,1145.745784
11.7850,-20.57148438,109.1910655,1144.488218
11.7900,-20.05769399,109.2259483,1143.231668
11.7950,-19.54130034,109.2587654,1141.976516
11.8000,-19.02240129,109.2869719,1140.72217
11.8050,-18.49965366,109.3115856,1139.469439
11.8100,-17.97357672,109.3317768,1138.218805
11.8150,-17.44487466,109.3473214,1136.97075
11.8200,-16.9124436,109.3593135,1135.725294
11.8250,-16.37705672,109.3665155,1134.482993
11.8300,-15.83813557,109.3673326,1133.2426
11.8350,-15.29555338,109.3624456,1132.005438
11.8400,-14.74834973,109.3506118,1130.771799
11.8450,-14.19745738,109.3304771,1129.541646
11.8500,-13.64296849,109.298885,1128.314919
11.8550,-13.08524656,109.2568183,1127.091542
11.8600,-12.52561872,109.2023939,1125.871392
11.8650,-11.96464946,109.1351764,1124.654701
11.8700,-11.40137695,109.053676,1123.4412
11.8750,-10.83818652,108.957869,1122.231324
11.8800,-10.27412162,108.8480772,1121.025284
11.8850,-9.708893903,108.7235044,1119.822659
11.8900,-9.144328695,108.584332,1118.624522
11.8950,-8.580080418,108.42902,1117.429307
11.9000,-8.016255988,108.2594907,1116.237568
11.9050,-7.45538539,108.0750456,1115.049655
11.9100,-6.897184173,107.8750716,1113.864882
11.9150,-6.342169325,107.6617052,1112.684035
11.9200,-5.790834588,107.4332744,1111.506038
11.9250,-5.243124824,107.1911137,1110.332024
11.9300,-4.699629179,106.936658,1109.160913
11.9350,-4.160670012,106.6695048,1107.99245
11.9400,-3.625045208,106.3911217,1106.826543
11.9450,-3.094436197,106.1025236,1105.663817
11.9500,-2.568750196,105.8036943,1104.504166
11.9550,-2.046556805,105.4956406,1103.347342
11.9600,-1.526814585,105.1787019,1102.194158
11.9650,-1.007523957,104.8539623,1101.04314
11.9700,-0.4905371089,104.519767,1099.894772
11.9750,0.02496515747,104.1775311,1098.749404
11.9800,0.5406757072,103.8279979,1097.606175
11.9850,1.056995264,103.4722987,1096.465145
11.9900,1.573934965,103.1095015,1095.325329
11.9950,2.09146361,102.7399309,1094.186766
12.0000,2.609642903,102.3661013,1093.049756
12.0050,3.129675811,101.98831,1091.913182
12.0100,3.652209255,101.6082647,1090.777353
12.0150,4.179815127,101.226267,1089.641916
12.0200,4.712764732,100.8432418,1088.506982
12.0250,5.253415368,100.4601008,1087.372113
12.0300,5.803399824,100.077377,1086.237768
12.0350,6.364971323,99.69511891,1085.10416
12.0400,6.938850931,99.31435894,1083.971776
12.0450,7.525511229,98.93273414,1082.840088
12.0500,8.126005527,98.55114503,1081.709291
12.0550,8.742144514,98.16769422,1080.57883
12.0600,9.373773438,97.78410748,1079.449721
12.0650,10.02071788,97.39743959,1078.322464
12.0700,10.6858976,97.00876151,1077.196438
12.0750,11.37072817,96.61721905,1076.071723
12.0800,12.07634363,96.22201159,1074.948762
12.0850,12.8057267,95.82431056,1073.827329
12.0900,13.55958761,95.42297292,1072.707576
12.0950,14.33936243,95.01808056,1071.589682
12.1000,15.14604237,94.61001239,1070.473768
12.1050,15.97671899,94.19861477,1069.360583
12.1100,16.83006666,93.7838274,1068.250549
12.1150,17.70433316,93.36465015,1067.144535
12.1200,18.59757589,92.94145694,1066.042531
12.1250,19.50735378,92.5130816,1064.945554
12.1300,20.42983829,92.08082256,1063.855222
12.1350,21.36231923,91.64363793,1062.771578
12.1400,22.30117789,91.20129614,1061.695394
12.1450,23.24315713,90.75325421,1060.62769
12.1500,24.18715488,90.30026387,1059.56864
12.1550,25.12934599,89.84138492,1058.519682
12.1600,26.06953497,89.37558642,1057.481109
12.1650,27.0049928,88.90195834,1056.453704
12.1700,27.93107143,88.42065333,1055.438668
12.1750,28.84684456,87.92953199,1054.436488
12.1800,29.74866831,87.427045,1053.447953
12.1850,30.63545109,86.91291131,1052.473671
12.1900,31.50634339,86.38522217,1051.513446
12.1950,32.35932227,85.84522516,1050.568412
12.2000,33.19311931,85.29084583,1049.638429
12.2050,34.00836788,84.72265105,1048.723584
12.2100,34.80390188,84.14053368,1047.823928
12.2150,35.58082224,83.54419905,1046.938641
12.2200,36.34023558,82.93576802,1046.067962
12.2250,37.08277687,82.31570153,1045.211456
12.2300,37.81032047,81.68606268,1044.368955
12.2350,38.52314619,81.04634822,1043.539993
12.2400,39.22085096,80.39908094,1042.725012
12.2450,39.90523491,79.74356379,1041.92231
12.2500,40.57702369,79.08136185,1041.131931
12.2550,41.23528018,78.41347758,1040.353665
12.2600,41.88025741,77.74028724,1039.58696
12.2650,42.5120602,77.06385335,1038.831935
12.2700,43.1318351,76.3866171,1038.088432
12.2750,43.74055154,75.70743921,1037.355461
12.2800,44.33795502,75.0289479,1036.633532
12.2850,44.9259891,74.35210139,1035.921907
12.2900,45.50610958,73.67848259,1035.220349
12.2950,46.0797276,73.00794142,1034.527809
12.3000,46.64863187,72.34209245,1033.84402
12.3050,47.21538449,71.68165981,1033.168172
12.3100,47.78187818,71.02500617,1032.499548
12.3150,48.34881453,70.37374431,1031.837758
12.3200,48.91768455,69.72716642,1031.182201
12.3250,49.48913572,69.08669335,1030.53304
12.3300,50.06356738,68.45188887,1029.889659
12.3350,50.64198642,67.82263707,1029.251377
12.3400,51.22497616,67.19917113,1028.618162
12.3450,51.81451609,66.5828035,1027.989458
12.3500,52.41045079,65.97206986,1027.365106
12.3550,53.01480537,65.36924741,1026.745216
12.3600,53.62925861,64.77458078,1026.129235
12.3650,54.25614514,64.19021802,1025.517007
12.3700,54.89550553,63.61704125,1024.908984
12.3750,55.54717814,63.05416888,1024.3051
12.3800,56.21209814,62.50281748,1023.705384
12.3850,56.88859097,61.96048762,1023.110169
12.3900,57.57634613,61.42717585,1022.519845
12.3950,58.27448637,60.90073823,1021.93435
12.4000,58.98233643,60.38235778,1021.354583
12.4050,59.70056941,59.86913459,1020.779964
12.4100,60.43070147,59.36070655,1020.210455
12.4150,61.17280099,58.85618873,1019.645924
12.4200,61.92625305,58.35327084,1019.086707
12.4250,62.69103553,57.85133677,1018.532405
12.4300,63.46771055,57.349984,1017.983019
12.4350,64.2554824,56.84835928,1017.438866
12.4400,65.05675312,56.34524765,1016.899019
12.4450,65.87127602,55.84195965,1016.363864
12.4500,66.69828335,55.33958308,1015.833956
12.4550,67.53941206,54.83604169,1015.308684
12.4600,68.39396317,54.3329292,1014.788358
12.4650,69.26150987,53.82934117,1014.273046
12.4700,70.14340142,53.32571635,1013.762786
12.4750,71.03944118,52.82283243,1013.257359
12.4800,71.94880102,52.31951564,1012.756747
12.4850,72.87041075,51.81721403,1012.261398
12.4900,73.80515917,51.31601373,1011.771106
12.4950,74.75162682,50.81578938,1011.286131
12.5000,75.70934857,50.31736924,1010.806636
12.5050,76.67672513,49.82173542,1010.332858
12.5100,77.65256728,49.32906859,1009.864997
12.5150,78.63597336,48.84042085,1009.403322
12.5200,79.62512273,48.3570496,1008.948188
12.5250,80.61920443,47.87778855,1008.499265
12.5300,81.61616854,47.40289968,1008.05685
12.5350,82.6157297,46.93430945,1007.621029
12.5400,83.61553923,46.47179452,1007.191993
12.5450,84.61530701,46.01636627,1006.769676
12.5500,85.6120458,45.56815004,1006.354382
12.5550,86.60426247,45.12783163,1005.946318
12.5600,87.59021241,44.69426795,1005.545141
12.5650,88.56741139,44.26748489,1005.151142
12.5700,89.5341944,43.84719418,1004.764146
12.5750,90.48941339,43.43503653,1004.384191
12.5800,91.43165752,43.03030869,1004.010919
12.5850,92.35906102,42.63295512,1003.644664
12.5900,93.27196926,42.2422535,1003.284674
12.5950,94.16876082,41.86081383,1002.931906
12.6000,95.04997464,41.48779601,1002.585541
12.6050,95.91255696,41.12194082,1002.246242
12.6100,96.75535431,40.7636085,1001.913806
12.6150,97.57862511,40.413229,1001.588321
12.6200,98.38046111,40.07029124,1001.269972
12.6250,99.16091514,39.73421266,1000.958598
12.6300,99.9185999,39.40604646,1000.65467
12.6350,100.6540169,39.08497374,1000.358057
12.6400,101.3648204,38.77111921,1000.069217
12.6450,102.0500978,38.46326746,999.7882508
12.6500,102.709532,38.16412279,999.515696
12.6550,103.340684,37.87157883,999.2515988
12.6600,103.9437126,37.58579636,998.9961703
12.6650,104.5163292,37.30587624,998.7498054
12.6700,105.0582337,37.03040526,998.5124205
12.6750,105.570467,36.76082313,998.2841477
12.6800,106.0503131,36.49456296,998.0651149
12.6850,106.499936,36.23400301,997.8551847
12.6900,106.9197014,35.97850428,997.6541129
12.6950,107.3099269,35.72866433,997.4620993
12.7000,107.6710437,35.48371337,997.2786892
12.7050,108.0041613,35.24364724,997.1037744
12.7100,108.3106626,35.00720753,996.9369397
12.7150,108.5928725,34.77598874,996.7777658
12.7200,108.8531504,34.54973315,996.6256938
12.7250,109.093922,34.32912239,996.4802759
12.7300,109.3166813,34.11420166,996.3413057
12.7350,109.5259733,33.90460432,996.2077103
12.7400,109.7242146,33.70293031,996.0795722
12.7450,109.9140162,33.50573844,995.9558575
12.7500,110.097992,33.31378415,995.8361928
12.7550,110.277577,33.12788669,995.7205373
12.7600,110.4543353,32.94797679,995.6087389
12.7650,110.6306028,32.77469299,995.500391
12.7700,110.8068902,32.60752823,995.3954458
12.7750,110.9836402,32.44579411,995.2940422
12.7800,111.1620775,32.29163425,995.196392
12.7850,111.3420478,32.14324915,995.1024767
12.7900,111.5219679,32.00130519,995.0128421
12.7950,111.7016929,31.86597806,994.9276975
12.8000,111.8803368,31.73683298,994.847219
12.8050,112.0568096,31.61299308,994.7716497
12.8100,112.2309318,31.49501886,994.7011965
12.8150,112.4013326,31.38059561,994.6358674
12.8200,112.5659047,31.27039452,994.5761855
12.8250,112.722737,31.16387431,994.5224025
12.8300,112.8707976,31.06049217,994.4745073
12.8350,113.0088142,30.95935328,994.4325761
12.8400,113.1351037,30.85962794,994.3966068
12.8450,113.2477689,30.76025004,994.3667614
12.8500,113.3475198,30.66199413,994.3427731
12.8550,113.4322007,30.56231043,994.3245045
12.8600,113.5026915,30.46315365,994.3118182
12.8650,113.5585904,30.36291503,994.3043546
12.8700,113.5998268,30.26224518,994.302136
12.8750,113.6261038,30.16134633,994.3049419
12.8800,113.6371187,30.06016886,994.3128492
12.8850,113.6342389,29.95778773,994.3253057
12.8900,113.6162245,29.85666911,994.3429897
12.8950,113.5837069,29.75624492,994.3653551
12.9000,113.5355966,29.65569354,994.3928477
12.9050,113.4742008,29.55667337,994.4250685
12.9100,113.3984612,29.46047713,994.4625151
12.9150,113.3079075,29.36713466,994.5053862
12.9200,113.2041683,29.27807056,994.5535738
12.9250,113.0854454,29.19342599,994.6075892
12.9300,112.952812,29.11272242,994.6672845
12.9350,112.8044164,29.03768493,994.7333461
12.9400,112.6406985,28.96735373,994.8056924
12.9450,112.4610879,28.90331907,994.8847446
12.9500,112.266217,28.84475324,994.9703538
12.9550,112.0557078,28.79225329,995.0628387
12.9600,111.8294015,28.74666221,995.1624574
12.9650,111.5871024,28.70893713,995.2691815
12.9700,111.3284085,28.67875775,995.383204
12.9750,111.0532352,28.65620001,995.5045526
12.9800,110.7607822,28.64248194,995.6335818
12.9850,110.4513595,28.63551363,995.7700325
12.9900,110.1250385,28.63669118,995.9141141
12.9950,109.7818013,28.6454489,996.0656344
13.0000,109.4235733,28.6625249,996.224466
13.0050,109.0498548,28.68816412,996.3908134
13.0100,108.6600763,28.72315819,996.5649336
13.0150,108.2548509,28.76606105,996.7466936
13.0200,107.8343599,28.81787956,996.9363515
13.0250,107.3985422,28.87872652,997.1341603
13.0300,106.948943,28.94778854,997.340065
13.0350,106.4856284,29.02647131,997.5544291
13.0400,106.005943,29.11412413,997.7778758
13.0450,105.5120669,29.21247895,998.0105944
13.0500,105.0026773,29.32014354,998.2529244
13.0550,104.4782871,29.43808565,998.5051172
13.0600,103.9392224,29.56523329,998.7672076
13.0650,103.385537,29.70276694,999.0395274
13.0700,102.8166503,29.84986632,999.3223773
13.0750,102.2333169,30.00815277,999.615944
13.0800,101.6354296,30.17633091,999.9202016
13.0850,101.0205537,30.35544749,1000.235996
13.0900,100.3895464,30.54550439,1000.563148
13.0950,99.74265718,30.7461832,1000.90178
13.1000,99.07819118,30.95778466,1001.252593
13.1050,98.3963982,31.18139892,1001.615923
13.1100,97.69665811,31.41727309,1001.992092
13.1150,96.97779301,31.66536923,1002.381596
13.1200,96.24215531,31.92511755,1002.784087
13.1250,95.48889457,32.1970905,1003.200128
13.1300,94.71904402,32.48132331,1003.629907
13.1350,93.93235068,32.77653003,1004.073498
13.1400,93.12940678,33.08270246,1004.531238
13.1450,92.31018727,33.40006091,1005.003223
13.1500,91.4746094,33.72779082,1005.490028
13.1550,90.62407314,34.06577643,1005.991295
13.1600,89.75695785,34.41426115,1006.50806
13.1650,88.87372345,34.77295168,1007.04042
13.1700,87.975259,35.141245,1007.588306
13.1750,87.06205287,35.5181238,1008.152149
13.1800,86.13373076,35.90366723,1008.732202
13.1850,85.19060671,36.2980522,1009.328419
13.1900,84.2328802,36.69972242,1009.940477
13.1950,83.26196303,37.10850881,1010.568459
13.2000,82.27793916,37.524555,1011.212024
13.2050,81.28186198,37.9477373,1011.871084
13.2100,80.27453648,38.37718148,1012.545116
13.2150,79.25755488,38.8126746,1013.233766
13.2200,78.23046452,39.25384952,1013.937113
13.2250,77.19592171,39.70047884,1014.654569
13.2300,76.15317075,40.15106328,1015.385755
13.2350,75.10477454,40.60533109,1016.130035
13.2400,74.0517197,41.06310624,1016.886967
13.2450,72.99645739,41.52399435,1017.655752
13.2500,71.93865543,41.98564408,1018.436301
13.2550,70.8807385,42.44869768,1019.227719
13.2600,69.82390258,42.91096421,1020.029413
13.2650,68.76880435,43.37115133,1020.840948
13.2700,67.71702114,43.8292904,1021.66166
13.2750,66.66845131,44.28476859,1022.491189
13.2800,65.62535671,44.7368942,1023.328856
13.2850,64.58782073,45.18625038,1024.174674
13.2900,63.55625084,45.63113126,1025.027902
13.2950,62.53177051,46.07191155,1025.888312
13.3000,61.51303291,46.5083675,1026.756268
13.3050,60.50086771,46.94050716,1027.631059
13.3100,59.49565484,47.36887758,1028.51261
13.3150,58.49635141,47.79300538,1029.401508
13.3200,57.50365945,48.21400228,1030.297657
13.3250,56.51708052,48.63178261,1031.201121
13.3300,55.5370876,49.04754265,1032.111873
13.3350,54.56167642,49.46038894,1033.030583
13.3400,53.59137503,49.8708858,1033.957063
13.3450,52.62476516,50.27836359,1034.891576
13.3500,51.66207396,50.68400516,1035.834639
13.3550,50.70183763,51.08834912,1036.786616
13.3600,49.7428422,51.49207874,1037.748049
13.3650,48.78503942,51.89518705,1038.719163
13.3700,47.82630523,52.29959871,1039.700985
13.3750,46.86603568,52.70449616,1040.693712
13.3800,45.90357119,53.11076329,1041.697773
13.3850,44.93965573,53.51757603,1042.713053
13.3900,43.97373551,53.92632716,1043.740134
13.3950,43.00286879,54.33630096,1044.779694
13.4000,42.02869472,54.74764435,1045.831058
13.4050,41.05210575,55.16081851,1046.894365
13.4100,40.0724976,55.57499582,1047.969157
13.4150,39.09109817,55.99269888,1049.056025
13.4200,38.10613718,56.41274547,1050.155121
13.4250,37.11989353,56.83608175,1051.266039
13.4300,36.13173518,57.26249449,1052.389023
13.4350,35.14266977,57.69269495,1053.524128
13.4400,34.15316146,58.12607264,1054.670796
13.4450,33.16418911,58.5628702,1055.82922
13.4500,32.17648831,59.00283867,1056.998617
13.4550,31.1899196,59.44716555,1058.180069
13.4600,30.2068767,59.89473733,1059.372384
13.4650,29.22747008,60.34504399,1060.57533
13.4700,28.25344063,60.80020944,1061.789221
13.4750,27.28595992,61.25937894,1063.01277
13.4800,26.32605951,61.72275283,1064.245334
13.4850,25.37323066,62.19095789,1065.486948
13.4900,24.42863021,62.66468612,1066.737691
13.4950,23.49164018,63.14297853,1067.996996
13.5000,22.56392789,63.62638363,1069.264174
13.5050,21.64541665,64.11576336,1070.538948
13.5100,20.7362224,64.6104194,1071.821192
13.5150,19.83562035,65.10999105,1073.110269
13.5200,18.94414324,65.61381205,1074.405851
13.5250,18.06074862,66.12184411,1075.707512
13.5300,17.18680434,66.63297229,1077.014762
13.5350,16.32159214,67.14768255,1078.327081
13.5400,15.46527108,67.66474579,1079.644106
13.5450,14.61718243,68.18405879,1080.965664
13.5500,13.77874429,68.70522752,1082.290933
13.5550,12.94818516,69.22608617,1083.619535
13.5600,12.12591445,69.74702326,1084.95119
13.5650,11.31254227,70.26765801,1086.286159
13.5700,10.50685571,70.78677805,1087.623495
13.5750,9.70977726,71.30257604,1088.963215
13.5800,8.92103423,71.81475633,1090.304748
13.5850,8.139118086,72.32177791,1091.647694
13.5900,7.364884762,72.82320131,1092.992155
13.5950,6.599259089,73.31836982,1094.33718
13.6000,5.841123878,73.80610209,1095.682757
13.6050,5.091068687,74.28586467,1097.029332
13.6100,4.3481086,74.75762117,1098.376062
13.6150,3.613157057,75.22142064,1099.722241
13.6200,2.885236039,75.67523809,1101.067621
13.6250,2.164366626,76.12010593,1102.412266
13.6300,1.449063758,76.55467526,1103.756095
13.6350,0.7399680589,76.98004995,1105.098617
13.6400,0.03609020899,77.39578733,1106.440141
13.6450,-0.6622536967,77.80415665,1107.780693
13.6500,-1.356970336,78.20493759,1109.120149
13.6550,-2.047861318,78.59759963,1110.458828
13.6600,-2.735026159,78.98324428,1111.796694
13.6650,-3.419997794,79.36124663,1113.134363
13.6700,-4.101997815,79.73278732,1114.471425
13.6750,-4.78150034,80.09780899,1115.808046
13.6800,-5.458491196,80.45642832,1117.144034
13.6850,-6.134168728,80.81064506,1118.47966
13.6900,-6.809466856,81.15922289,1119.814801
13.6950,-7.483530493,81.50367914,1121.149271
13.7000,-8.156061014,81.84376583,1122.483562
13.7050,-8.828917716,82.17924754,1123.817896
13.7100,-9.501983377,82.51216333,1125.152699
13.7150,-10.17393421,82.84068133,1126.486646
13.7200,-10.84458756,83.16684853,1127.819696
13.7250,-11.51484682,83.48933052,1129.15243
13.7300,-12.184783,83.80927164,1130.48404
13.7350,-12.8544276,84.12619102,1131.814032
13.7400,-13.52358778,84.44125831,1133.143408
