type,name,time_units,begin_time,frequency,count,units
signal_3d,"Noraxon MyoMotion-Trajectories-Body center of mass","s",0.0000,200,5088,"mm"

time,x,y,z
0.0000,2.066135706,18.77490602,1075.422813
0.0050,2.065837343,18.77350821,1075.42245
0.0100,2.06553879,18.77211037,1075.422087
0.0150,2.065240047,18.77071251,1075.421725
0.0200,2.064825025,18.7692248,1075.421349
0.0250,2.064283103,18.7676579,1075.420963
0.0300,2.063607716,18.76602243,1075.420572
0.0350,2.062797194,18.76432842,1075.420178
0.0400,2.061855216,18.76258491,1075.419786
0.0450,2.060791119,18.76079997,1075.419396
0.0500,2.059619969,18.7589807,1075.41901
0.0550,2.058361997,18.75713318,1075.418629
0.0600,2.057041501,18.75526238,1075.418252
0.0650,2.055685714,18.75337229,1075.417879
0.0700,2.054323846,18.75146599,1075.417509
0.0750,2.052986121,18.74954574,1075.417139
0.0800,2.05170268,18.74761315,1075.416768
0.0850,2.050502532,18.74566952,1075.416394
0.0900,2.049412738,18.74371638,1075.416014
0.0950,2.048457757,18.7417559,1075.415628
0.1000,2.047658775,18.73979116,1075.415233
0.1050,2.047032994,18.73782626,1075.41483
0.1100,2.046593039,18.73586639,1075.414418
0.1150,2.046346544,18.73391789,1075.413996
0.1200,2.046295976,18.73198811,1075.413567
0.1250,2.046438714,18.73008535,1075.413132
0.1300,2.046767401,18.7282189,1075.412693
0.1350,2.047270598,18.72639896,1075.412253
0.1400,2.047933511,18.72463627,1075.411814
0.1450,2.048738617,18.72294139,1075.411381
0.1500,2.049666248,18.72132378,1075.410956
0.1550,2.05087542,18.71732222,1075.409901
0.1600,2.052108578,18.71340398,1075.408863
0.1650,2.053362398,18.7096018,1075.407848
0.1700,2.054643158,18.70590828,1075.406854
0.1750,2.055894037,18.70228931,1075.405881
0.1800,2.057107752,18.69878009,1075.404934
0.1850,2.058304403,18.69533331,1075.404001
0.1900,2.059450352,18.69196169,1075.403086
0.1950,2.060500372,18.68866563,1075.402194
0.2000,2.061523957,18.6854245,1075.401314
0.2050,2.062521607,18.68225816,1075.400449
0.2100,2.063490957,18.67912568,1075.399591
0.2150,2.064358101,18.6760642,1075.398753
0.2200,2.065195848,18.67307389,1075.397933
0.2250,2.06595008,18.6701212,1075.397123
0.2300,2.066670123,18.66723447,1075.396327
0.2350,2.067296202,18.66437867,1075.395543
0.2400,2.067887131,18.66156324,1075.394769
0.2450,2.068418298,18.65877191,1075.394
0.2500,2.068941047,18.65603181,1075.393242
0.2550,2.069448753,18.65331451,1075.392489
0.2600,2.069949339,18.65065592,1075.391747
0.2650,2.07045598,18.64800418,1075.391004
0.2700,2.070931472,18.64537123,1075.390266
0.2750,2.071386031,18.64272442,1075.389526
0.2800,2.071782416,18.64009374,1075.388793
0.2850,2.072159032,18.63746361,1075.388061
0.2900,2.072505039,18.63485984,1075.387336
0.2950,2.072856449,18.63229311,1075.386618
0.3000,2.073187096,18.62975222,1075.385903
0.3050,2.073499887,18.62724833,1075.385199
0.3100,2.073791419,18.62473217,1075.384494
0.3150,2.074064982,18.62225634,1075.3838
0.3200,2.074357643,18.61981622,1075.383112
0.3250,2.074642264,18.61739395,1075.382428
0.3300,2.074902729,18.61502479,1075.38176
0.3350,2.075163032,18.61267612,1075.381099
0.3400,2.075413704,18.61038896,1075.380454
0.3450,2.075711926,18.60814017,1075.379814
0.3500,2.075987085,18.60593211,1075.379188
0.3550,2.076292569,18.60376429,1075.378572
0.3600,2.076608333,18.60166187,1075.377971
0.3650,2.076955486,18.59962516,1075.377383
0.3700,2.077325763,18.59766465,1075.376814
0.3750,2.07772339,18.59577864,1075.37626
0.3800,2.078135803,18.59397223,1075.375723
0.3850,2.078574387,18.5922531,1075.375207
0.3900,2.079011104,18.59063846,1075.374713
0.3950,2.079447857,18.58912812,1075.374247
0.4000,2.079822478,18.58771393,1075.373811
0.4050,2.080123491,18.58643146,1075.373412
0.4100,2.080350812,18.58525575,1075.373048
0.4150,2.080511258,18.58417063,1075.372711
0.4200,2.08060881,18.58323999,1075.372417
0.4250,2.080597292,18.58241895,1075.372158
0.4300,2.080463729,18.58174308,1075.371945
0.4350,2.080222603,18.58116954,1075.37177
0.4400,2.079850312,18.58069003,1075.371629
0.4450,2.07933215,18.580354,1075.371531
0.4500,2.078651933,18.58012295,1075.371475
0.4550,2.07783845,18.57997119,1075.371453
0.4600,2.076857775,18.57994027,1075.371474
0.4650,2.075760696,18.580009,1075.371532
0.4700,2.074507539,18.58019986,1075.371634
0.4750,2.073137942,18.5804715,1075.371766
0.4800,2.071632874,18.58085731,1075.371939
0.4850,2.06998436,18.58135707,1075.372152
0.4900,2.068211039,18.58194366,1075.372399
0.4950,2.066301377,18.58260167,1075.372676
0.5000,2.064254305,18.58336031,1075.372992
0.5050,2.062001246,18.58418859,1075.373346
0.5100,2.059579251,18.58506793,1075.373731
0.5150,2.057002965,18.5859713,1075.37414
0.5200,2.054220599,18.58689478,1075.374578
0.5250,2.051279918,18.58786574,1075.375044
0.5300,2.048187336,18.58881156,1075.375524
0.5350,2.044909561,18.58975981,1075.376023
0.5400,2.041448476,18.59067337,1075.376537
0.5450,2.037829695,18.59159621,1075.37707
0.5500,2.034040154,18.59247769,1075.377614
0.5550,2.030083167,18.59329891,1075.378164
0.5600,2.025994972,18.59405438,1075.378714
0.5650,2.021767364,18.59476318,1075.379271
0.5700,2.017424788,18.59544116,1075.379838
0.5750,2.012969635,18.59604117,1075.3804
0.5800,2.008432289,18.59656056,1075.380959
0.5850,2.003776097,18.59699822,1075.381516
0.5900,1.999038561,18.59735865,1075.382071
0.5950,1.994191687,18.59760983,1075.382619
0.6000,1.989233537,18.59774357,1075.383161
0.6050,1.984186981,18.59777317,1075.383695
0.6100,1.97905415,18.59770665,1075.384225
0.6150,1.973817019,18.59751867,1075.384746
0.6200,1.968468537,18.59722271,1075.385265
0.6250,1.963033165,18.59680358,1075.385778
0.6300,1.957524833,18.59627578,1075.386285
0.6350,1.951931763,18.59564814,1075.386792
0.6400,1.946250504,18.59489999,1075.387295
0.6450,1.940465963,18.59406552,1075.387805
0.6500,1.934631406,18.59311802,1075.388309
0.6550,1.92869017,18.59208644,1075.38882
0.6600,1.922713364,18.59095575,1075.389331
0.6650,1.916672133,18.58974164,1075.389847
0.6700,1.910562467,18.58843047,1075.390368
0.6750,1.904374429,18.58701192,1075.390894
0.6800,1.89812938,18.58550868,1075.391427
0.6850,1.891804708,18.58390136,1075.391965
0.6900,1.885420735,18.58217245,1075.392508
0.6950,1.878979509,18.58037473,1075.393063
0.7000,1.872521447,18.57847493,1075.39362
0.7050,1.866016811,18.57647979,1075.394184
0.7100,1.859480642,18.57439974,1075.394758
0.7150,1.852840288,18.57228447,1075.39536
0.7200,1.846034572,18.57008781,1075.395984
0.7250,1.839150868,18.56779714,1075.396626
0.7300,1.832135663,18.56542438,1075.397293
0.7350,1.824954311,18.5629919,1075.397991
0.7400,1.81762157,18.5605349,1075.398729
0.7450,1.810123041,18.55801539,1075.399504
0.7500,1.802498767,18.55544329,1075.400313
0.7550,1.794705535,18.55282979,1075.401164
0.7600,1.786728672,18.5501491,1075.40206
0.7650,1.778537148,18.54742155,1075.403008
0.7700,1.770171806,18.54459083,1075.403997
0.7750,1.761587449,18.54171433,1075.405042
0.7800,1.752838479,18.53877535,1075.40614
0.7850,1.743913027,18.53573871,1075.407288
0.7900,1.734863531,18.53262827,1075.408489
0.7950,1.725640258,18.52943234,1075.409747
0.8000,1.716265214,18.52614854,1075.411061
0.8050,1.70680502,18.52277346,1075.412428
0.8100,1.697266086,18.51936922,1075.413858
0.8150,1.687633104,18.51592974,1075.415358
0.8200,1.677936938,18.5124385,1075.416921
0.8250,1.668198976,18.50887128,1075.418551
0.8300,1.658405962,18.50526214,1075.420255
0.8350,1.648611113,18.50162732,1075.422036
0.8400,1.638809112,18.49791694,1075.423885
0.8450,1.629003429,18.49413127,1075.425808
0.8500,1.619205785,18.49028277,1075.427807
0.8550,1.609417126,18.48638738,1075.429888
0.8600,1.599652824,18.48242786,1075.432054
0.8650,1.589878091,18.47841252,1075.434309
0.8700,1.580160293,18.47432708,1075.436646
0.8750,1.570494326,18.47018095,1075.439077
0.8800,1.560873977,18.46595573,1075.441597
0.8850,1.551300637,18.46167578,1075.444217
0.8900,1.541806936,18.45728325,1075.446926
0.8950,1.532397639,18.452821,1075.449735
0.9000,1.523105944,18.44828728,1075.452647
0.9050,1.513933039,18.44370305,1075.455669
0.9100,1.504846553,18.43907167,1075.458808
0.9150,1.495863077,18.43440486,1075.462072
0.9200,1.486987335,18.42967589,1075.465455
0.9250,1.478225588,18.42495479,1075.468972
0.9300,1.46954956,18.42019358,1075.472622
0.9350,1.460974065,18.41544613,1075.476416
0.9400,1.452434119,18.41071809,1075.480361
0.9450,1.443932317,18.40597526,1075.484451
0.9500,1.435447551,18.40125291,1075.488698
0.9550,1.42696554,18.39657817,1075.493109
0.9600,1.418411276,18.39193244,1075.497685
0.9650,1.409773094,18.38732328,1075.502432
0.9700,1.401005951,18.38278095,1075.507355
0.9750,1.392124141,18.37828311,1075.512447
0.9800,1.383020954,18.37385886,1075.517721
0.9850,1.373743686,18.36951385,1075.523175
0.9900,1.364222505,18.36525415,1075.528813
0.9950,1.354436409,18.36104687,1075.534629
1.0000,1.344345957,18.35689553,1075.540631
1.0050,1.333919753,18.35284797,1075.546829
1.0100,1.323114868,18.34886137,1075.553214
1.0150,1.311985156,18.34492654,1075.559781
1.0200,1.300481858,18.34101574,1075.566531
1.0250,1.28854526,18.33714865,1075.573467
1.0300,1.276193154,18.33333446,1075.580593
1.0350,1.263437699,18.32955731,1075.587902
1.0400,1.250226728,18.32578651,1075.595396
1.0450,1.23659168,18.3220134,1075.603073
1.0500,1.222491095,18.31827832,1075.61094
1.0550,1.207971583,18.31454749,1075.618989
1.0600,1.193035787,18.31082192,1075.627217
1.0650,1.177724218,18.3071259,1075.635627
1.0700,1.162001771,18.30346983,1075.644223
1.0750,1.145889382,18.29984268,1075.652999
1.0800,1.129371697,18.29623594,1075.661954
1.0850,1.112469228,18.29268246,1075.671093
1.0900,1.095158835,18.28917783,1075.680411
1.0950,1.07751893,18.2857497,1075.689905
1.1000,1.059530513,18.28240036,1075.699576
1.1050,1.04123226,18.27913186,1075.70942
1.1100,1.02261663,18.27592008,1075.719435
1.1150,1.003757086,18.27278834,1075.729609
1.1200,0.9846631248,18.26974839,1075.739949
1.1250,0.96533573,18.26684107,1075.750451
1.1300,0.9457763387,18.26402534,1075.761112
1.1350,0.9260389513,18.26133592,1075.771928
1.1400,0.9061706182,18.25884198,1075.782902
1.1450,0.8861855263,18.25650451,1075.794035
1.1500,0.8661255485,18.25439226,1075.80533
1.1550,0.8460215357,18.25250058,1075.816785
1.1600,0.8259150537,18.25083495,1075.828394
1.1650,0.805883047,18.2494147,1075.840158
1.1700,0.7858946923,18.24822617,1075.852079
1.1750,0.7659971499,18.24730838,1075.864163
1.1800,0.7462366149,18.24666284,1075.876404
1.1850,0.7266381448,18.24629533,1075.8888
1.1900,0.7071930271,18.2462421,1075.90137
1.1950,0.6878991152,18.24646572,1075.914107
1.2000,0.6687510702,18.24696684,1075.927014
1.2050,0.6497878137,18.2477493,1075.940096
1.2100,0.6309960151,18.24885439,1075.953354
1.2150,0.612403244,18.25024471,1075.966787
1.2200,0.5940148686,18.25197103,1075.9804
1.2250,0.5758038902,18.25399346,1075.994193
1.2300,0.5577745356,18.25636087,1076.008169
1.2350,0.5399468088,18.25903991,1076.022331
1.2400,0.5223893768,18.26205554,1076.03667
1.2450,0.5050790889,18.26539048,1076.051193
1.2500,0.4879856488,18.26905178,1076.065902
1.2550,0.4711295285,18.27301063,1076.080797
1.2600,0.4545115813,18.27725734,1076.095877
1.2650,0.4381595908,18.28180602,1076.11114
1.2700,0.4220487741,18.28659299,1076.126587
1.2750,0.4061403481,18.29167906,1076.142235
1.2800,0.3904864799,18.29698373,1076.158063
1.2850,0.3750197321,18.30254195,1076.174092
1.2900,0.3597193193,18.30831609,1076.190325
1.2950,0.3445817554,18.31430464,1076.206765
1.3000,0.3296015671,18.32053426,1076.223413
1.3050,0.3147911836,18.32696225,1076.240266
1.3100,0.3001434177,18.33363183,1076.25733
1.3150,0.2856233552,18.34053066,1076.274612
1.3200,0.2712279296,18.34770179,1076.292109
1.3250,0.2569043359,18.35514139,1076.309841
1.3300,0.2426627034,18.36285531,1076.327795
1.3350,0.2284660874,18.37086373,1076.345982
1.3400,0.214342964,18.37917507,1076.364401
1.3450,0.2002771032,18.38779904,1076.383044
1.3500,0.1862458263,18.39673093,1076.401916
1.3550,0.1722029917,18.40597734,1076.421022
1.3600,0.1581708271,18.41554728,1076.440362
1.3650,0.1440882894,18.42542154,1076.459931
1.3700,0.1299802902,18.43560727,1076.479727
1.3750,0.1158786284,18.44606726,1076.499743
1.3800,0.1017727461,18.45676341,1076.519982
1.3850,0.08762731952,18.46770762,1076.540436
1.3900,0.07345993635,18.47884802,1076.561119
1.3950,0.05926468342,18.49018117,1076.582019
1.4000,0.04503230134,18.50166262,1076.603133
1.4050,0.03070893169,18.51329633,1076.624469
1.4100,0.01628342823,18.52504369,1076.646025
1.4150,0.001762664581,18.53692426,1076.667808
1.4200,-0.01286329077,18.54890647,1076.689803
1.4250,-0.0275724097,18.56098045,1076.712017
1.4300,-0.04234941333,18.57320086,1076.734451
1.4350,-0.05718572106,18.58552141,1076.757098
1.4400,-0.07214852333,18.59792017,1076.779967
1.4450,-0.0872477371,18.61040927,1076.803045
1.4500,-0.1024558676,18.62296189,1076.826329
1.4550,-0.1178141081,18.63554918,1076.849802
1.4600,-0.133330439,18.64817264,1076.873461
1.4650,-0.1490326857,18.66082332,1076.897297
1.4700,-0.1649098703,18.67353068,1076.921308
1.4750,-0.1809707683,18.68628089,1076.945483
1.4800,-0.197213376,18.6990914,1076.969829
1.4850,-0.2136202754,18.71191428,1076.99433
1.4900,-0.2302152933,18.72477644,1077.018983
1.4950,-0.2469741349,18.73767094,1077.043778
1.5000,-0.2638673131,18.75061938,1077.068713
1.5050,-0.2809382569,18.76357723,1077.093778
1.5100,-0.2981019925,18.7765289,1077.118963
1.5150,-0.3153840333,18.78946971,1077.144263
1.5200,-0.3327814257,18.80238688,1077.16968
1.5250,-0.3502938846,18.81528615,1077.195209
1.5300,-0.3679207402,18.82812875,1077.220845
1.5350,-0.3856574607,18.84093756,1077.246567
1.5400,-0.4035327338,18.85370621,1077.272393
1.5450,-0.4215433843,18.86641346,1077.298301
1.5500,-0.4396553901,18.87907099,1077.324291
1.5550,-0.4579039352,18.8916603,1077.35036
1.5600,-0.4762614211,18.90421971,1077.376505
1.5650,-0.494726442,18.91670225,1077.402715
1.5700,-0.5132968074,18.92913695,1077.428979
1.5750,-0.5320018357,18.94149749,1077.455296
1.5800,-0.5508336091,18.9538675,1077.481682
1.5850,-0.5697774779,18.96615009,1077.508099
1.5900,-0.5888014743,18.97839535,1077.534545
1.5950,-0.6079501939,18.99058701,1077.56102
1.6000,-0.6271957482,19.00270772,1077.587513
1.6050,-0.6465233638,19.01474884,1077.614011
1.6100,-0.6659065595,19.02669764,1077.640514
1.6150,-0.6853747595,19.03854556,1077.66701
1.6200,-0.7048718802,19.0503279,1077.693504
1.6250,-0.7243401564,19.06202827,1077.719974
1.6300,-0.7437869107,19.07361238,1077.74643
1.6350,-0.7631532878,19.08510467,1077.77286
1.6400,-0.782437032,19.09652915,1077.799262
1.6450,-0.8016398307,19.10785181,1077.825638
1.6500,-0.8207367886,19.11906086,1077.851982
1.6550,-0.8396515588,19.13018762,1077.878288
1.6600,-0.8584059785,19.14124699,1077.904564
1.6650,-0.8769332325,19.15220342,1077.930793
1.6700,-0.8952066483,19.16306867,1077.956965
1.6750,-0.9132375776,19.17386351,1077.983092
1.6800,-0.9309917879,19.18461094,1078.009157
1.6850,-0.9484637286,19.19528231,1078.035159
1.6900,-0.9656465684,19.2058974,1078.061072
1.6950,-0.9825722432,19.21643183,1078.086913
1.7000,-0.9992051443,19.22690358,1078.112677
1.7050,-1.015511033,19.23734841,1078.138354
1.7100,-1.031467748,19.24773348,1078.163942
1.7150,-1.047135344,19.25803549,1078.189427
1.7200,-1.062467947,19.26824498,1078.214809
1.7250,-1.07753158,19.27832373,1078.240075
1.7300,-1.092292119,19.28826889,1078.26522
1.7350,-1.106809713,19.29806407,1078.290257
1.7400,-1.121039177,19.30770551,1078.315175
1.7450,-1.13495639,19.31725637,1078.339977
1.7500,-1.148585318,19.32666707,1078.364656
1.7550,-1.161931209,19.33597714,1078.389231
1.7600,-1.174989641,19.34517996,1078.41371
1.7650,-1.187772275,19.35427435,1078.438089
1.7700,-1.20028321,19.3632261,1078.462357
1.7750,-1.212494406,19.37204728,1078.486523
1.7800,-1.22448302,19.38072637,1078.510589
1.7850,-1.236260336,19.38927179,1078.534578
1.7900,-1.24783321,19.39763491,1078.558469
1.7950,-1.25920945,19.40583249,1078.582279
1.8000,-1.270427023,19.41385435,1078.60601
1.8050,-1.281471622,19.42169397,1078.629656
1.8100,-1.292380903,19.42932966,1078.653228
1.8150,-1.303181627,19.43679623,1078.676735
1.8200,-1.313922059,19.4440994,1078.700181
1.8250,-1.324613068,19.45119499,1078.723566
1.8300,-1.33523073,19.45814696,1078.746892
1.8350,-1.345828672,19.46492335,1078.770176
1.8400,-1.356412279,19.47146396,1078.793396
1.8450,-1.3669921,19.47786944,1078.816574
1.8500,-1.377564567,19.48408969,1078.839706
1.8550,-1.38814396,19.49014639,1078.862793
1.8600,-1.398744384,19.49600369,1078.885834
1.8650,-1.409429116,19.50170246,1078.908843
1.8700,-1.420199242,19.50723291,1078.93183
1.8750,-1.431030769,19.51260685,1078.95478
1.8800,-1.441955106,19.51777292,1078.977687
1.8850,-1.452971989,19.52282331,1079.000587
1.8900,-1.464093308,19.52772084,1079.023457
1.8950,-1.47530098,19.53249128,1079.0463
1.9000,-1.486610073,19.53715848,1079.069126
1.9050,-1.498041952,19.5417454,1079.091941
1.9100,-1.509592503,19.54626248,1079.114759
1.9150,-1.521232661,19.55075335,1079.137579
1.9200,-1.532985658,19.5551848,1079.160405
1.9250,-1.544843382,19.55958809,1079.183239
1.9300,-1.556825759,19.56399586,1079.206089
1.9350,-1.568911996,19.56836662,1079.228955
1.9400,-1.581097787,19.57271548,1079.251826
1.9450,-1.593348449,19.57710827,1079.27472
1.9500,-1.605673713,19.58155831,1079.297643
1.9550,-1.618085986,19.58605279,1079.320593
1.9600,-1.630541412,19.59064276,1079.34357
1.9650,-1.643099472,19.59534653,1079.366588
1.9700,-1.655728119,19.6001524,1079.389648
1.9750,-1.668429418,19.60505306,1079.412749
1.9800,-1.681194589,19.61005412,1079.435887
1.9850,-1.693968009,19.61513592,1079.459059
1.9900,-1.706768963,19.62030311,1079.482279
1.9950,-1.719569205,19.62552016,1079.505519
2.0000,-1.732422143,19.63079892,1079.528789
2.0050,-1.745345173,19.63607966,1079.552084
2.0100,-1.758332126,19.64141018,1079.575399
2.0150,-1.771411653,19.64675403,1079.598746
2.0200,-1.784548468,19.65214591,1079.622113
2.0250,-1.797732152,19.6575982,1079.645508
2.0300,-1.810951158,19.6630951,1079.668912
2.0350,-1.824174801,19.66864369,1079.692322
2.0400,-1.837396535,19.67421839,1079.715724
2.0450,-1.850659652,19.67978403,1079.739116
2.0500,-1.863936771,19.68537779,1079.762504
2.0550,-1.877186747,19.69099509,1079.785872
2.0600,-1.890440108,19.69661989,1079.809213
2.0650,-1.903651474,19.70226173,1079.83253
2.0700,-1.916821409,19.70791628,1079.855834
2.0750,-1.929949246,19.7135968,1079.879115
2.0800,-1.943005011,19.719276,1079.902363
2.0850,-1.9559507,19.72499468,1079.925571
2.0900,-1.968773834,19.73077191,1079.948755
2.0950,-1.981494599,19.736609,1079.971913
2.1000,-1.994057896,19.74253636,1079.995049
2.1050,-2.0064758,19.74851198,1080.01816
2.1100,-2.018740754,19.75451856,1080.041231
2.1150,-2.030831251,19.76054807,1080.064259
2.1200,-2.042726543,19.76657259,1080.087235
2.1250,-2.054410276,19.77260332,1080.110161
2.1300,-2.065929158,19.7785826,1080.133035
2.1350,-2.077298623,19.78452193,1080.155855
2.1400,-2.088483124,19.79040259,1080.178606
2.1450,-2.099516254,19.79620494,1080.201294
2.1500,-2.110408373,19.80193234,1080.223919
2.1550,-2.121154924,19.80758886,1080.246468
2.1600,-2.131789731,19.81316224,1080.268955
2.1650,-2.142290737,19.81862019,1080.291369
2.1700,-2.152640759,19.82398762,1080.313692
2.1750,-2.162868818,19.82923715,1080.335941
2.1800,-2.172962887,19.83439408,1080.35812
2.1850,-2.182909169,19.83944538,1080.380205
2.1900,-2.192739237,19.84441835,1080.402224
2.1950,-2.202422673,19.84931681,1080.424169
2.2000,-2.211968154,19.85415411,1080.446052
2.2050,-2.221378625,19.85888793,1080.467872
2.2100,-2.230709317,19.86354801,1080.489633
2.2150,-2.239954105,19.86807115,1080.511335
2.2200,-2.249055466,19.87251392,1080.532963
2.2250,-2.25805987,19.87684923,1080.554523
2.2300,-2.266951063,19.88108838,1080.57601
2.2350,-2.275741495,19.88524314,1080.597434
2.2400,-2.284467205,19.8893411,1080.618815
2.2450,-2.293125342,19.89335323,1080.640139
2.2500,-2.301723665,19.89727595,1080.661395
2.2550,-2.310275509,19.90113349,1080.682589
2.2600,-2.318758771,19.90489525,1080.703714
2.2650,-2.327168324,19.90855184,1080.724766
2.2700,-2.335539686,19.91213068,1080.745758
2.2750,-2.343866189,19.91562456,1080.766678
2.2800,-2.352148786,19.91906438,1080.787543
2.2850,-2.360412679,19.92244529,1080.808334
2.2900,-2.368658029,19.92580894,1080.829076
2.2950,-2.376884002,19.92918114,1080.849778
2.3000,-2.385046528,19.93254497,1080.870415
2.3050,-2.393156308,19.93592106,1080.891006
2.3100,-2.401229649,19.93929758,1080.911552
2.3150,-2.409255443,19.94271155,1080.932053
2.3200,-2.41724304,19.94613955,1080.952522
2.3250,-2.425183977,19.94961226,1080.972957
2.3300,-2.433078143,19.95311059,1080.993371
2.3350,-2.44092054,19.95660569,1081.013749
2.3400,-2.448726405,19.96013872,1081.034111
2.3450,-2.456444066,19.96371481,1081.054449
2.3500,-2.464114888,19.96729545,1081.074768
2.3550,-2.471770472,19.97088183,1081.095084
2.3600,-2.479362736,19.97447717,1081.115389
2.3650,-2.486933767,19.97807486,1081.13568
2.3700,-2.494505216,19.98163236,1081.155955
2.3750,-2.502067673,19.9851625,1081.176223
2.3800,-2.50961766,19.98865959,1081.196493
2.3850,-2.517225056,19.99211782,1081.216763
2.3900,-2.524866095,19.9955344,1081.237031
2.3950,-2.532499974,19.9988764,1081.257292
2.4000,-2.54016635,20.00213832,1081.277562
2.4050,-2.547875981,20.00534512,1081.297841
2.4100,-2.555650926,20.00852616,1081.318155
2.4150,-2.563459171,20.01165081,1081.338476
2.4200,-2.571319728,20.01473806,1081.358834
2.4250,-2.579214897,20.01778432,1081.37921
2.4300,-2.587137797,20.02080257,1081.399617
2.4350,-2.595086735,20.02378678,1081.420045
2.4400,-2.603102115,20.02679131,1081.440531
2.4450,-2.611147232,20.02976883,1081.461055
2.4500,-2.619259412,20.03273412,1081.481622
2.4550,-2.627425837,20.03566517,1081.502233
2.4600,-2.635624552,20.03858989,1081.522892
2.4650,-2.643828162,20.04153027,1081.543585
2.4700,-2.652078108,20.0444525,1081.564338
2.4750,-2.660360422,20.0473727,1081.585122
2.4800,-2.668703606,20.05027979,1081.60594
2.4850,-2.677125641,20.05317138,1081.626801
2.4900,-2.68561539,20.0560216,1081.647698
2.4950,-2.694191197,20.05883872,1081.668641
2.5000,-2.70287625,20.0616336,1081.689624
2.5050,-2.711660975,20.06443418,1081.710655
2.5100,-2.720484248,20.0672518,1081.731716
2.5150,-2.729359308,20.07010846,1081.752813
2.5200,-2.738318042,20.07299749,1081.773965
2.5250,-2.74729856,20.07595952,1081.795162
2.5300,-2.756331918,20.07898538,1081.816409
2.5350,-2.765378473,20.08211666,1081.837697
2.5400,-2.774446397,20.08532289,1081.85902
2.5450,-2.783515889,20.08860964,1081.880375
2.5500,-2.792554595,20.09200416,1081.901775
2.5550,-2.801557955,20.09549983,1081.923213
2.5600,-2.810565245,20.09904369,1081.944674
2.5650,-2.819524269,20.10266091,1081.966135
2.5700,-2.828450174,20.10634536,1081.987599
2.5750,-2.837351312,20.11010372,1082.009057
2.5800,-2.846242027,20.1139132,1082.030508
2.5850,-2.855126657,20.11775006,1082.051945
2.5900,-2.863995748,20.12162058,1082.07335
2.5950,-2.872861573,20.12552748,1082.094721
2.6000,-2.881711609,20.12941944,1082.11605
2.6050,-2.890601252,20.1333456,1082.137347
2.6100,-2.899500005,20.13727416,1082.158597
2.6150,-2.908410959,20.14118718,1082.17979
2.6200,-2.917364577,20.14513747,1082.200948
2.6250,-2.926360223,20.14908419,1082.222074
2.6300,-2.935393649,20.15304171,1082.243149
2.6350,-2.944481446,20.15706778,1082.264203
2.6400,-2.953591386,20.16110239,1082.285207
2.6450,-2.962714972,20.16514642,1082.30616
2.6500,-2.971833811,20.16920309,1082.327058
2.6550,-2.980920513,20.17328986,1082.347894
2.6600,-2.990003093,20.17741195,1082.368688
2.6650,-2.999048125,20.18156727,1082.389432
2.6700,-3.008028071,20.18576935,1082.410122
2.6750,-3.01700083,20.1899972,1082.43076
2.6800,-3.025924211,20.1942494,1082.451336
2.6850,-3.034738111,20.19849542,1082.471837
2.6900,-3.043469039,20.20272211,1082.492258
2.6950,-3.052118624,20.20693839,1082.512618
2.7000,-3.060681172,20.21111614,1082.532891
2.7050,-3.069168602,20.2152564,1082.553091
2.7100,-3.07754137,20.21932923,1082.573211
2.7150,-3.085857177,20.2233381,1082.593275
2.7200,-3.094064093,20.22727853,1082.613256
2.7250,-3.102187691,20.23111088,1082.633171
2.7300,-3.110185491,20.23485245,1082.653004
2.7350,-3.118030549,20.23849214,1082.672753
2.7400,-3.125699472,20.24197891,1082.692396
2.7450,-3.133202763,20.24533414,1082.711957
2.7500,-3.140514818,20.24852964,1082.73141
2.7550,-3.147593779,20.2516281,1082.750773
2.7600,-3.154443802,20.25463516,1082.77004
2.7650,-3.161032567,20.25754547,1082.789223
2.7700,-3.167333403,20.26036759,1082.808298
2.7750,-3.173295902,20.2631058,1082.827258
2.7800,-3.178942072,20.26575212,1082.846108
2.7850,-3.184286255,20.26834783,1082.864857
2.7900,-3.189303829,20.27085925,1082.883478
2.7950,-3.19401148,20.27332787,1082.901982
2.8000,-3.198408273,20.2757284,1082.920349
2.8050,-3.202498144,20.27806294,1082.938567
2.8100,-3.206308721,20.28032361,1082.956647
2.8150,-3.209859438,20.28251168,1082.974579
2.8200,-3.213210661,20.28461838,1082.992368
2.8250,-3.216439,20.28663798,1083.01002
2.8300,-3.219531462,20.28859119,1083.027535
2.8350,-3.222563303,20.2904424,1083.044921
2.8400,-3.225547111,20.29219947,1083.062184
2.8450,-3.228535684,20.29386206,1083.079329
2.8500,-3.231536711,20.29539218,1083.09634
2.8550,-3.234555864,20.29680518,1083.113228
2.8600,-3.237611837,20.29814639,1083.130007
2.8650,-3.240744064,20.29936727,1083.146693
2.8700,-3.243924994,20.30051231,1083.163284
2.8750,-3.247187718,20.30158967,1083.179811
2.8800,-3.250525662,20.30257905,1083.196254
2.8850,-3.253948006,20.30352159,1083.212647
2.8900,-3.257483661,20.304373,1083.228987
2.8950,-3.261148541,20.30514774,1083.245292
2.9000,-3.264935819,20.30589562,1083.261576
2.9050,-3.268790064,20.30657207,1083.277836
2.9100,-3.272789728,20.30721895,1083.294097
2.9150,-3.276872734,20.30784626,1083.310354
2.9200,-3.281073205,20.30840449,1083.326594
2.9250,-3.285380562,20.30893803,1083.342828
2.9300,-3.289806826,20.30941266,1083.359064
2.9350,-3.294390869,20.30984798,1083.375314
2.9400,-3.299130901,20.31026078,1083.391584
2.9450,-3.304070273,20.31067663,1083.407903
2.9500,-3.309224153,20.31108854,1083.424262
2.9550,-3.314590849,20.31145783,1083.440654
2.9600,-3.320202679,20.31182323,1083.457101
2.9650,-3.326049133,20.31215904,1083.473592
2.9700,-3.332131606,20.31249452,1083.490117
2.9750,-3.338404301,20.31281292,1083.506677
2.9800,-3.344914007,20.31309767,1083.52327
2.9850,-3.351639831,20.31337597,1083.539906
2.9900,-3.358563039,20.31365538,1083.556579
2.9950,-3.365704147,20.3139485,1083.573286
3.0000,-3.373024939,20.31421336,1083.589997
3.0050,-3.380476722,20.31445476,1083.606699
3.0100,-3.388089316,20.31466883,1083.623389
3.0150,-3.395815,20.31489645,1083.640065
3.0200,-3.403676063,20.31511021,1083.656729
3.0250,-3.411625542,20.315352,1083.673365
3.0300,-3.419712875,20.31560087,1083.689981
3.0350,-3.427913491,20.31584233,1083.706576
3.0400,-3.436215915,20.31613099,1083.723152
3.0450,-3.444631269,20.31642491,1083.739689
3.0500,-3.45312677,20.31675991,1083.756196
3.0550,-3.461722731,20.3170873,1083.772651
3.0600,-3.470392731,20.31744001,1083.789057
3.0650,-3.479185998,20.3177887,1083.805415
3.0700,-3.48804471,20.31816973,1083.821719
3.0750,-3.497001534,20.31858252,1083.837981
3.0800,-3.505979662,20.3190444,1083.85417
3.0850,-3.514967397,20.31951913,1083.870274
3.0900,-3.523966147,20.32003532,1083.886296
3.0950,-3.532959142,20.32055028,1083.902204
3.1000,-3.541902142,20.32108901,1083.917996
3.1050,-3.550782323,20.32165659,1083.933669
3.1100,-3.55964012,20.32225681,1083.949221
3.1150,-3.568429058,20.32287014,1083.964645
3.1200,-3.577133722,20.32349517,1083.979925
3.1250,-3.585696277,20.32411976,1083.995038
3.1300,-3.594128662,20.32472824,1084.009986
3.1350,-3.602412184,20.32532977,1084.024766
3.1400,-3.610532002,20.32591717,1084.039357
3.1450,-3.618440193,20.32649181,1084.053747
3.1500,-3.626166924,20.3270898,1084.067962
3.1550,-3.633706098,20.3276634,1084.081974
3.1600,-3.641089283,20.32820567,1084.095794
3.1650,-3.648296943,20.32872678,1084.109416
3.1700,-3.655326608,20.32918141,1084.122834
3.1750,-3.662140185,20.32958274,1084.136028
3.1800,-3.668760948,20.32991424,1084.149007
3.1850,-3.67517828,20.33017365,1084.161782
3.1900,-3.681385257,20.3303671,1084.174335
3.1950,-3.687364798,20.33048816,1084.186671
3.2000,-3.693176652,20.3305381,1084.19881
3.2050,-3.698789765,20.33053752,1084.21074
3.2100,-3.704177253,20.33046123,1084.22245
3.2150,-3.709356352,20.33029183,1084.233938
3.2200,-3.714339965,20.33006052,1084.245231
3.2250,-3.719127174,20.32978657,1084.256326
3.2300,-3.723743741,20.32949328,1084.267243
3.2350,-3.728165601,20.32918104,1084.277972
3.2400,-3.7324374,20.32886732,1084.288544
3.2450,-3.736532702,20.32852058,1084.298931
3.2500,-3.740450697,20.32822014,1084.30916
3.2550,-3.744195104,20.32798788,1084.319235
3.2600,-3.747774377,20.32776015,1084.329124
3.2650,-3.751188738,20.32759306,1084.338862
3.2700,-3.754457134,20.32749102,1084.348458
3.2750,-3.757623036,20.32746396,1084.35793
3.2800,-3.760620503,20.32755367,1084.367274
3.2850,-3.763529358,20.32768753,1084.37648
3.2900,-3.766315648,20.32789233,1084.385552
3.2950,-3.769005394,20.32814647,1084.394497
3.3000,-3.771639049,20.32849367,1084.403356
3.3050,-3.774156261,20.3289376,1084.412114
3.3100,-3.776585378,20.32947405,1084.420772
3.3150,-3.778917099,20.33006554,1084.429327
3.3200,-3.781141853,20.3306912,1084.437764
3.3250,-3.783293286,20.33137415,1084.446118
3.3300,-3.785340227,20.33206523,1084.45436
3.3350,-3.78729053,20.33278584,1084.462502
3.3400,-3.789168277,20.33348935,1084.470559
3.3450,-3.790944161,20.33420101,1084.478523
3.3500,-3.792642447,20.33492195,1084.48642
3.3550,-3.794295711,20.33564161,1084.49426
3.3600,-3.7958636,20.3363195,1084.502024
3.3650,-3.797333725,20.33701399,1084.509732
3.3700,-3.798750212,20.33767855,1084.51739
3.3750,-3.800074797,20.33834828,1084.524991
3.3800,-3.801358503,20.3389785,1084.532548
3.3850,-3.802563275,20.33958085,1084.540048
3.3900,-3.803714993,20.34017666,1084.547515
3.3950,-3.804820559,20.34079371,1084.554973
3.4000,-3.805926789,20.34138873,1084.56244
3.4050,-3.807038116,20.34198343,1084.569918
3.4100,-3.808115187,20.34255361,1084.577399
3.4150,-3.80922791,20.34311606,1084.584902
3.4200,-3.810328298,20.34364418,1084.592413
3.4250,-3.811445912,20.3441446,1084.599948
3.4300,-3.812563307,20.3446223,1084.607488
3.4350,-3.813674162,20.345074,1084.61504
3.4400,-3.814767246,20.34549095,1084.622597
3.4450,-3.815917922,20.34587488,1084.630186
3.4500,-3.817146054,20.3461998,1084.637796
3.4550,-3.818442832,20.34649355,1084.645444
3.4600,-3.819768762,20.34674557,1084.653111
3.4650,-3.821207792,20.34695914,1084.66083
3.4700,-3.822744757,20.34715672,1084.668586
3.4750,-3.824395038,20.3473493,1084.676396
3.4800,-3.826102669,20.34752226,1084.684231
3.4850,-3.827906999,20.34769769,1084.692089
3.4900,-3.829815456,20.34786244,1084.699994
3.4950,-3.831837403,20.34805151,1084.707943
3.5000,-3.833955434,20.34824712,1084.715919
3.5050,-3.836172451,20.34846791,1084.723924
3.5100,-3.838506937,20.3487326,1084.731974
3.5150,-3.840985596,20.34904719,1084.740075
3.5200,-3.843598873,20.34941666,1084.748218
3.5250,-3.846304476,20.3498328,1084.756381
3.5300,-3.84916448,20.35027394,1084.764581
3.5350,-3.852133869,20.3507571,1084.772786
3.5400,-3.855150237,20.35131046,1084.780978
3.5450,-3.858239798,20.35192302,1084.789161
3.5500,-3.861400952,20.35254192,1084.797326
3.5550,-3.86461097,20.35315949,1084.805452
3.5600,-3.867790194,20.3537901,1084.813505
3.5650,-3.870974244,20.35442687,1084.821501
3.5700,-3.874122792,20.35505463,1084.829415
3.5750,-3.877191201,20.35565981,1084.837218
3.5800,-3.880190257,20.35623357,1084.844908
3.5850,-3.883049853,20.35679405,1084.85248
3.5900,-3.885774858,20.35730044,1084.859917
3.5950,-3.888338168,20.35776551,1084.867213
3.6000,-3.890688263,20.35817251,1084.874349
3.6050,-3.892909232,20.35846693,1084.881333
3.6100,-3.894946906,20.35867223,1084.888166
3.6150,-3.896805521,20.35878768,1084.894844
3.6200,-3.89851545,20.35882268,1084.901399
3.6250,-3.900084526,20.35874577,1084.90782
3.6300,-3.901499492,20.35857508,1084.914128
3.6350,-3.902787449,20.35829719,1084.920323
3.6400,-3.903957884,20.35793238,1084.926413
3.6450,-3.905008507,20.35745947,1084.93241
3.6500,-3.90593084,20.35687499,1084.938314
3.6550,-3.906722515,20.35617577,1084.944133
3.6600,-3.907437258,20.35539255,1084.949905
3.6650,-3.908122321,20.35449168,1084.955638
3.6700,-3.908788189,20.35352204,1084.961375
3.6750,-3.909508079,20.35247834,1084.967171
3.6800,-3.910226482,20.35143574,1084.973035
3.6850,-3.910995036,20.35040034,1084.979004
3.6900,-3.91177813,20.34938899,1084.98508
3.6950,-3.912575071,20.34841592,1084.991274
3.7000,-3.91339339,20.34749581,1084.997596
3.7050,-3.914258215,20.34664113,1085.004077
3.7100,-3.915205607,20.34589643,1085.010761
3.7150,-3.916267093,20.34527339,1085.017674
3.7200,-3.917483305,20.34482407,1085.024872
3.7250,-3.918881359,20.34459714,1085.032387
3.7300,-3.920495086,20.34461306,1085.04025
3.7350,-3.922379102,20.34489991,1085.048493
3.7400,-3.924530017,20.34547439,1085.057141
3.7450,-3.92694859,20.34635097,1085.066182
3.7500,-3.929604512,20.34755071,1085.075608
3.7550,-3.932574487,20.34908308,1085.08545
3.7600,-3.935865267,20.35098112,1085.095726
3.7650,-3.939433806,20.35327719,1085.106412
3.7700,-3.943350885,20.35595426,1085.117547
3.7750,-3.947589033,20.35896117,1085.129069
3.7800,-3.952176968,20.36235126,1085.141011
3.7850,-3.957104824,20.36607645,1085.153344
3.7900,-3.962329587,20.37019634,1085.16605
3.7950,-3.967817645,20.37464865,1085.179087
3.8000,-3.9735695,20.37945629,1085.192459
3.8050,-3.979556983,20.38456578,1085.206113
3.8100,-3.9857164,20.38998123,1085.220011
3.8150,-3.99200962,20.39570432,1085.23413
3.8200,-3.998392399,20.40168646,1085.248418
3.8250,-4.004862755,20.40791223,1085.262839
3.8300,-4.011342629,20.4143742,1085.277344
3.8350,-4.017781615,20.42104371,1085.291897
3.8400,-4.024195771,20.42785243,1085.306461
3.8450,-4.030542673,20.43474862,1085.320984
3.8500,-4.036819542,20.44168961,1085.335422
3.8550,-4.042986687,20.4486972,1085.349771
3.8600,-4.049071606,20.45570885,1085.364007
3.8650,-4.055014992,20.46270218,1085.378065
3.8700,-4.06081023,20.46964253,1085.391932
3.8750,-4.066450131,20.4765015,1085.40557
3.8800,-4.071942103,20.48323211,1085.418965
3.8850,-4.077256544,20.48982276,1085.432081
3.8900,-4.082379604,20.4962403,1085.444887
3.8950,-4.087315467,20.50243049,1085.457346
3.9000,-4.092057749,20.50837199,1085.469449
3.9050,-4.096591391,20.51404114,1085.481159
3.9100,-4.100897365,20.51939542,1085.492453
3.9150,-4.105008731,20.52437765,1085.503307
3.9200,-4.108867587,20.5290341,1085.513713
3.9250,-4.112448524,20.53330814,1085.523635
3.9300,-4.115742469,20.53720456,1085.533062
3.9350,-4.118768892,20.54067886,1085.542
3.9400,-4.121514146,20.54372281,1085.550448
3.9450,-4.12398531,20.5463685,1085.558411
3.9500,-4.126221444,20.54856067,1085.565885
3.9550,-4.12824898,20.55035523,1085.572915
3.9600,-4.130053475,20.55171341,1085.579489
3.9650,-4.131581822,20.55266302,1085.585593
3.9700,-4.132820259,20.55318976,1085.59122
3.9750,-4.133735423,20.55329689,1085.596351
3.9800,-4.13438243,20.5529803,1085.601028
3.9850,-4.134744743,20.55223764,1085.605243
3.9900,-4.134852871,20.55111229,1085.60904
3.9950,-4.134727997,20.54958339,1085.612429
4.0000,-4.134389333,20.54772313,1085.615471
4.0050,-4.133825725,20.54553246,1085.618159
4.0100,-4.13307469,20.54300739,1085.620521
4.0150,-4.132064661,20.5402262,1085.622577
4.0200,-4.130826931,20.53717182,1085.62432
4.0250,-4.12936476,20.53385275,1085.625777
4.0300,-4.12772383,20.53029969,1085.626991
4.0350,-4.12590275,20.52651238,1085.627974
4.0400,-4.123994849,20.52251366,1085.628768
4.0450,-4.122015439,20.51832128,1085.629417
4.0500,-4.119993933,20.51397122,1085.629968
4.0550,-4.11793751,20.50950873,1085.630441
4.0600,-4.115903548,20.50488746,1085.630848
4.0650,-4.113891668,20.50015853,1085.631218
4.0700,-4.111899711,20.49533069,1085.631542
4.0750,-4.110010611,20.49048325,1085.63192
4.0800,-4.10822177,20.48560341,1085.632335
4.0850,-4.106554402,20.48076736,1085.632834
4.0900,-4.105026716,20.47594963,1085.633418
4.0950,-4.103641676,20.47120914,1085.634099
4.1000,-4.102430301,20.46657803,1085.634901
4.1050,-4.101394645,20.46208455,1085.635832
4.1100,-4.100544936,20.4577407,1085.636896
4.1150,-4.099881526,20.45357381,1085.638096
4.1200,-4.099450875,20.44959631,1085.639452
4.1250,-4.09921724,20.44581243,1085.64095
4.1300,-4.099169546,20.44226008,1085.642588
4.1350,-4.099340671,20.4389521,1085.644369
4.1400,-4.099731674,20.43589762,1085.646288
4.1450,-4.100311936,20.43314144,1085.648349
4.1500,-4.101091864,20.43071872,1085.650553
4.1550,-4.10207284,20.42858581,1085.652868
4.1600,-4.103238449,20.42675455,1085.655275
4.1650,-4.104610035,20.4252125,1085.657782
4.1700,-4.106171543,20.42394566,1085.660348
4.1750,-4.107884527,20.42296517,1085.662959
4.1800,-4.109764747,20.42223758,1085.665589
4.1850,-4.111792896,20.42177047,1085.668224
4.1900,-4.113988963,20.42153969,1085.670853
4.1950,-4.116282914,20.42153166,1085.673427
4.2000,-4.118724472,20.4216989,1085.675932
4.2050,-4.121274255,20.42205852,1085.678366
4.2100,-4.123920414,20.42259308,1085.680693
4.2150,-4.126599594,20.42330534,1085.682879
4.2200,-4.129364269,20.42411587,1085.684896
4.2250,-4.132164831,20.42502152,1085.686715
4.2300,-4.135009611,20.42600139,1085.68833
4.2350,-4.137903362,20.42708526,1085.689736
4.2400,-4.140822593,20.42823492,1085.690896
4.2450,-4.143763694,20.42941339,1085.691787
4.2500,-4.146725568,20.43065419,1085.692415
4.2550,-4.149608737,20.43190249,1085.692707
4.2600,-4.15244397,20.43316354,1085.692667
4.2650,-4.15523568,20.43441962,1085.692294
4.2700,-4.157975614,20.43569357,1085.69159
4.2750,-4.160638481,20.43693638,1085.690521
4.2800,-4.163259449,20.43816579,1085.689097
4.2850,-4.165819688,20.43936808,1085.687313
4.2900,-4.168304165,20.4405208,1085.685149
4.2950,-4.170697947,20.44162546,1085.682601
4.3000,-4.172993378,20.44265878,1085.679648
4.3050,-4.175176086,20.44363152,1085.676294
4.3100,-4.177223085,20.44452879,1085.672527
4.3150,-4.179142291,20.44529958,1085.668314
4.3200,-4.180939041,20.44599834,1085.663694
4.3250,-4.182602992,20.44660031,1085.65865
4.3300,-4.184114919,20.447105,1085.653188
4.3350,-4.185504935,20.44754947,1085.647326
4.3400,-4.186709836,20.44794591,1085.641064
4.3450,-4.187720558,20.44831791,1085.634401
4.3500,-4.188564507,20.44861936,1085.627336
4.3550,-4.189236932,20.44886214,1085.619881
4.3600,-4.189723985,20.44911852,1085.612062
4.3650,-4.190039916,20.44938186,1085.603902
4.3700,-4.190208804,20.44965794,1085.595416
4.3750,-4.190178187,20.44994976,1085.586585
4.3800,-4.19001756,20.45025493,1085.577454
4.3850,-4.189693537,20.45056156,1085.568007
4.3900,-4.18927924,20.45089488,1085.558294
4.3950,-4.188807602,20.45123589,1085.548352
4.4000,-4.18824863,20.45158652,1085.538168
4.4050,-4.187644204,20.4519418,1085.527768
4.4100,-4.187028887,20.45230156,1085.517189
4.4150,-4.186389154,20.45266009,1085.506415
4.4200,-4.185696254,20.45303753,1085.495451
4.4250,-4.18501145,20.45343939,1085.484335
4.4300,-4.184312873,20.45384602,1085.473066
4.4350,-4.183606881,20.45422437,1085.461648
4.4400,-4.182911056,20.45460225,1085.450108
4.4450,-4.182243329,20.45495371,1085.438447
4.4500,-4.181592915,20.4552734,1085.426671
4.4550,-4.180998472,20.4555688,1085.414805
4.4600,-4.180461158,20.45587146,1085.402881
4.4650,-4.179990894,20.45615865,1085.390885
4.4700,-4.17959926,20.45639847,1085.378828
4.4750,-4.179278272,20.45659577,1085.366704
4.4800,-4.179031124,20.45675356,1085.354529
4.4850,-4.178862704,20.45686302,1085.342306
4.4900,-4.178740721,20.45693891,1085.330027
4.4950,-4.178688863,20.45697302,1085.317709
4.5000,-4.178673843,20.45698362,1085.305334
4.5050,-4.178699731,20.45696183,1085.292909
4.5100,-4.178802126,20.4568823,1085.280441
4.5150,-4.178968106,20.45674714,1085.267932
4.5200,-4.179165833,20.45657799,1085.255376
4.5250,-4.179467665,20.45638593,1085.24281
4.5300,-4.179849649,20.45614397,1085.230207
4.5350,-4.180272564,20.45584542,1085.217561
4.5400,-4.180707442,20.45551933,1085.20487
4.5450,-4.181168288,20.45519515,1085.192153
4.5500,-4.181637457,20.45487341,1085.179406
4.5550,-4.182126531,20.45455644,1085.166632
4.5600,-4.182581282,20.45426778,1085.15382
4.5650,-4.183000597,20.45400338,1085.140963
4.5700,-4.183387062,20.45376724,1085.12807
4.5750,-4.183757471,20.45362817,1085.11517
4.5800,-4.184061315,20.45352532,1085.102235
4.5850,-4.184308629,20.45347386,1085.08926
4.5900,-4.184529278,20.45352074,1085.076286
4.5950,-4.184685095,20.45365017,1085.063285
4.6000,-4.184770213,20.45385127,1085.050258
4.6050,-4.184804716,20.45410607,1085.037205
4.6100,-4.184723756,20.45448432,1085.024134
4.6150,-4.184601086,20.45495819,1085.011061
4.6200,-4.184389122,20.45551546,1084.997972
4.6250,-4.184101692,20.45617349,1084.984872
4.6300,-4.183693154,20.45692079,1084.971722
4.6350,-4.183157054,20.45773352,1084.958536
4.6400,-4.182528181,20.45858472,1084.945296
4.6450,-4.181784367,20.45948286,1084.932001
4.6500,-4.180946469,20.46046055,1084.918673
4.6550,-4.180011504,20.46150243,1084.905308
4.6600,-4.178969446,20.46260208,1084.891901
4.6650,-4.177830398,20.46373851,1084.878438
4.6700,-4.176577227,20.46495105,1084.864931
4.6750,-4.175263817,20.46616821,1084.851374
4.6800,-4.173833968,20.46742016,1084.837759
4.6850,-4.172340612,20.46869088,1084.824096
4.6900,-4.170769708,20.46996701,1084.81038
4.6950,-4.16909093,20.47126311,1084.796597
4.7000,-4.167339438,20.47256046,1084.782753
4.7050,-4.165501747,20.47387358,1084.768859
4.7100,-4.163590968,20.47520103,1084.754891
4.7150,-4.161658288,20.47653144,1084.740892
4.7200,-4.159710614,20.47785952,1084.72685
4.7250,-4.157762081,20.479178,1084.712775
4.7300,-4.155820676,20.48050179,1084.698651
4.7350,-4.153881253,20.48183997,1084.68448
4.7400,-4.151901956,20.48319002,1084.670255
4.7450,-4.14989836,20.48456247,1084.655975
4.7500,-4.147862719,20.48596335,1084.641637
4.7550,-4.145790821,20.48735491,1084.627216
4.7600,-4.143671847,20.48873731,1084.612709
4.7650,-4.141535638,20.49008751,1084.598108
4.7700,-4.139386041,20.4914848,1084.583448
4.7750,-4.13721578,20.49289621,1084.568707
4.7800,-4.135044217,20.49436567,1084.553905
4.7850,-4.132869725,20.49583986,1084.539025
4.7900,-4.130739572,20.49732703,1084.524086
4.7950,-4.128635588,20.4988624,1084.509079
4.8000,-4.126519952,20.50042239,1084.493993
4.8050,-4.124397198,20.50202603,1084.478814
4.8100,-4.122267286,20.50367328,1084.463538
4.8150,-4.120148062,20.50532817,1084.448149
4.8200,-4.118066845,20.5069787,1084.432643
4.8250,-4.115997772,20.50862714,1084.417011
4.8300,-4.113959951,20.51028626,1084.401261
4.8350,-4.111949646,20.51194903,1084.385371
4.8400,-4.109981385,20.51364042,1084.36937
4.8450,-4.107980042,20.51538271,1084.353227
4.8500,-4.105972121,20.51717354,1084.336956
4.8550,-4.103958736,20.51904419,1084.320554
4.8600,-4.101935923,20.52098358,1084.304011
4.8650,-4.099888444,20.52303467,1084.287343
4.8700,-4.097810195,20.52518885,1084.270523
4.8750,-4.095687176,20.5274331,1084.253541
4.8800,-4.09352372,20.5297998,1084.23639
4.8850,-4.091317383,20.5323105,1084.219092
4.8900,-4.089039275,20.5348641,1084.20158
4.8950,-4.086719466,20.53753092,1084.183896
4.9000,-4.084343882,20.54029282,1084.166006
4.9050,-4.081922284,20.54315415,1084.147917
4.9100,-4.079464269,20.5460448,1084.12958
4.9150,-4.07693602,20.54900502,1084.111019
4.9200,-4.0743333,20.55202785,1084.092204
4.9250,-4.071687888,20.55510327,1084.073154
4.9300,-4.069051195,20.55821722,1084.053878
4.9350,-4.066374238,20.56139122,1084.034348
4.9400,-4.063669025,20.56463026,1084.01458
4.9450,-4.060950884,20.56792128,1083.994571
4.9500,-4.058207719,20.5712541,1083.974322
4.9550,-4.055443754,20.5746138,1083.953817
4.9600,-4.052669749,20.57797693,1083.933036
4.9650,-4.049931382,20.58130673,1083.911994
4.9700,-4.047220334,20.58456606,1083.890681
4.9750,-4.044504806,20.58780291,1083.869095
4.9800,-4.041803447,20.59101729,1083.847259
4.9850,-4.039076606,20.59423312,1083.825151
4.9900,-4.036276137,20.59745277,1083.802756
4.9950,-4.033399862,20.60065604,1083.780053
5.0000,-4.030435329,20.60383729,1083.757048
5.0050,-4.027388677,20.60702367,1083.733742
5.0100,-4.024253859,20.61015741,1083.710116
5.0150,-4.021004284,20.61327333,1083.686154
5.0200,-4.017654894,20.61632846,1083.661874
5.0250,-4.014191463,20.61932524,1083.637266
5.0300,-4.010609253,20.62223264,1083.612338
5.0350,-4.006973571,20.62505062,1083.587107
5.0400,-4.003266659,20.6277821,1083.561558
5.0450,-3.999497582,20.63042806,1083.535691
5.0500,-3.995643604,20.63292978,1083.509487
5.0550,-3.991650008,20.63529543,1083.482933
5.0600,-3.987534407,20.63750539,1083.456035
5.0650,-3.983280889,20.6395839,1083.42882
5.0700,-3.978891527,20.64150515,1083.401269
5.0750,-3.974409955,20.64325955,1083.373411
5.0800,-3.969770701,20.64483474,1083.34522
5.0850,-3.965015385,20.6462194,1083.316704
5.0900,-3.960108891,20.64743986,1083.28787
5.0950,-3.955138274,20.64842615,1083.258732
5.1000,-3.950080575,20.64925833,1083.229329
5.1050,-3.944972861,20.64988898,1083.199647
5.1100,-3.939727143,20.6503735,1083.169701
5.1150,-3.934395365,20.65075024,1083.139529
5.1200,-3.928919223,20.65101048,1083.109128
5.1250,-3.92327702,20.65117621,1083.078493
5.1300,-3.917506345,20.65120743,1083.047624
5.1350,-3.911607618,20.65110385,1083.016536
5.1400,-3.90558309,20.65088383,1082.98522
5.1450,-3.89951108,20.65051056,1082.95371
5.1500,-3.893332543,20.64997141,1082.921974
5.1550,-3.887040757,20.64928435,1082.89003
5.1600,-3.880666111,20.64848411,1082.857896
5.1650,-3.874240238,20.64754474,1082.825578
5.1700,-3.867740596,20.64647091,1082.793079
5.1750,-3.861171991,20.64524565,1082.760404
5.1800,-3.854508001,20.64389761,1082.727569
5.1850,-3.847729304,20.64244338,1082.694567
5.1900,-3.840812612,20.64093573,1082.661423
5.1950,-3.833739484,20.63935043,1082.62813
5.2000,-3.826533527,20.63767981,1082.594703
5.2050,-3.819128057,20.63593058,1082.561132
5.2100,-3.811544134,20.63415101,1082.527455
5.2150,-3.803776682,20.63230579,1082.493651
5.2200,-3.795889781,20.63038822,1082.459753
5.2250,-3.787819799,20.62838712,1082.42574
5.2300,-3.779595206,20.62630983,1082.391637
5.2350,-3.771230656,20.62410905,1082.357434
5.2400,-3.762713626,20.6217545,1082.323122
5.2450,-3.754046298,20.61923205,1082.288702
5.2500,-3.745181555,20.61654035,1082.254154
5.2550,-3.736105968,20.61366299,1082.219476
5.2600,-3.726845865,20.61061962,1082.184694
5.2650,-3.717350777,20.60739684,1082.149805
5.2700,-3.707626651,20.60399426,1082.114796
5.2750,-3.697677274,20.60039405,1082.079672
5.2800,-3.687497706,20.59658189,1082.044419
5.2850,-3.677080234,20.5925181,1082.009057
5.2900,-3.6663927,20.58817699,1081.973574
5.2950,-3.655459952,20.58358756,1081.938015
5.3000,-3.644208994,20.57874993,1081.902357
5.3050,-3.632673452,20.57359971,1081.866599
5.3100,-3.620806939,20.56820245,1081.830766
5.3150,-3.608603545,20.56249583,1081.794845
5.3200,-3.596027512,20.55649987,1081.758824
5.3250,-3.583073131,20.55020405,1081.722709
5.3300,-3.569748505,20.54358557,1081.686488
5.3350,-3.556046808,20.53662618,1081.650177
5.3400,-3.542034387,20.52929675,1081.613786
5.3450,-3.527726938,20.52159376,1081.57734
5.3500,-3.513177071,20.5135628,1081.540856
5.3550,-3.498487732,20.50526618,1081.504393
5.3600,-3.483741216,20.49669033,1081.467967
5.3650,-3.468919371,20.48789458,1081.4316
5.3700,-3.454018741,20.47887103,1081.395307
5.3750,-3.439080136,20.46967122,1081.359117
5.3800,-3.424161012,20.46032226,1081.323044
5.3850,-3.409260293,20.45090695,1081.287121
5.3900,-3.394428886,20.44145147,1081.25136
5.3950,-3.379657322,20.43199415,1081.21577
5.4000,-3.364991113,20.42253787,1081.180349
5.4050,-3.350441753,20.41314646,1081.145145
5.4100,-3.33605771,20.40380917,1081.110144
5.4150,-3.321810454,20.39454845,1081.075351
5.4200,-3.307737298,20.38541933,1081.040789
5.4250,-3.29389997,20.3764582,1081.006485
5.4300,-3.280288762,20.36772817,1080.97245
5.4350,-3.266897824,20.35928635,1080.938691
5.4400,-3.253711658,20.35114854,1080.90521
5.4450,-3.240722344,20.34331593,1080.871999
5.4500,-3.227924237,20.33583563,1080.839052
5.4550,-3.215342951,20.32871389,1080.806375
5.4600,-3.202953544,20.32195327,1080.773956
5.4650,-3.190760954,20.31552628,1080.741773
5.4700,-3.178793582,20.30943256,1080.709818
5.4750,-3.167094677,20.30365511,1080.67809
5.4800,-3.155682592,20.29816515,1080.646573
5.4850,-3.144580312,20.29292309,1080.615256
5.4900,-3.133802999,20.28791063,1080.584143
5.4950,-3.123357935,20.28307663,1080.553214
5.5000,-3.113237983,20.27841359,1080.522468
5.5050,-3.103477695,20.27391881,1080.491905
5.5100,-3.094096861,20.26953652,1080.461508
5.5150,-3.085086097,20.26526025,1080.431281
5.5200,-3.076345357,20.26110352,1080.401217
5.5250,-3.067915739,20.25703709,1080.371307
5.5300,-3.059726786,20.25304845,1080.341525
5.5350,-3.051768388,20.24914606,1080.311886
5.5400,-3.044011134,20.24535979,1080.282374
5.5450,-3.03643345,20.24164513,1080.252985
5.5500,-3.029064001,20.23795872,1080.223707
5.5550,-3.021847532,20.23428908,1080.194522
5.5600,-3.014763832,20.23052717,1080.165416
5.5650,-3.007793588,20.22669414,1080.136378
5.5700,-3.000887325,20.22278896,1080.107422
5.5750,-2.994034685,20.21878275,1080.078529
5.5800,-2.987216446,20.21462858,1080.04969
5.5850,-2.980395209,20.21034243,1080.020901
5.5900,-2.973606718,20.20588745,1079.992155
5.5950,-2.966791788,20.20121472,1079.963417
5.6000,-2.959973749,20.1963086,1079.934698
5.6050,-2.953085455,20.19114002,1079.905987
5.6100,-2.946144544,20.18568345,1079.877285
5.6150,-2.939143772,20.17993617,1079.84859
5.6200,-2.932141523,20.17385013,1079.819919
5.6250,-2.925097281,20.167396,1079.791262
5.6300,-2.918061961,20.16056826,1079.762638
5.6350,-2.910969014,20.15333632,1079.734031
5.6400,-2.90385232,20.14574036,1079.705469
5.6450,-2.896685244,20.13778507,1079.676945
5.6500,-2.889406136,20.1294564,1079.648465
5.6550,-2.882036258,20.12075488,1079.620035
5.6600,-2.874532399,20.11169215,1079.59166
5.6650,-2.866892229,20.10227071,1079.563323
5.6700,-2.859132427,20.09252248,1079.535036
5.6750,-2.851265417,20.08247834,1079.506799
5.6800,-2.843254427,20.07214914,1079.478614
5.6850,-2.835134093,20.06159421,1079.45049
5.6900,-2.826867586,20.05080824,1079.422424
5.6950,-2.818394701,20.03990087,1079.394438
5.7000,-2.809753422,20.02888286,1079.366536
5.7050,-2.800905128,20.01778031,1079.33871
5.7100,-2.791870393,20.00667379,1079.310983
5.7150,-2.782639342,19.99559326,1079.283361
5.7200,-2.773242522,19.98457646,1079.255827
5.7250,-2.763643964,19.97366438,1079.228396
5.7300,-2.753823236,19.96294128,1079.201062
5.7350,-2.74379069,19.95242845,1079.173833
5.7400,-2.733586706,19.94213166,1079.146706
5.7450,-2.72321872,19.9320582,1079.119665
5.7500,-2.712696636,19.92227568,1079.092731
5.7550,-2.702027761,19.91277869,1079.065886
5.7600,-2.691233223,19.90356393,1079.039134
5.7650,-2.680274084,19.89471676,1079.012478
5.7700,-2.669164592,19.88622619,1078.98592
5.7750,-2.657881391,19.8781313,1078.95945
5.7800,-2.646414436,19.87043846,1078.933065
5.7850,-2.634773504,19.86312952,1078.906765
5.7900,-2.622974986,19.85623057,1078.880547
5.7950,-2.611064519,19.84974398,1078.854416
5.8000,-2.599032909,19.84366457,1078.828362
5.8050,-2.586922815,19.83796353,1078.802391
5.8100,-2.57468511,19.83268448,1078.776495
5.8150,-2.562330004,19.82780972,1078.75067
5.8200,-2.549912078,19.82326948,1078.724904
5.8250,-2.537409954,19.81909205,1078.699216
5.8300,-2.524799503,19.81523524,1078.673595
5.8350,-2.512130839,19.81168254,1078.648042
5.8400,-2.49942841,19.80833641,1078.622553
5.8450,-2.486710656,19.8051784,1078.59712
5.8500,-2.473994067,19.80215801,1078.571737
5.8550,-2.461363031,19.79921531,1078.546425
5.8600,-2.448801177,19.79638784,1078.521185
5.8650,-2.436305394,19.79359051,1078.495999
5.8700,-2.423933515,19.79072929,1078.470852
5.8750,-2.411670273,19.78780886,1078.445764
5.8800,-2.399489885,19.78477864,1078.420718
5.8850,-2.387392368,19.78159371,1078.39571
5.8900,-2.375377119,19.77825642,1078.370758
5.8950,-2.363458991,19.7747096,1078.345858
5.9000,-2.351654057,19.77092871,1078.321011
5.9050,-2.340038586,19.76690899,1078.296227
5.9100,-2.328586044,19.76261044,1078.271507
5.9150,-2.31731254,19.75804282,1078.246874
5.9200,-2.306159363,19.75317815,1078.222305
5.9250,-2.295177696,19.74798408,1078.197818
5.9300,-2.284317811,19.74249409,1078.173417
5.9350,-2.273642374,19.73667558,1078.149105
5.9400,-2.263083248,19.73050907,1078.124889
5.9450,-2.252626208,19.72397195,1078.100771
5.9500,-2.242301838,19.71710306,1078.076768
5.9550,-2.232099201,19.70987653,1078.052866
5.9600,-2.221996039,19.70234609,1078.029066
5.9650,-2.21203233,19.69450885,1078.005387
5.9700,-2.202213074,19.68636175,1077.981821
5.9750,-2.192524553,19.67793196,1077.95838
5.9800,-2.183002902,19.6692426,1077.935069
5.9850,-2.173596995,19.6603066,1077.911884
5.9900,-2.164339796,19.65115287,1077.888828
5.9950,-2.155234901,19.64176425,1077.8659
6.0000,-2.146257077,19.63218364,1077.843107
6.0050,-2.137401893,19.62248055,1077.820447
6.0100,-2.128703347,19.61261013,1077.797924
6.0150,-2.12014775,19.60264302,1077.775539
6.0200,-2.111750241,19.5926043,1077.753312
6.0250,-2.103486566,19.58254048,1077.731226
6.0300,-2.095371004,19.5724313,1077.709292
6.0350,-2.087377615,19.56229896,1077.687495
6.0400,-2.079542852,19.55216945,1077.665853
6.0450,-2.07185809,19.54211134,1077.644373
6.0500,-2.064334818,19.53206497,1077.623046
6.0550,-2.056972934,19.52210702,1077.601893
6.0600,-2.049749111,19.51223342,1077.580894
6.0650,-2.042665904,19.50244404,1077.560056
6.0700,-2.035699107,19.4927466,1077.539376
6.0750,-2.028818549,19.48317459,1077.518853
6.0800,-2.022030065,19.47375686,1077.498491
6.0850,-2.015327144,19.46454465,1077.478302
6.0900,-2.008664558,19.45551236,1077.458261
6.0950,-2.001991688,19.44668556,1077.438369
6.1000,-1.995304361,19.43812419,1077.418639
6.1050,-1.98853481,19.42983725,1077.399049
6.1100,-1.981731408,19.42176312,1077.379604
6.1150,-1.974893977,19.41396285,1077.360312
6.1200,-1.967986614,19.40640768,1077.34116
6.1250,-1.961022573,19.39905663,1077.322132
6.1300,-1.954028886,19.39192813,1077.303233
6.1350,-1.947011904,19.3850058,1077.284461
6.1400,-1.939950988,19.37829407,1077.265809
6.1450,-1.932857698,19.37179867,1077.247283
6.1500,-1.925714707,19.36550426,1077.228879
6.1550,-1.91850022,19.35940873,1077.210587
6.1600,-1.911195188,19.353476,1077.192395
6.1650,-1.90381432,19.3476796,1077.174319
6.1700,-1.89633881,19.34206833,1077.156364
6.1750,-1.8887434,19.33656518,1077.138503
6.1800,-1.881029287,19.3312017,1077.120743
6.1850,-1.873202574,19.3259324,1077.103071
6.1900,-1.865256275,19.32077858,1077.085491
6.1950,-1.857182864,19.31571994,1077.067997
6.2000,-1.84894032,19.31077895,1077.050586
6.2050,-1.840481894,19.30593385,1077.033256
6.2100,-1.831830737,19.30120149,1077.016011
6.2150,-1.822950254,19.29654441,1076.998827
6.2200,-1.813825349,19.29199189,1076.981718
6.2250,-1.804447302,19.28755753,1076.964681
6.2300,-1.79478508,19.28320518,1076.947706
6.2350,-1.784808171,19.27894844,1076.930792
6.2400,-1.774491975,19.27475205,1076.913922
6.2450,-1.763880391,19.27064666,1076.897107
6.2500,-1.753001339,19.266597,1076.880342
6.2550,-1.741829257,19.26261235,1076.863634
6.2600,-1.730376431,19.25864864,1076.846979
6.2650,-1.718645829,19.25470413,1076.830376
6.2700,-1.706666573,19.25077507,1076.813828
6.2750,-1.694433214,19.24677489,1076.797315
6.2800,-1.681938803,19.24269366,1076.780829
6.2850,-1.669212759,19.23851595,1076.764381
6.2900,-1.656206481,19.23423167,1076.747959
6.2950,-1.642993221,19.22979657,1076.731567
6.3000,-1.629528808,19.22519827,1076.715191
6.3050,-1.615843683,19.22039912,1076.698833
6.3100,-1.601899751,19.21546407,1076.682501
6.3150,-1.587711871,19.21033138,1076.666191
6.3200,-1.573232607,19.20503477,1076.649901
6.3250,-1.558488398,19.19955011,1076.633636
6.3300,-1.543458532,19.19389748,1076.617398
6.3350,-1.52815908,19.18808576,1076.601199
6.3400,-1.512534345,19.18210863,1076.585025
6.3450,-1.49658556,19.17599132,1076.568885
6.3500,-1.480365855,19.16971836,1076.55279
6.3550,-1.463848291,19.16322062,1076.53672
6.3600,-1.447056335,19.15652411,1076.520694
6.3650,-1.43006466,19.14957428,1076.504714
6.3700,-1.41289054,19.1424096,1076.488796
6.3750,-1.395573352,19.13494334,1076.472934
6.3800,-1.378137805,19.12716007,1076.457135
6.3850,-1.360604643,19.11903972,1076.441398
6.3900,-1.343069831,19.11059306,1076.425749
6.3950,-1.325558722,19.1017881,1076.410192
6.4000,-1.308083291,19.09260534,1076.394718
6.4050,-1.290704138,19.08305242,1076.379354
6.4100,-1.273404853,19.07313025,1076.364089
6.4150,-1.256212153,19.06281495,1076.348927
6.4200,-1.239165642,19.05213862,1076.33388
6.4250,-1.222260535,19.04109372,1076.318949
6.4300,-1.205549866,19.0296715,1076.304147
6.4350,-1.188997046,19.01785726,1076.28946
6.4400,-1.17263787,19.00568779,1076.274915
6.4450,-1.156450744,18.9931459,1076.260502
6.4500,-1.140420418,18.9802415,1076.24622
6.4550,-1.124542432,18.96697921,1076.232072
6.4600,-1.108819972,18.95337548,1076.218061
6.4650,-1.093258757,18.93946141,1076.204189
6.4700,-1.077837094,18.92520115,1076.190448
6.4750,-1.062565246,18.91065891,1076.176854
6.4800,-1.047443283,18.89582302,1076.163402
6.4850,-1.032521598,18.88070902,1076.150111
6.4900,-1.017762053,18.8652625,1076.136959
6.4950,-1.003201329,18.84952902,1076.123963
6.5000,-0.9888655281,18.83348737,1076.111124
6.5050,-0.9747758191,18.81717172,1076.098454
6.5100,-0.9608741187,18.80053987,1076.085931
6.5150,-0.9472115085,18.78361413,1076.073574
6.5200,-0.9337653365,18.76639838,1076.061372
6.5250,-0.9205491987,18.74890027,1076.049331
6.5300,-0.9075894864,18.73117318,1076.037461
6.5350,-0.8948692112,18.71323221,1076.025763
6.5400,-0.8824257472,18.69510834,1076.014244
6.5450,-0.8702248951,18.6767915,1076.002895
6.5500,-0.8582239563,18.65830647,1075.991715
6.5550,-0.8464487878,18.63968321,1075.980705
6.5600,-0.8348892039,18.62091057,1075.96986
6.5650,-0.8234957772,18.60198774,1075.959165
6.5700,-0.8122192898,18.58291697,1075.948606
6.5750,-0.8011247022,18.5636817,1075.938193
6.5800,-0.79019589,18.54432128,1075.927929
6.5850,-0.7794652508,18.52481036,1075.917812
6.5900,-0.7690079802,18.50515108,1075.907858
6.5950,-0.7587688763,18.48539491,1075.898061
6.6000,-0.7487821349,18.46553139,1075.888422
6.6050,-0.739044223,18.44556934,1075.878943
6.6100,-0.7295948166,18.42548947,1075.869621
6.6150,-0.7204053497,18.40536548,1075.860461
6.6200,-0.7114879093,18.38520291,1075.851465
6.6250,-0.7028593484,18.36502096,1075.842636
6.6300,-0.6944920523,18.34485911,1075.833972
6.6350,-0.6863917622,18.32471789,1075.82547
6.6400,-0.6785923939,18.30463148,1075.817141
6.6450,-0.6710484011,18.28457085,1075.808968
6.6500,-0.663721085,18.26458637,1075.800947
6.6550,-0.6566195588,18.24468549,1075.793079
6.6600,-0.6497204868,18.22489307,1075.785364
6.6650,-0.6429852055,18.20523058,1075.777793
6.6700,-0.6363645289,18.18569322,1075.770349
6.6750,-0.6298765425,18.16634974,1075.763046
6.6800,-0.6234728539,18.14719553,1075.755873
6.6850,-0.617134484,18.1282342,1075.748821
6.6900,-0.6108319961,18.10946237,1075.741877
6.6950,-0.6045916794,18.09091793,1075.735048
6.7000,-0.5984405683,18.07258351,1075.728334
6.7050,-0.5923729599,18.05445773,1075.721727
6.7100,-0.5864101005,18.03660991,1075.715243
6.7150,-0.580492949,18.01899812,1075.70886
6.7200,-0.5746461017,18.00160486,1075.702575
6.7250,-0.5688571047,17.98451211,1075.696393
6.7300,-0.5631043964,17.96768038,1075.690301
6.7350,-0.5573858571,17.95115238,1075.684306
6.7400,-0.5517120955,17.93486514,1075.678391
6.7450,-0.5460930567,17.91884767,1075.672563
6.7500,-0.5405297971,17.90313322,1075.666824
6.7550,-0.5350001647,17.8876961,1075.661167
6.7600,-0.5294954013,17.87252941,1075.655583
6.7650,-0.523990587,17.85761406,1075.650064
6.7700,-0.5184772795,17.84299012,1075.644614
6.7750,-0.5129612007,17.82860136,1075.639224
6.7800,-0.5074476991,17.81444958,1075.6339
6.7850,-0.5018742652,17.80051136,1075.628621
6.7900,-0.4962871083,17.78677543,1075.623398
6.7950,-0.4906708579,17.77319319,1075.618221
6.8000,-0.4850185602,17.75975858,1075.613091
6.8050,-0.479349939,17.7464272,1075.608003
6.8100,-0.4736833947,17.73319259,1075.602959
6.8150,-0.4680367593,17.72000681,1075.597963
6.8200,-0.4624353984,17.70691664,1075.593025
6.8250,-0.45687744,17.69386124,1075.588141
6.8300,-0.4513920333,17.68083677,1075.583318
6.8350,-0.4460115489,17.66780279,1075.57856
6.8400,-0.4407293516,17.65472699,1075.573862
6.8450,-0.4355848487,17.64160723,1075.569236
6.8500,-0.4306037186,17.6284096,1075.564682
6.8550,-0.4257348904,17.61505418,1075.560186
6.8600,-0.4209948213,17.60156607,1075.555753
6.8650,-0.4163833071,17.58792472,1075.551388
6.8700,-0.4119533215,17.57408202,1075.547097
6.8750,-0.4076218467,17.56007969,1075.542867
6.8800,-0.403414091,17.54585093,1075.5387
6.8850,-0.3993375605,17.53139538,1075.534595
6.8900,-0.395363436,17.51671286,1075.530549
6.8950,-0.3915337665,17.50178947,1075.526567
6.9000,-0.3878564309,17.4865687,1075.522645
6.9050,-0.3843741347,17.47111632,1075.518801
6.9100,-0.3809878374,17.45543733,1075.515013
6.9150,-0.3777597235,17.43952776,1075.511291
6.9200,-0.3746854979,17.42338311,1075.507635
6.9250,-0.3717223968,17.40704468,1075.504041
6.9300,-0.3689134102,17.39054628,1075.500519
6.9350,-0.3662122996,17.37395192,1075.497067
6.9400,-0.3635578261,17.35727822,1075.493669
6.9450,-0.3609667166,17.34055503,1075.490331
6.9500,-0.3583931986,17.32383216,1075.487045
6.9550,-0.3558169305,17.30716199,1075.483812
6.9600,-0.3532102177,17.29052795,1075.480614
6.9650,-0.3504901283,17.27398634,1075.477441
6.9700,-0.347695138,17.25755145,1075.474303
6.9750,-0.3447154524,17.24122771,1075.471168
6.9800,-0.3415517723,17.22503346,1075.468037
6.9850,-0.3381870982,17.20897562,1075.464906
6.9900,-0.334585952,17.19304312,1075.461765
6.9950,-0.3307143833,17.17725233,1075.458609
7.0000,-0.3265340977,17.16157669,1075.455421
7.0050,-0.3220659889,17.14601675,1075.452207
7.0100,-0.3173148344,17.13053985,1075.448964
7.0150,-0.3123222773,17.11517389,1075.445699
7.0200,-0.3070883187,17.09992376,1075.442413
7.0250,-0.3016648786,17.08472592,1075.43911
7.0300,-0.29607169,17.06967083,1075.435806
7.0350,-0.2903232233,17.05472564,1075.432494
7.0400,-0.28444812,17.03995602,1075.429188
7.0450,-0.2784361181,17.02535125,1075.425885
7.0500,-0.2723257461,17.0109064,1075.422589
7.0550,-0.266136994,16.99666968,1075.419311
7.0600,-0.2599127945,16.98267034,1075.416062
7.0650,-0.2536369125,16.96896085,1075.412844
7.0700,-0.2473430824,16.95553288,1075.40966
7.0750,-0.2410122912,16.94241873,1075.406508
7.0800,-0.2346834609,16.92962006,1075.403398
7.0850,-0.2283533098,16.91715298,1075.400332
7.0900,-0.2219846904,16.90504934,1075.397302
7.0950,-0.2155565603,16.89332135,1075.394306
7.1000,-0.2091134019,16.88195038,1075.391349
7.1050,-0.202591404,16.87095579,1075.388422
7.1100,-0.1960905441,16.86029922,1075.385547
7.1150,-0.1895433239,16.85003133,1075.382711
7.1200,-0.1830106938,16.84007578,1075.379923
7.1250,-0.1764753012,16.8304214,1075.377178
7.1300,-0.1699309703,16.82106551,1075.374477
7.1350,-0.1634152524,16.81202605,1075.371829
7.1400,-0.1569710962,16.80327202,1075.369241
7.1450,-0.1505849582,16.79478614,1075.36671
7.1500,-0.1442706918,16.78662045,1075.364245
7.1550,-0.1380485633,16.7787686,1075.36185
7.1600,-0.1319754645,16.77121618,1075.359537
7.1650,-0.1260564307,16.76395577,1075.357301
7.1700,-0.1202943549,16.75704128,1075.355151
7.1750,-0.1147778684,16.75047309,1075.353104
7.1800,-0.1094713218,16.74421812,1075.351149
7.1850,-0.1044057189,16.73831694,1075.349294
7.1900,-0.09953974013,16.73273939,1075.34753
7.1950,-0.09484881656,16.72747855,1075.345852
7.2000,-0.09033996223,16.72259319,1075.344265
7.2050,-0.08597836706,16.71801786,1075.342756
7.2100,-0.08180427333,16.71378162,1075.341338
7.2150,-0.07782334582,16.7098856,1075.340013
7.2200,-0.07402741247,16.70631862,1075.338775
7.2250,-0.07037826482,16.70305561,1075.337611
7.2300,-0.06686145264,16.70010644,1075.336523
7.2350,-0.06346981522,16.69741076,1075.335502
7.2400,-0.06020527983,16.69495513,1075.334547
7.2450,-0.05706547945,16.69274468,1075.333663
7.2500,-0.05403127952,16.69074032,1075.33284
7.2550,-0.05107226399,16.68894679,1075.332074
7.2600,-0.04821552832,16.68735913,1075.331373
7.2650,-0.04546301705,16.68591701,1075.330736
7.2700,-0.0427987969,16.68463637,1075.330159
7.2750,-0.0402530891,16.68345812,1075.329648
7.2800,-0.03782253106,16.68238178,1075.329203
7.2850,-0.03554179285,16.68140812,1075.328834
7.2900,-0.03340435138,16.68057583,1075.328544
7.2950,-0.03143438608,16.67985801,1075.328335
7.3000,-0.02961590842,16.67925911,1075.328211
7.3050,-0.02799504251,16.67877806,1075.32818
7.3100,-0.02657231815,16.67840668,1075.328245
7.3150,-0.02537317249,16.67814025,1075.328413
7.3200,-0.02441567459,16.67801826,1075.328693
7.3250,-0.02372856182,16.67802142,1075.329091
7.3300,-0.02335419282,16.67815138,1075.329616
7.3350,-0.023327208,16.67839802,1075.330278
7.3400,-0.02362017717,16.67879194,1075.331076
7.3450,-0.02427402813,16.67929968,1075.332016
7.3500,-0.0253705157,16.67997347,1075.33312
7.3550,-0.02685201687,16.68083669,1075.334383
7.3600,-0.02874567167,16.68189693,1075.335812
7.3650,-0.03106022552,16.68311667,1075.337404
7.3700,-0.03382026744,16.68454063,1075.339175
7.3750,-0.03702528771,16.68616107,1075.341126
7.3800,-0.04068731087,16.68798482,1075.343261
7.3850,-0.04479936116,16.69004558,1075.34558
7.3900,-0.04937393426,16.69232699,1075.348089
7.3950,-0.05443887051,16.69485731,1075.3508
7.4000,-0.05998697868,16.69763388,1075.353715
7.4050,-0.06605586778,16.70065542,1075.356841
7.4100,-0.07259604148,16.70392883,1075.36017
7.4150,-0.07966613145,16.70746497,1075.363718
7.4200,-0.08723977196,16.71129054,1075.367484
7.4250,-0.09536630803,16.71546211,1075.37148
7.4300,-0.1040494115,16.71990728,1075.375704
7.4350,-0.1132518986,16.72466609,1075.380158
7.4400,-0.1229661666,16.72977226,1075.384839
7.4450,-0.1331898647,16.73521688,1075.389748
7.4500,-0.1439389381,16.74094462,1075.394885
7.4550,-0.155183206,16.74699004,1075.400248
7.4600,-0.166907525,16.75338786,1075.405837
7.4650,-0.1790986124,16.76009126,1075.411654
7.4700,-0.1917406463,16.76712297,1075.417694
7.4750,-0.2047921933,16.77442118,1075.423949
7.4800,-0.2182358334,16.78204045,1075.43042
7.4850,-0.2320137849,16.78991521,1075.437094
7.4900,-0.2461706365,16.79806289,1075.443986
7.4950,-0.2606452088,16.8064693,1075.451083
7.5000,-0.2753910124,16.81516096,1075.458377
7.5050,-0.2903777781,16.82410385,1075.465869
7.5100,-0.3056040237,16.83330554,1075.473553
7.5150,-0.3209839535,16.84275611,1075.48142
7.5200,-0.3365067334,16.85244411,1075.489468
7.5250,-0.3522046744,16.86236532,1075.49771
7.5300,-0.3679892956,16.87249044,1075.506128
7.5350,-0.3838798486,16.88282752,1075.514728
7.5400,-0.3998408011,16.89338408,1075.523511
7.5450,-0.4158657746,16.90410593,1075.532465
7.5500,-0.431893591,16.91502501,1075.54159
7.5550,-0.447975163,16.92606339,1075.55089
7.5600,-0.4639949291,16.93725139,1075.560347
7.5650,-0.480038177,16.94858036,1075.569973
7.5700,-0.4960300875,16.96000051,1075.579758
7.5750,-0.5119793851,16.97154872,1075.589704
7.5800,-0.5279064412,16.98315647,1075.599814
7.5850,-0.5437329031,16.99482182,1075.610069
7.5900,-0.5594895747,17.00649126,1075.620474
7.5950,-0.5751611784,17.01814465,1075.631022
7.6000,-0.5907650978,17.0298095,1075.641722
7.6050,-0.6062760579,17.0414527,1075.652563
7.6100,-0.6216689003,17.05307642,1075.663538
7.6150,-0.6369344544,17.06466135,1075.674646
7.6200,-0.6520807228,17.07619221,1075.685885
7.6250,-0.6671292008,17.08770185,1075.697262
7.6300,-0.6820307029,17.0991162,1075.708759
7.6350,-0.6967964975,17.11049999,1075.720385
7.6400,-0.7113963261,17.12180354,1075.732123
7.6450,-0.7258779934,17.13310234,1075.743994
7.6500,-0.7401816733,17.1443159,1075.755974
7.6550,-0.7543755294,17.15545209,1075.76807
7.6600,-0.768429222,17.16652219,1075.780284
7.6650,-0.7823781086,17.17754058,1075.792618
7.6700,-0.7961815299,17.18842736,1075.805056
7.6750,-0.8098959638,17.19925601,1075.817614
7.6800,-0.8234754769,17.21000447,1075.83028
7.6850,-0.8369751129,17.22065998,1075.843062
7.6900,-0.8503739282,17.23123675,1075.855956
7.6950,-0.8636908292,17.24170731,1075.86896
7.7000,-0.8769060999,17.25207921,1075.882066
7.7050,-0.8900262526,17.26233855,1075.895277
7.7100,-0.9030656689,17.27253638,1075.908587
7.7150,-0.9160253344,17.28263415,1075.921992
7.7200,-0.928887446,17.29265335,1075.935492
7.7250,-0.9416873959,17.30259764,1075.949089
7.7300,-0.9544581606,17.31246576,1075.962787
7.7350,-0.967200371,17.32225882,1075.976581
7.7400,-0.979902008,17.33198914,1075.990475
7.7450,-0.9926325436,17.34165107,1076.00448
7.7500,-1.005375876,17.35125767,1076.01858
7.7550,-1.018181279,17.3608325,1076.032791
7.7600,-1.031000567,17.37033466,1076.047106
7.7650,-1.043910829,17.37978872,1076.061529
7.7700,-1.056915227,17.38917455,1076.076059
7.7750,-1.070023883,17.39851793,1076.090706
7.7800,-1.083249141,17.4078163,1076.105467
7.7850,-1.096629801,17.41706235,1076.120349
7.7900,-1.110103118,17.42628007,1076.135337
7.7950,-1.123695655,17.43548285,1076.150441
7.8000,-1.137481435,17.44459455,1076.165671
7.8050,-1.151404889,17.45367048,1076.181017
7.8100,-1.165469369,17.46264947,1076.196484
7.8150,-1.179706726,17.47155574,1076.212073
7.8200,-1.194083835,17.4804094,1076.227784
7.8250,-1.208543988,17.4891593,1076.243601
7.8300,-1.22315924,17.49784784,1076.259543
7.8350,-1.237848761,17.50644551,1076.275594
7.8400,-1.252639687,17.51493863,1076.291752
7.8450,-1.267470486,17.52340007,1076.308018
7.8500,-1.282413264,17.53177059,1076.324402
7.8550,-1.29742004,17.54010118,1076.340893
7.8600,-1.312565484,17.54834063,1076.357509
7.8650,-1.327760066,17.55654846,1076.374237
7.8700,-1.343102501,17.56472935,1076.391091
7.8750,-1.358486423,17.57289852,1076.408056
7.8800,-1.373922185,17.58110059,1076.425136
7.8850,-1.389454557,17.5893089,1076.442338
7.8900,-1.405053074,17.59753238,1076.459659
7.8950,-1.420733038,17.60579392,1076.477103
7.9000,-1.43648815,17.61407388,1076.494671
7.9050,-1.45225217,17.62241607,1076.512353
7.9100,-1.468081103,17.63077533,1076.530163
7.9150,-1.483922913,17.63923662,1076.548092
7.9200,-1.499761295,17.64775171,1076.566141
7.9250,-1.515548261,17.65635678,1076.584306
7.9300,-1.531273055,17.66507651,1076.602583
7.9350,-1.546900887,17.67386225,1076.620971
7.9400,-1.562420486,17.68275801,1076.639479
7.9450,-1.577810282,17.69170744,1076.658084
7.9500,-1.593024696,17.70078502,1076.676799
7.9550,-1.608054071,17.70992875,1076.695618
7.9600,-1.622880393,17.71915141,1076.714537
7.9650,-1.637461542,17.72842651,1076.733551
7.9700,-1.651785659,17.73779096,1076.75266
7.9750,-1.665819887,17.74714883,1076.771844
7.9800,-1.679549737,17.75652668,1076.791107
7.9850,-1.692971502,17.76590319,1076.810458
7.9900,-1.706093577,17.77523798,1076.829881
7.9950,-1.718910071,17.78452084,1076.849384
8.0000,-1.731430871,17.79372765,1076.868967
8.0050,-1.74365219,17.80286659,1076.888613
8.0100,-1.755571396,17.81192048,1076.908343
8.0150,-1.767218088,17.8208751,1076.928154
8.0200,-1.778619039,17.82970039,1076.94804
8.0250,-1.78974264,17.83836114,1076.967997
8.0300,-1.800601858,17.84687571,1076.988033
8.0350,-1.811213979,17.85524705,1077.008146
8.0400,-1.821594943,17.86343986,1077.028325
8.0450,-1.831731051,17.87145934,1077.048568
8.0500,-1.841626609,17.87931262,1077.068888
8.0550,-1.851270829,17.88697757,1077.089275
8.0600,-1.860702778,17.89446794,1077.109723
8.0650,-1.869859995,17.90183744,1077.130239
8.0700,-1.878804844,17.90903651,1077.150825
8.0750,-1.887499477,17.91610888,1077.171478
8.0800,-1.895985892,17.92306254,1077.192207
8.0850,-1.904241463,17.92988839,1077.212997
8.0900,-1.912293769,17.93658584,1077.233869
8.0950,-1.92018655,17.94313224,1077.254826
8.1000,-1.927862405,17.94954603,1077.275852
8.1050,-1.935358262,17.95580254,1077.296964
8.1100,-1.942676005,17.96191887,1077.318143
8.1150,-1.94985145,17.96787455,1077.339401
8.1200,-1.956869024,17.97368262,1077.360737
8.1250,-1.96379673,17.97935995,1077.382166
8.1300,-1.970584909,17.98490199,1077.403681
8.1350,-1.977337368,17.99031683,1077.4253
8.1400,-1.984026442,17.99564043,1077.447018
8.1450,-1.990672876,18.00085138,1077.468838
8.1500,-1.997288559,18.00595385,1077.490765
8.1550,-2.003863975,18.01099814,1077.512809
8.1600,-2.01043702,18.0159628,1077.534965
8.1650,-2.017000742,18.02081544,1077.557228
8.1700,-2.023549644,18.02555355,1077.579598
8.1750,-2.030162633,18.03017196,1077.602095
8.1800,-2.036823837,18.03466161,1077.624701
8.1850,-2.043537536,18.03903275,1077.647434
8.1900,-2.050267354,18.04332085,1077.670285
8.1950,-2.057006051,18.04749594,1077.693254
8.2000,-2.063787136,18.05158379,1077.716344
8.2050,-2.070615676,18.05553855,1077.739562
8.2100,-2.07747349,18.05942584,1077.7629
8.2150,-2.084408639,18.06317844,1077.786374
8.2200,-2.091392098,18.0668555,1077.809965
8.2250,-2.098401282,18.0704308,1077.833676
8.2300,-2.105440131,18.07390879,1077.857517
8.2350,-2.112501514,18.07729912,1077.881473
8.2400,-2.119593207,18.08058431,1077.905541
8.2450,-2.126682039,18.08376952,1077.929724
8.2500,-2.133741128,18.08685202,1077.954013
8.2550,-2.140780123,18.08984728,1077.978408
8.2600,-2.147780348,18.09272075,1078.002903
8.2650,-2.154784917,18.09554201,1078.027503
8.2700,-2.161760291,18.09827951,1078.052199
8.2750,-2.168680822,18.10099965,1078.077009
8.2800,-2.175553188,18.103635,1078.101918
8.2850,-2.182349544,18.10623751,1078.126909
8.2900,-2.189071447,18.10881194,1078.152
8.2950,-2.195703519,18.1113588,1078.177174
8.3000,-2.202231548,18.11386591,1078.202425
8.3050,-2.208680212,18.11634727,1078.227762
8.3100,-2.21504532,18.1187825,1078.253179
8.3150,-2.221328779,18.12118873,1078.278661
8.3200,-2.227569108,18.12354193,1078.304219
8.3250,-2.233761177,18.12587088,1078.329843
8.3300,-2.23991714,18.12819503,1078.355523
8.3350,-2.246021183,18.13047853,1078.381246
8.3400,-2.252089156,18.13280777,1078.40704
8.3450,-2.258107115,18.13518892,1078.432882
8.3500,-2.264076065,18.13762531,1078.458759
8.3550,-2.270010621,18.14014753,1078.484679
8.3600,-2.275892095,18.1427579,1078.510638
8.3650,-2.281762633,18.14544598,1078.536631
8.3700,-2.287571429,18.14825064,1078.562649
8.3750,-2.293355783,18.15114683,1078.588686
8.3800,-2.299148362,18.15411635,1078.614743
8.3850,-2.304925605,18.15717207,1078.640817
8.3900,-2.310706075,18.16034365,1078.666895
8.3950,-2.316466468,18.16361726,1078.69295
8.4000,-2.322201788,18.16705946,1078.718999
8.4050,-2.327939164,18.17069242,1078.745032
8.4100,-2.333695828,18.1745376,1078.771071
8.4150,-2.339387846,18.17859647,1078.797083
8.4200,-2.345071608,18.18289316,1078.823068
8.4250,-2.350668267,18.18745159,1078.849011
8.4300,-2.356246788,18.19222895,1078.874916
8.4350,-2.36176254,18.19728874,1078.900775
8.4400,-2.367238458,18.20257927,1078.926587
8.4450,-2.37271561,18.20811495,1078.952351
8.4500,-2.378167756,18.2139061,1078.978059
8.4550,-2.383583824,18.21989505,1079.003705
8.4600,-2.388959111,18.22614522,1079.029312
8.4650,-2.394326206,18.23261334,1079.054865
8.4700,-2.39962954,18.2393793,1079.080365
8.4750,-2.404888672,18.24636822,1079.105822
8.4800,-2.410067317,18.25362297,1079.131238
8.4850,-2.415150206,18.26113236,1079.156597
8.4900,-2.420193376,18.2688327,1079.181916
8.4950,-2.425157221,18.27669785,1079.20719
8.5000,-2.430035713,18.28473571,1079.232423
8.5050,-2.434831536,18.29292247,1079.257619
8.5100,-2.439554314,18.30120335,1079.282776
8.5150,-2.444182751,18.30955899,1079.307876
8.5200,-2.448726594,18.31795776,1079.332939
8.5250,-2.453191273,18.32636908,1079.357956
8.5300,-2.457620989,18.33475074,1079.382932
8.5350,-2.461967348,18.34315773,1079.407867
8.5400,-2.466255344,18.3515566,1079.432771
8.5450,-2.470499424,18.35994981,1079.457654
8.5500,-2.474764668,18.36830199,1079.482528
8.5550,-2.479014933,18.37662317,1079.507378
8.5600,-2.483267879,18.38490688,1079.532209
8.5650,-2.487506135,18.39312267,1079.557035
8.5700,-2.491732097,18.40126479,1079.581858
8.5750,-2.49604674,18.40934643,1079.606674
8.5800,-2.500427608,18.41737391,1079.631494
8.5850,-2.504875603,18.42530416,1079.656335
8.5900,-2.509419558,18.43316169,1079.681183
8.5950,-2.514091299,18.44092973,1079.706057
8.6000,-2.518909318,18.44862549,1079.730966
8.6050,-2.523919355,18.45623114,1079.755915
8.6100,-2.529114531,18.4637984,1079.78091
8.6150,-2.534509888,18.47132662,1079.805958
8.6200,-2.540090953,18.47884149,1079.831063
8.6250,-2.545825142,18.48631979,1079.856222
8.6300,-2.551727339,18.49379352,1079.881424
8.6350,-2.557824371,18.50126562,1079.906684
8.6400,-2.564081076,18.50871531,1079.931989
8.6450,-2.570538246,18.51616706,1079.95735
8.6500,-2.577221402,18.52357779,1079.982754
8.6550,-2.584136238,18.53094689,1080.008198
8.6600,-2.59133888,18.53830154,1080.033683
8.6650,-2.598826342,18.54560275,1080.059197
8.6700,-2.606615096,18.55287074,1080.084733
8.6750,-2.614693014,18.56011623,1080.110285
8.6800,-2.623037801,18.56739661,1080.135851
8.6850,-2.631675806,18.57474738,1080.161422
8.6900,-2.640605765,18.58215548,1080.186989
8.6950,-2.649796946,18.58965261,1080.212546
8.7000,-2.659275626,18.59726645,1080.238091
8.7050,-2.668979684,18.60500426,1080.263604
8.7100,-2.678912512,18.61288522,1080.289077
8.7150,-2.689082255,18.62093032,1080.314516
8.7200,-2.699477239,18.62911364,1080.339916
8.7250,-2.710137993,18.63748532,1080.365289
8.7300,-2.720995868,18.64607786,1080.390604
8.7350,-2.732045538,18.65484881,1080.415859
8.7400,-2.743299474,18.6638398,1080.441055
8.7450,-2.754708252,18.67306069,1080.466189
8.7500,-2.766248369,18.68254133,1080.491254
8.7550,-2.777894536,18.69231559,1080.516249
8.7600,-2.789609259,18.70234321,1080.541137
8.7650,-2.80135207,18.71262099,1080.565925
8.7700,-2.813095066,18.72307249,1080.590588
8.7750,-2.824809009,18.73372856,1080.615115
8.7800,-2.836530317,18.74449941,1080.639507
8.7850,-2.848202121,18.75537241,1080.663746
8.7900,-2.859832547,18.76635798,1080.687821
8.7950,-2.8713941,18.7774766,1080.711733
8.8000,-2.882837346,18.78865933,1080.735456
8.8050,-2.894123994,18.7999377,1080.758994
8.8100,-2.905215665,18.81129082,1080.782336
8.8150,-2.916093175,18.82268593,1080.805481
8.8200,-2.926706659,18.83414059,1080.828421
8.8250,-2.93701083,18.84560586,1080.851144
8.8300,-2.946955731,18.85708648,1080.873634
8.8350,-2.956517135,18.86853701,1080.895891
8.8400,-2.965675207,18.87995166,1080.917924
8.8450,-2.97436238,18.89129507,1080.939715
8.8500,-2.982504784,18.90256531,1080.961246
8.8550,-2.990125364,18.91369753,1080.982535
8.8600,-2.997230974,18.92465713,1081.00356
8.8650,-3.003834678,18.93540699,1081.024334
8.8700,-3.00999793,18.94593119,1081.044867
8.8750,-3.015596198,18.956145,1081.065135
8.8800,-3.020700205,18.96606382,1081.085152
8.8850,-3.025332076,18.97564596,1081.104912
8.8900,-3.029502589,18.98482785,1081.124424
8.8950,-3.033233567,18.99361459,1081.14369
8.9000,-3.036580445,19.00196013,1081.162707
8.9050,-3.03955007,19.00987469,1081.181488
8.9100,-3.0422063,19.01731046,1081.200039
8.9150,-3.044588767,19.02428099,1081.218377
8.9200,-3.04672311,19.0307915,1081.236503
8.9250,-3.048692625,19.03687729,1081.254451
8.9300,-3.050484823,19.04256145,1081.272248
8.9350,-3.05216782,19.04785548,1081.289909
8.9400,-3.053766163,19.0528373,1081.307465
8.9450,-3.055293095,19.05750562,1081.324935
8.9500,-3.056755484,19.06191552,1081.342341
8.9550,-3.058201464,19.06612363,1081.35971
8.9600,-3.05963454,19.07011315,1081.377052
8.9650,-3.061056288,19.0740061,1081.394398
8.9700,-3.062472214,19.07779574,1081.411766
8.9750,-3.063870874,19.08152204,1081.429177
8.9800,-3.065288436,19.08518526,1081.44663
8.9850,-3.066725301,19.08883934,1081.464165
8.9900,-3.068200903,19.0924359,1081.481779
8.9950,-3.069722642,19.09602546,1081.499498
9.0000,-3.071323178,19.09955175,1081.517318
9.0050,-3.073054849,19.10305866,1081.535262
9.0100,-3.074896123,19.10657198,1081.553336
9.0150,-3.076878817,19.11007222,1081.571544
9.0200,-3.079023586,19.11357543,1081.589887
9.0250,-3.081333397,19.11705593,1081.608367
9.0300,-3.083845233,19.12050348,1081.626994
9.0350,-3.08656873,19.12396959,1081.645783
9.0400,-3.089501712,19.12738148,1081.664708
9.0450,-3.092632474,19.13079448,1081.683772
9.0500,-3.09602213,19.13419285,1081.702985
9.0550,-3.09970073,19.13756182,1081.722344
9.0600,-3.103648525,19.14088752,1081.741845
9.0650,-3.107892975,19.14422922,1081.76151
9.0700,-3.112451156,19.14755701,1081.781337
9.0750,-3.117340526,19.15088346,1081.801327
9.0800,-3.122547848,19.15422429,1081.821458
9.0850,-3.128080766,19.15757183,1081.841743
9.0900,-3.133861586,19.16092901,1081.862157
9.0950,-3.139894749,19.16427452,1081.88269
9.1000,-3.146143385,19.16764613,1081.903345
9.1050,-3.152620575,19.17104815,1081.924093
9.1100,-3.159263319,19.17452741,1081.944945
9.1150,-3.166019232,19.1780461,1081.965869
9.1200,-3.172886577,19.181583,1081.98686
9.1250,-3.179876692,19.18516389,1082.007912
9.1300,-3.186935678,19.18877813,1082.02902
9.1350,-3.194128469,19.19239623,1082.050175
9.1400,-3.201386159,19.19601033,1082.071334
9.1450,-3.208712334,19.19965256,1082.09251
9.1500,-3.216148503,19.2032979,1082.113703
9.1550,-3.223626736,19.20699092,1082.134905
9.1600,-3.231120387,19.21073115,1082.156113
9.1650,-3.238577212,19.21447824,1082.17728
9.1700,-3.245984359,19.21828139,1082.19842
9.1750,-3.25336793,19.22209792,1082.219522
9.1800,-3.260725122,19.22595201,1082.240588
9.1850,-3.268045904,19.22982557,1082.261593
9.1900,-3.275378969,19.23372628,1082.282555
9.1950,-3.282669098,19.23763865,1082.303445
9.2000,-3.289934111,19.24159281,1082.324278
9.2050,-3.297131603,19.24558615,1082.345037
9.2100,-3.304294351,19.24960597,1082.365727
9.2150,-3.311374332,19.25364262,1082.386335
9.2200,-3.318367366,19.25774756,1082.406861
9.2250,-3.325285872,19.26189454,1082.427314
9.2300,-3.3320998,19.26609484,1082.447662
9.2350,-3.33874705,19.27035246,1082.467905
9.2400,-3.345288117,19.2746479,1082.488049
9.2450,-3.35169695,19.27898834,1082.508081
9.2500,-3.357989362,19.28342491,1082.528044
9.2550,-3.364123186,19.28791771,1082.547918
9.2600,-3.370101949,19.29249875,1082.567716
9.2650,-3.375958989,19.29714537,1082.587451
9.2700,-3.381692724,19.30185098,1082.607127
9.2750,-3.387340798,19.30663664,1082.626758
9.2800,-3.392829888,19.31147401,1082.646338
9.2850,-3.398182215,19.31629077,1082.66584
9.2900,-3.403431234,19.32114622,1082.685296
9.2950,-3.408653259,19.32602419,1082.704731
9.3000,-3.41382977,19.33093128,1082.72414
9.3050,-3.41897457,19.33584692,1082.743526
9.3100,-3.424145604,19.34070173,1082.762883
9.3150,-3.429363288,19.34553524,1082.782217
9.3200,-3.434615566,19.35029922,1082.801527
9.3250,-3.43992841,19.35502649,1082.820809
9.3300,-3.44531375,19.35967593,1082.840059
9.3350,-3.450769573,19.36422262,1082.859257
9.3400,-3.456330317,19.36869891,1082.87843
9.3450,-3.462035454,19.37304901,1082.897566
9.3500,-3.467836943,19.37730944,1082.916642
9.3550,-3.473747243,19.3814485,1082.935661
9.3600,-3.479818581,19.38549455,1082.954646
9.3650,-3.486022673,19.38939591,1082.973555
9.3700,-3.492330142,19.39319208,1082.992382
9.3750,-3.498704873,19.39687733,1083.011117
9.3800,-3.505077971,19.40046943,1083.029745
9.3850,-3.511436922,19.40393401,1083.048234
9.3900,-3.517829088,19.40727283,1083.066591
9.3950,-3.524229326,19.41048928,1083.0848
9.4000,-3.530631996,19.41356276,1083.102835
9.4050,-3.537012045,19.41647321,1083.120686
9.4100,-3.543339379,19.41917887,1083.138315
9.4150,-3.549667987,19.42171943,1083.155748
9.4200,-3.555976921,19.42410744,1083.172965
9.4250,-3.56223178,19.42636053,1083.189967
9.4300,-3.568445491,19.42849581,1083.206751
9.4350,-3.574573961,19.43053583,1083.223296
9.4400,-3.580611233,19.43248184,1083.239623
9.4450,-3.58656423,19.43433464,1083.255704
9.4500,-3.592386163,19.43609831,1083.271527
9.4550,-3.598074119,19.43773617,1083.287077
9.4600,-3.603628179,19.43925002,1083.302362
9.4650,-3.609034366,19.44070873,1083.317387
9.4700,-3.614280627,19.44203442,1083.332116
9.4750,-3.619399723,19.44328655,1083.34659
9.4800,-3.624357239,19.44443059,1083.360774
9.4850,-3.629122794,19.4455091,1083.374695
9.4900,-3.633668587,19.44652835,1083.388333
9.4950,-3.637999926,19.44747621,1083.401696
9.5000,-3.642079079,19.44835944,1083.414783
9.5050,-3.645905245,19.44916611,1083.427593
9.5100,-3.649464419,19.4499069,1083.440127
9.5150,-3.652772823,19.45056691,1083.452381
9.5200,-3.655845594,19.45115032,1083.464371
9.5250,-3.658664713,19.45165942,1083.47609
9.5300,-3.661253739,19.45209471,1083.48757
9.5350,-3.66362886,19.45246208,1083.498815
9.5400,-3.665776917,19.45276496,1083.509823
9.5450,-3.6677139,19.45298977,1083.520599
9.5500,-3.669394073,19.45313327,1083.531117
9.5550,-3.670875224,19.45321195,1083.541415
9.5600,-3.672128966,19.4532287,1083.551492
9.5650,-3.673157529,19.45314899,1083.561348
9.5700,-3.673921913,19.45302491,1083.570991
9.5750,-3.67445527,19.45281552,1083.580419
9.5800,-3.674822869,19.45250435,1083.589655
9.5850,-3.675010336,19.45214428,1083.598709
9.5900,-3.675007648,19.45171441,1083.607582
9.5950,-3.674835035,19.45120558,1083.616269
9.6000,-3.674487759,19.45063819,1083.624784
9.6050,-3.673956184,19.44997167,1083.633114
9.6100,-3.67326108,19.44923033,1083.641273
9.6150,-3.672417321,19.44838542,1083.649269
9.6200,-3.671461503,19.4474887,1083.657126
9.6250,-3.670438321,19.44649426,1083.664853
9.6300,-3.669351054,19.44548181,1083.672469
9.6350,-3.668241882,19.44439991,1083.679985
9.6400,-3.667158943,19.44329107,1083.687426
9.6450,-3.666141495,19.44212798,1083.694797
9.6500,-3.66523911,19.44089796,1083.702125
9.6550,-3.664446536,19.43967036,1083.709423
9.6600,-3.663760833,19.43842662,1083.716672
9.6650,-3.663168515,19.43721312,1083.723895
9.6700,-3.662747949,19.43599863,1083.7311
9.6750,-3.662528734,19.43481237,1083.738313
9.6800,-3.66253094,19.43364632,1083.745534
9.6850,-3.662761842,19.43260708,1083.752812
9.6900,-3.663211304,19.43164432,1083.760139
9.6950,-3.663835444,19.43079807,1083.767519
9.7000,-3.66458157,19.43010232,1083.774947
9.7050,-3.665436017,19.42954664,1083.782435
9.7100,-3.666384619,19.42915378,1083.789976
9.7150,-3.667375027,19.4289018,1083.797563
9.7200,-3.668409325,19.42876336,1083.805185
9.7250,-3.669473773,19.42873296,1083.812841
9.7300,-3.670538998,19.4287867,1083.820509
9.7350,-3.671561074,19.42891668,1083.828185
9.7400,-3.672505695,19.42912417,1083.835859
9.7450,-3.673327054,19.42940372,1083.843515
9.7500,-3.674016823,19.42974222,1083.85115
9.7550,-3.674597723,19.43011114,1083.858757
9.7600,-3.675087733,19.43050597,1083.866344
9.7650,-3.675512699,19.43086238,1083.873908
9.7700,-3.675840875,19.43123092,1083.881455
9.7750,-3.676024021,19.43156319,1083.888947
9.7800,-3.676064206,19.43189481,1083.896402
9.7850,-3.675917816,19.43219188,1083.903789
9.7900,-3.675584827,19.43242154,1083.911095
9.7950,-3.675043512,19.43261404,1083.918317
9.8000,-3.674294019,19.43271755,1083.925436
9.8050,-3.673357375,19.43274144,1083.932457
9.8100,-3.672169775,19.43266857,1083.939327
9.8150,-3.670699217,19.43253466,1083.946058
9.8200,-3.668888095,19.43228446,1083.952601
9.8250,-3.66666079,19.4319932,1083.95894
9.8300,-3.663971555,19.43164631,1083.965034
9.8350,-3.660840901,19.43121799,1083.97088
9.8400,-3.657248197,19.43065156,1083.976428
9.8450,-3.653179827,19.42999786,1083.981686
9.8500,-3.648711395,19.42921514,1083.986646
9.8550,-3.643797551,19.42828585,1083.99127
9.8600,-3.638462354,19.42716207,1083.995529
9.8650,-3.632724438,19.42588109,1083.99942
9.8700,-3.626676742,19.42440302,1084.002948
9.8750,-3.620319593,19.42273948,1084.006105
9.8800,-3.613743023,19.42091602,1084.008917
9.8850,-3.606996485,19.41894694,1084.011403
9.8900,-3.600148782,19.41687197,1084.013598
9.8950,-3.593236857,19.41466241,1084.015499
9.9000,-3.586312372,19.4123826,1084.017137
9.9050,-3.579467125,19.41005602,1084.018551
9.9100,-3.572702901,19.40773149,1084.019759
9.9150,-3.566046383,19.40547595,1084.020785
9.9200,-3.559546235,19.40329323,1084.02166
9.9250,-3.553231214,19.40124629,1084.022425
9.9300,-3.547173067,19.39929369,1084.023089
9.9350,-3.541385306,19.39747365,1084.023669
9.9400,-3.535871374,19.39583116,1084.024186
9.9450,-3.530650263,19.39435333,1084.024646
9.9500,-3.525727757,19.39304879,1084.025062
9.9550,-3.521137179,19.39190576,1084.025446
9.9600,-3.516874831,19.39091415,1084.025801
9.9650,-3.512987409,19.39006768,1084.026143
9.9700,-3.509422721,19.38934796,1084.026464
9.9750,-3.506168309,19.38872675,1084.026741
9.9800,-3.503267561,19.38817135,1084.026979
9.9850,-3.500756313,19.38760881,1084.027174
9.9900,-3.49857876,19.3870452,1084.027305
9.9950,-3.496762833,19.386436,1084.027372
10.0000,-3.495380188,19.38570963,1084.027382
10.0050,-3.494406665,19.38484998,1084.027313
10.0100,-3.493867412,19.38380968,1084.027173
10.0150,-3.49374228,19.38262622,1084.026966
10.0200,-3.49399986,19.38129858,1084.026686
10.0250,-3.494571824,19.37980723,1084.026304
10.0300,-3.49546891,19.37816179,1084.02582
10.0350,-3.496681391,19.37634099,1084.025232
10.0400,-3.498227054,19.37434421,1084.024538
10.0450,-3.500080479,19.37217729,1084.023747
10.0500,-3.502234358,19.36985435,1084.022855
10.0550,-3.504595273,19.36744778,1084.021855
10.0600,-3.50712877,19.36494081,1084.020723
10.0650,-3.509755151,19.36237289,1084.019441
10.0700,-3.512476188,19.35973268,1084.01801
10.0750,-3.515278112,19.35704818,1084.016423
10.0800,-3.518103468,19.35431188,1084.014651
10.0850,-3.520999544,19.35154919,1084.012699
10.0900,-3.523904323,19.34880154,1084.010561
10.0950,-3.526798805,19.34608725,1084.008228
10.1000,-3.529581722,19.34347612,1084.005669
10.1050,-3.532208147,19.34098965,1084.002863
10.1100,-3.534672185,19.33865687,1083.999824
10.1150,-3.536912752,19.33647127,1083.996507
10.1200,-3.538941342,19.33442729,1083.992912
10.1250,-3.540770675,19.3324952,1083.989029
10.1300,-3.542407627,19.33065939,1083.984837
10.1350,-3.543781497,19.32895273,1083.980307
10.1400,-3.544881858,19.32739615,1083.975446
10.1450,-3.545670243,19.32599122,1083.970232
10.1500,-3.546096626,19.32471433,1083.964641
10.1550,-3.546209184,19.32355544,1083.95869
10.1600,-3.545998708,19.32255606,1083.952398
10.1650,-3.545472422,19.32166309,1083.945735
10.1700,-3.544618392,19.32087092,1083.938705
10.1750,-3.543463073,19.32020604,1083.931332
10.1800,-3.541963101,19.31964894,1083.923593
10.1850,-3.540110879,19.31916649,1083.915483
10.1900,-3.537940849,19.31871358,1083.906998
10.1950,-3.535463143,19.31834173,1083.898174
10.2000,-3.532741388,19.31797273,1083.889001
10.2050,-3.529778439,19.3176276,1083.879515
10.2100,-3.526637003,19.31730075,1083.869742
10.2150,-3.523370701,19.31691647,1083.859685
10.2200,-3.520019391,19.31648706,1083.849366
10.2250,-3.516617182,19.31595674,1083.838776
10.2300,-3.513131165,19.31537409,1083.827942
10.2350,-3.509660325,19.31474036,1083.816911
10.2400,-3.506131125,19.31405852,1083.805667
10.2450,-3.502588972,19.3133602,1083.794255
10.2500,-3.499052806,19.3126358,1083.78267
10.2550,-3.495511105,19.31186934,1083.770923
10.2600,-3.491955375,19.31110637,1083.759041
10.2650,-3.48842337,19.31031911,1083.747029
10.2700,-3.48490893,19.30952504,1083.734898
10.2750,-3.481427923,19.30869847,1083.722655
10.2800,-3.478024597,19.30784182,1083.710334
10.2850,-3.474664256,19.30691714,1083.697905
10.2900,-3.471409581,19.30593955,1083.685412
10.2950,-3.468264,19.30490565,1083.672848
10.3000,-3.465220662,19.30379853,1083.660228
10.3050,-3.462266833,19.30261099,1083.647543
10.3100,-3.459434419,19.30137648,1083.634817
10.3150,-3.456754896,19.30007359,1083.622054
10.3200,-3.454238713,19.29870573,1083.60927
10.3250,-3.45195069,19.29727382,1083.596495
10.3300,-3.44983203,19.29579743,1083.583732
10.3350,-3.447896959,19.2942706,1083.570993
10.3400,-3.446164396,19.29272835,1083.558292
10.3450,-3.444624426,19.29116372,1083.545627
10.3500,-3.443265871,19.28957677,1083.533001
10.3550,-3.442139766,19.28796086,1083.520437
10.3600,-3.441171257,19.28636506,1083.507935
10.3650,-3.440379617,19.28479636,1083.495511
10.3700,-3.439694146,19.28323354,1083.483125
10.3750,-3.439119997,19.28171593,1083.470798
10.3800,-3.438662539,19.28018784,1083.458525
10.3850,-3.438247999,19.27870973,1083.446303
10.3900,-3.437834512,19.27729993,1083.434129
10.3950,-3.437434536,19.27593037,1083.421996
10.4000,-3.437075557,19.27461664,1083.409924
10.4050,-3.436720983,19.27331177,1083.397906
10.4100,-3.436355236,19.27208352,1083.385945
10.4150,-3.436019362,19.27087675,1083.374051
10.4200,-3.435708285,19.26970759,1083.362221
10.4250,-3.435418738,19.26855536,1083.350439
10.4300,-3.435144269,19.26742791,1083.338725
10.4350,-3.434929775,19.26629811,1083.327077
10.4400,-3.43476996,19.26518295,1083.315499
10.4450,-3.434668875,19.26404114,1083.30398
10.4500,-3.434632686,19.26289513,1083.292524
10.4550,-3.434621292,19.26173338,1083.281109
10.4600,-3.434651982,19.26060164,1083.269741
10.4650,-3.4347192,19.25948776,1083.25843
10.4700,-3.434829514,19.25844295,1083.247178
10.4750,-3.434976176,19.25742572,1083.235972
10.4800,-3.435111402,19.2564728,1083.224814
10.4850,-3.435292834,19.25559847,1083.213715
10.4900,-3.435464187,19.25481095,1083.202659
10.4950,-3.435611311,19.25410051,1083.19163
10.5000,-3.435678587,19.25349206,1083.180634
10.5050,-3.435722923,19.25297553,1083.169657
10.5100,-3.435702399,19.25255247,1083.158692
10.5150,-3.435611836,19.25224756,1083.147735
10.5200,-3.435424954,19.2520724,1083.136787
10.5250,-3.43511819,19.25203815,1083.125832
10.5300,-3.434779772,19.25212793,1083.114888
10.5350,-3.434368302,19.25234201,1083.103928
10.5400,-3.43397114,19.25264804,1083.092965
10.5450,-3.433552551,19.25302809,1083.081964
10.5500,-3.433151652,19.25350029,1083.070941
10.5550,-3.432786498,19.25403486,1083.059878
10.5600,-3.432541008,19.25462467,1083.048777
10.5650,-3.432395026,19.25525692,1083.037633
10.5700,-3.432350697,19.25596295,1083.02643
10.5750,-3.43240904,19.25672198,1083.015172
10.5800,-3.432516544,19.25752559,1083.003838
10.5850,-3.432667083,19.25843245,1082.992437
10.5900,-3.432846036,19.25944233,1082.980959
10.5950,-3.43304297,19.26055674,1082.969401
10.6000,-3.433255657,19.26180411,1082.957759
10.6050,-3.433481573,19.26319948,1082.946028
10.6100,-3.433720142,19.2647192,1082.934211
10.6150,-3.433903137,19.2664068,1082.922294
10.6200,-3.434048186,19.26823412,1082.910273
10.6250,-3.434140039,19.27018824,1082.898116
10.6300,-3.43420195,19.27225083,1082.885832
10.6350,-3.434167961,19.27438939,1082.873365
10.6400,-3.434043473,19.27655394,1082.860714
10.6450,-3.433846992,19.27872175,1082.847869
10.6500,-3.433578848,19.28084807,1082.834812
10.6550,-3.433237191,19.28292556,1082.821534
10.6600,-3.432846689,19.28493677,1082.808021
10.6650,-3.432390068,19.28685056,1082.794264
10.6700,-3.431874738,19.28873981,1082.7803
10.6750,-3.431261355,19.29057831,1082.766088
10.6800,-3.430521916,19.29240913,1082.751634
10.6850,-3.429674163,19.29418744,1082.736929
10.6900,-3.428751252,19.29590624,1082.72197
10.6950,-3.427679024,19.29756805,1082.706747
10.7000,-3.426448827,19.29915278,1082.691245
10.7050,-3.425022447,19.30068835,1082.675452
10.7100,-3.423399454,19.30211301,1082.659363
10.7150,-3.421525368,19.30345293,1082.642974
10.7200,-3.419364157,19.30472601,1082.626286
10.7250,-3.416923058,19.30588359,1082.609288
10.7300,-3.414218605,19.30689972,1082.591981
10.7350,-3.41120798,19.30779967,1082.574365
10.7400,-3.40786772,19.30857476,1082.556438
10.7450,-3.404214829,19.30927591,1082.538233
10.7500,-3.400252378,19.3099151,1082.519753
10.7550,-3.39599899,19.31051132,1082.501013
10.7600,-3.391422708,19.31101339,1082.482011
10.7650,-3.386565672,19.31146814,1082.462757
10.7700,-3.38141602,19.31179753,1082.44325
10.7750,-3.3760207,19.31204532,1082.423508
10.7800,-3.370427674,19.3122006,1082.403544
10.7850,-3.364585976,19.3123002,1082.383374
10.7900,-3.358506069,19.31235532,1082.363006
10.7950,-3.352187815,19.31243142,1082.342475
10.8000,-3.345652733,19.3125255,1082.32179
10.8050,-3.338876693,19.31261975,1082.30096
10.8100,-3.331844086,19.31269077,1082.279984
10.8150,-3.32457913,19.31280122,1082.258886
10.8200,-3.317054438,19.31294784,1082.237661
10.8250,-3.309307891,19.31315331,1082.216351
10.8300,-3.30128383,19.31341143,1082.194949
10.8350,-3.293003744,19.31373594,1082.173472
10.8400,-3.284480012,19.31413399,1082.151923
10.8450,-3.275742247,19.31463607,1082.130331
10.8500,-3.266772903,19.31518918,1082.108681
10.8550,-3.257606037,19.31585331,1082.086995
10.8600,-3.248228474,19.31659927,1082.065279
10.8650,-3.238665422,19.31743236,1082.043527
10.8700,-3.229000848,19.31828739,1082.021753
10.8750,-3.219259286,19.3191877,1081.999935
10.8800,-3.209485832,19.32015155,1081.978095
10.8850,-3.199726499,19.32111544,1081.956215
10.8900,-3.190018264,19.32206072,1081.934301
10.8950,-3.180413033,19.3229839,1081.912356
10.9000,-3.170936174,19.32384147,1081.890359
10.9050,-3.161653893,19.32471003,1081.868357
10.9100,-3.152516187,19.3255774,1081.846313
10.9150,-3.143551401,19.32642922,1081.824227
10.9200,-3.134746243,19.32732135,1081.802095
10.9250,-3.126081343,19.32827733,1081.779927
10.9300,-3.117525565,19.32932058,1081.757705
10.9350,-3.109109477,19.33048938,1081.735449
10.9400,-3.100791702,19.33178909,1081.713138
10.9450,-3.092589439,19.33323032,1081.69077
10.9500,-3.084471259,19.33482219,1081.668333
10.9550,-3.076426745,19.33655271,1081.645807
10.9600,-3.068430845,19.33840903,1081.623204
10.9650,-3.060534342,19.34039029,1081.600515
10.9700,-3.052697242,19.34246132,1081.577701
10.9750,-3.044930569,19.34459977,1081.554776
10.9800,-3.037225442,19.34681387,1081.531715
10.9850,-3.029530473,19.34912227,1081.508517
10.9900,-3.021836627,19.35147633,1081.48517
10.9950,-3.014157558,19.35390977,1081.461676
11.0000,-3.006487967,19.35643202,1081.438034
11.0050,-2.998857247,19.35899612,1081.414232
11.0100,-2.991215779,19.36161066,1081.390257
11.0150,-2.983580196,19.3642695,1081.366101
11.0200,-2.975926658,19.3669366,1081.341746
11.0250,-2.96826841,19.36963391,1081.317215
11.0300,-2.960567866,19.37237221,1081.292481
11.0350,-2.952804305,19.3751127,1081.267551
11.0400,-2.944998504,19.37783835,1081.242408
11.0450,-2.937137829,19.38050681,1081.217049
11.0500,-2.929218198,19.3830922,1081.191467
11.0550,-2.921236551,19.38558482,1081.165663
11.0600,-2.913199167,19.38797007,1081.139624
11.0650,-2.90508064,19.39024215,1081.113377
11.0700,-2.89682566,19.3924129,1081.086905
11.0750,-2.888377369,19.39448788,1081.060213
11.0800,-2.87973429,19.39644294,1081.033296
11.0850,-2.870918907,19.39818864,1081.006138
11.0900,-2.861934432,19.39975849,1080.97876
11.0950,-2.852789894,19.40108242,1080.951143
11.1000,-2.843529618,19.40216406,1080.923316
11.1050,-2.834081026,19.40307422,1080.895279
11.1100,-2.824494942,19.40380249,1080.867042
11.1150,-2.814765903,19.40434293,1080.838617
11.1200,-2.804939895,19.40471781,1080.810018
11.1250,-2.79498749,19.40488842,1080.781237
11.1300,-2.784911403,19.40490564,1080.752273
11.1350,-2.774683855,19.40479582,1080.72315
11.1400,-2.764247673,19.40453421,1080.693864
11.1450,-2.753618854,19.40412306,1080.66442
11.1500,-2.742770362,19.40361387,1080.634829
11.1550,-2.731721775,19.40297722,1080.605095
11.1600,-2.720446193,19.40222604,1080.575222
11.1650,-2.708944178,19.40137849,1080.545228
11.1700,-2.6972005,19.40047396,1080.515144
11.1750,-2.685204291,19.39952909,1080.484988
11.1800,-2.672948957,19.3984991,1080.454743
11.1850,-2.660461447,19.39742296,1080.42445
11.1900,-2.647716191,19.39626123,1080.394095
11.1950,-2.63473841,19.395045,1080.363715
11.2000,-2.621530726,19.39376816,1080.333312
11.2050,-2.608084729,19.39235356,1080.302872
11.2100,-2.594404489,19.39079474,1080.272416
11.2150,-2.580537114,19.38904377,1080.241948
11.2200,-2.56647679,19.38707593,1080.211478
11.2250,-2.552289906,19.38486116,1080.181022
11.2300,-2.538019134,19.38236025,1080.150583
11.2350,-2.52369463,19.37951786,1080.120184
11.2400,-2.509357651,19.37636222,1080.08983
11.2450,-2.495027625,19.37284361,1080.059525
11.2500,-2.480707954,19.36898108,1080.029293
11.2550,-2.466451622,19.36478252,1079.999138
11.2600,-2.452286282,19.36019709,1079.969051
11.2650,-2.438207791,19.35527224,1079.939049
11.2700,-2.424253179,19.35000477,1079.909138
11.2750,-2.410391275,19.34443051,1079.879318
11.2800,-2.396635077,19.3385281,1079.849601
11.2850,-2.383039574,19.33230594,1079.81999
11.2900,-2.369567024,19.32581085,1079.790495
11.2950,-2.356189429,19.31903181,1079.761117
11.3000,-2.34289984,19.31192255,1079.731854
11.3050,-2.329669902,19.30453467,1079.702719
11.3100,-2.316537796,19.29683558,1079.673729
11.3150,-2.303506388,19.28884179,1079.644882
11.3200,-2.290594925,19.28059562,1079.6162
11.3250,-2.277819506,19.27207723,1079.587679
11.3300,-2.265171316,19.26330505,1079.559334
11.3350,-2.25267759,19.25430354,1079.531157
11.3400,-2.240272708,19.24509595,1079.503154
11.3450,-2.227953511,19.23566498,1079.475298
11.3500,-2.21567315,19.22608642,1079.447614
11.3550,-2.203415762,19.2163465,1079.420094
11.3600,-2.191188355,19.20649223,1079.392749
11.3650,-2.178952251,19.19651391,1079.365556
11.3700,-2.166756981,19.18646369,1079.338529
11.3750,-2.15462843,19.17633464,1079.311669
11.3800,-2.142568667,19.16612732,1079.284984
11.3850,-2.130578929,19.15590578,1079.258482
11.3900,-2.118686952,19.1456586,1079.232157
11.3950,-2.106886368,19.13545095,1079.206022
11.4000,-2.095173885,19.12531031,1079.180068
11.4050,-2.083572208,19.11524074,1079.15429
11.4100,-2.07205809,19.10532551,1079.1287
11.4150,-2.060615537,19.09552485,1079.103292
11.4200,-2.04921511,19.08586782,1079.078066
11.4250,-2.037812388,19.07643105,1079.053025
11.4300,-2.026475344,19.06714697,1079.028157
11.4350,-2.01519763,19.05802832,1079.003454
11.4400,-2.004064601,19.04909607,1078.978938
11.4450,-1.9930416,19.04032986,1078.95459
11.4500,-1.982156093,19.0317089,1078.930435
11.4550,-1.97142352,19.02322,1078.906455
11.4600,-1.960853792,19.01485479,1078.882651
11.4650,-1.950436939,19.00664978,1078.859023
11.4700,-1.940165477,18.99856116,1078.83555
11.4750,-1.930016764,18.99059619,1078.812239
11.4800,-1.919969529,18.98280531,1078.789084
11.4850,-1.910040414,18.97520645,1078.766098
11.4900,-1.900198966,18.96785109,1078.743275
11.4950,-1.890432706,18.9607001,1078.720598
11.5000,-1.880726224,18.95381925,1078.698085
11.5050,-1.871071139,18.94718485,1078.675736
11.5100,-1.861529351,18.94079172,1078.653534
11.5150,-1.852045333,18.93466117,1078.631477
11.5200,-1.842691662,18.92871577,1078.609564
11.5250,-1.833402402,18.92295245,1078.587774
11.5300,-1.824191726,18.91734741,1078.566112
11.5350,-1.815076517,18.91191922,1078.54456
11.5400,-1.806096034,18.90660611,1078.523124
11.5450,-1.797203659,18.90143787,1078.501803
11.5500,-1.788442324,18.89643612,1078.480591
11.5550,-1.779761851,18.89155079,1078.459488
11.5600,-1.771171607,18.88685664,1078.4385
11.5650,-1.762630538,18.88229767,1078.417608
11.5700,-1.754135623,18.87786577,1078.396806
11.5750,-1.745675094,18.87354106,1078.376093
11.5800,-1.737240038,18.86934525,1078.35546
11.5850,-1.728828172,18.86525019,1078.334906
11.5900,-1.720437049,18.86125682,1078.314421
11.5950,-1.712092596,18.85734032,1078.294003
11.6000,-1.70378813,18.85352924,1078.273655
11.6050,-1.695512338,18.84976848,1078.253356
11.6100,-1.687240829,18.84610519,1078.233104
11.6150,-1.67899907,18.84249904,1078.212894
11.6200,-1.670792578,18.83891268,1078.192717
11.6250,-1.662615263,18.83540074,1078.172569
11.6300,-1.654490636,18.83190085,1078.152451
11.6350,-1.646409027,18.82849653,1078.132386
11.6400,-1.638413082,18.8251511,1078.112362
11.6450,-1.630447651,18.82192592,1078.092391
11.6500,-1.622545227,18.81879544,1078.072456
11.6550,-1.614671012,18.81582286,1078.052557
11.6600,-1.606830923,18.81303475,1078.03269
11.6650,-1.59904601,18.81042502,1078.012866
11.6700,-1.591277225,18.80802322,1077.993074
11.6750,-1.58351721,18.80582134,1077.973308
11.6800,-1.575762033,18.80383307,1077.953565
11.6850,-1.568035834,18.80207434,1077.933851
11.6900,-1.560288563,18.8005454,1077.914165
11.6950,-1.552543428,18.79922727,1077.894504
11.7000,-1.544747571,18.79807967,1077.874853
11.7050,-1.536973863,18.79708367,1077.855234
11.7100,-1.529187985,18.79622707,1077.835635
11.7150,-1.52143186,18.7955478,1077.816063
11.7200,-1.513659199,18.79502893,1077.796509
11.7250,-1.50592281,18.79462323,1077.776966
11.7300,-1.498157285,18.79438916,1077.757444
11.7350,-1.49041464,18.79432237,1077.737946
11.7400,-1.482599127,18.79439673,1077.718443
11.7450,-1.474737513,18.7946656,1077.698967
11.7500,-1.466810936,18.79512795,1077.6795
11.7550,-1.45883086,18.79580175,1077.660072
11.7600,-1.450800495,18.79661924,1077.640663
11.7650,-1.442700995,18.79756918,1077.621273
11.7700,-1.434566457,18.79866656,1077.601918
11.7750,-1.426440474,18.79988454,1077.582597
11.7800,-1.418305919,18.80123558,1077.563322
11.7850,-1.410160567,18.80268476,1077.544084
11.7900,-1.402011987,18.80424058,1077.524894
11.7950,-1.393853131,18.80594259,1077.505761
11.8000,-1.385685717,18.8077063,1077.48667
11.8050,-1.377453911,18.80956501,1077.467632
11.8100,-1.369165516,18.81150283,1077.448655
11.8150,-1.360850848,18.81349301,1077.429743
11.8200,-1.352473849,18.81556409,1077.410897
11.8250,-1.344062354,18.81765575,1077.392119
11.8300,-1.335599636,18.81971728,1077.373384
11.8350,-1.32708683,18.82173066,1077.354709
11.8400,-1.318477972,18.82365222,1077.336089
11.8450,-1.309812305,18.82541892,1077.31752
11.8500,-1.301091832,18.82690183,1077.298989
11.8550,-1.292347301,18.82810393,1077.280495
11.8600,-1.283626977,18.8289544,1077.26203
11.8650,-1.274963718,18.82940212,1077.243595
11.8700,-1.26632364,18.82937798,1077.225174
11.8750,-1.257800142,18.82886666,1077.206776
11.8800,-1.249366835,18.82784518,1077.188398
11.8850,-1.241019061,18.82627307,1077.170029
11.8900,-1.232824514,18.82413367,1077.151686
11.8950,-1.224785303,18.82136904,1077.133341
11.9000,-1.216915492,18.81802149,1077.115008
11.9050,-1.209309556,18.81406071,1077.096694
11.9100,-1.201960636,18.80947097,1077.078388
11.9150,-1.194890222,18.80431755,1077.060112
11.9200,-1.188118568,18.79856181,1077.041848
11.9250,-1.181637353,18.79223836,1077.023617
11.9300,-1.175487803,18.78540663,1077.005414
11.9350,-1.169682903,18.77805925,1076.987236
11.9400,-1.164176605,18.7702624,1076.969087
11.9450,-1.1590359,18.76204381,1076.950986
11.9500,-1.154249914,18.75342491,1076.932935
11.9550,-1.149776343,18.74443226,1076.914933
11.9600,-1.145564732,18.73507422,1076.89699
11.9650,-1.141561715,18.72539832,1076.879087
11.9700,-1.137822275,18.71536017,1076.861233
11.9750,-1.134304211,18.70503507,1076.843439
11.9800,-1.130947404,18.69447485,1076.825694
11.9850,-1.127740846,18.68372357,1076.808006
11.9900,-1.124686073,18.67278155,1076.790364
11.9950,-1.121781367,18.66167541,1076.772772
12.0000,-1.119030009,18.65050185,1076.755248
12.0050,-1.116390936,18.63931022,1076.737778
12.0100,-1.113839317,18.62817164,1076.720374
12.0150,-1.111274534,18.61711493,1076.703027
12.0200,-1.108687948,18.60618161,1076.685743
12.0250,-1.105996051,18.59541408,1076.668514
12.0300,-1.1031332,18.58482266,1076.651341
12.0350,-1.100006041,18.57441095,1076.634219
12.0400,-1.096583755,18.5642146,1076.617155
12.0450,-1.092847912,18.55415519,1076.600135
12.0500,-1.088759463,18.54426346,1076.583158
12.0550,-1.084245678,18.53448252,1076.566206
12.0600,-1.079296563,18.52488286,1076.549298
12.0650,-1.07388771,18.51537917,1076.53243
12.0700,-1.067924153,18.50600182,1076.515588
12.0750,-1.061340119,18.4967306,1076.498765
12.0800,-1.054067141,18.48755547,1076.481961
12.0850,-1.045993674,18.47851863,1076.465165
12.0900,-1.037083763,18.46957492,1076.44837
12.0950,-1.027270391,18.46073506,1076.431573
12.1000,-1.016513518,18.45200719,1076.414771
12.1050,-1.004915897,18.44338281,1076.397982
12.1100,-0.9925209477,18.43485776,1076.381213
12.1150,-0.9793742048,18.42639387,1076.364474
12.1200,-0.9655646558,18.41799054,1076.347772
12.1250,-0.9511590988,18.40960732,1076.331123
12.1300,-0.936289864,18.4012671,1076.31456
12.1350,-0.9210653388,18.39292133,1076.298089
12.1400,-0.9056268309,18.3845314,1076.281726
12.1450,-0.8900818221,18.37606209,1076.26549
12.1500,-0.8744863309,18.36750634,1076.249384
12.1550,-0.8589565584,18.35881547,1076.233431
12.1600,-0.8435097977,18.34989262,1076.217626
12.1650,-0.828231944,18.34069174,1076.20198
12.1700,-0.8132878305,18.33119253,1076.186519
12.1750,-0.7986983945,18.32128432,1076.17124
12.1800,-0.7845923739,18.31087878,1076.156155
12.1850,-0.7709935537,18.29995128,1076.141271
12.1900,-0.7579288106,18.28841992,1076.126579
12.1950,-0.7454590283,18.27630301,1076.112102
12.2000,-0.7336167006,18.2635302,1076.097831
12.2050,-0.7223720268,18.25010763,1076.083766
12.2100,-0.7117661215,18.23602579,1076.069911
12.2150,-0.7017686431,18.22127515,1076.056254
12.2200,-0.6923233568,18.20593791,1076.042799
12.2250,-0.6834120265,18.19003215,1076.029543
12.2300,-0.6749645588,18.17363277,1076.016484
12.2350,-0.666970846,18.1567298,1076.003617
12.2400,-0.6594395696,18.13941673,1075.990957
12.2450,-0.6523300242,18.12169486,1075.978482
12.2500,-0.6456191481,18.10360996,1075.966195
12.2550,-0.639340147,18.08522834,1075.954103
12.2600,-0.633497282,18.06657273,1075.942204
12.2650,-0.6280783378,18.04773712,1075.930508
12.2700,-0.6230447207,18.0288199,1075.919018
12.2750,-0.6183794164,18.00978427,1075.907719
12.2800,-0.6140932913,17.99071444,1075.896626
12.2850,-0.6101207564,17.97166525,1075.88573
12.2900,-0.6064195647,17.95268514,1075.875028
12.2950,-0.6029551341,17.93378883,1075.864505
12.3000,-0.5996705914,17.9150284,1075.854157
12.3050,-0.5964851016,17.89643652,1075.843968
12.3100,-0.5933267974,17.87796335,1075.833919
12.3150,-0.5901972366,17.85965761,1075.824008
12.3200,-0.5870390707,17.84151291,1075.814224
12.3250,-0.5838284275,17.8235738,1075.804567
12.3300,-0.5805565822,17.80585161,1075.795032
12.3350,-0.5772085013,17.78834558,1075.78561
12.3400,-0.5737577745,17.77106897,1075.776297
12.3450,-0.5701406086,17.75408512,1075.767086
12.3500,-0.5663574564,17.73734769,1075.75797
12.3550,-0.5623334331,17.72092757,1075.748947
12.3600,-0.5580043715,17.7048601,1075.740007
12.3650,-0.5532967198,17.68920588,1075.731144
12.3700,-0.5481851544,17.67400094,1075.722361
12.3750,-0.5426629963,17.65922522,1075.713653
12.3800,-0.5367049843,17.64490216,1075.705018
12.3850,-0.5303432164,17.63094986,1075.696455
12.3900,-0.5235729562,17.61735816,1075.687966
12.3950,-0.5164201777,17.60404818,1075.679545
12.4000,-0.508884668,17.59103924,1075.671203
12.4050,-0.5009266769,17.57824451,1075.66292
12.4100,-0.4924730528,17.56564162,1075.654684
12.4150,-0.4835288871,17.55318133,1075.64649
12.4200,-0.4740706783,17.5407861,1075.63833
12.4250,-0.4641145229,17.52843101,1075.6302
12.4300,-0.4536221426,17.51610107,1075.622092
12.4350,-0.4425968457,17.50376411,1075.614006
12.4400,-0.4309659218,17.49137285,1075.605919
12.4450,-0.4187165142,17.4789762,1075.597836
12.4500,-0.4058610872,17.46659791,1075.589766
12.4550,-0.3923195908,17.45417804,1075.581685
12.4600,-0.3781095906,17.44177509,1075.573604
12.4650,-0.3632359902,17.42934458,1075.565519
12.4700,-0.3476375335,17.4168841,1075.557422
12.4750,-0.3313231094,17.40443679,1075.549315
12.4800,-0.3143129546,17.39196203,1075.541196
12.4850,-0.2966425603,17.37949546,1075.533077
12.4900,-0.2782736838,17.36703964,1075.52495
12.4950,-0.2592463085,17.35458893,1075.516821
12.5000,-0.2395832466,17.34215603,1075.508699
12.5050,-0.2193475355,17.32977912,1075.500595
12.5100,-0.198577983,17.31746048,1075.492517
12.5150,-0.1772936518,17.30524253,1075.484472
12.5200,-0.1555915642,17.29313884,1075.476479
12.5250,-0.1334952047,17.28113344,1075.468535
12.5300,-0.1110862829,17.26922758,1075.460653
12.5350,-0.08838516058,17.2574858,1075.452842
12.5400,-0.06549640646,17.24588673,1075.445113
12.5450,-0.04243749933,17.23447085,1075.437472
12.5500,-0.01932575756,17.22324676,1075.429935
12.5550,0.003766635216,17.21222152,1075.422514
12.5600,0.02675513284,17.20137159,1075.415211
12.5650,0.04952785724,17.19068007,1075.408043
12.5700,0.07200275552,17.18014822,1075.401016
12.5750,0.09410636867,17.16982853,1075.394143
12.5800,0.1157770891,17.15972659,1075.387424
12.5850,0.1369395277,17.14982348,1075.380871
12.5900,0.1575827964,17.14012289,1075.374474
12.5950,0.1776704044,17.13069085,1075.368251
12.6000,0.1971915713,17.12152524,1075.362194
12.6050,0.2160627107,17.11256845,1075.356311
12.6100,0.2342239222,17.10385065,1075.350608
12.6150,0.2516885071,17.09537444,1075.345083
12.6200,0.2684014306,17.0871321,1075.339741
12.6250,0.2843538045,17.07909333,1075.334579
12.6300,0.299521209,17.07129513,1075.329603
12.6350,0.3139331761,17.06370448,1075.324805
12.6400,0.3275121467,17.05631645,1075.320197
12.6450,0.3402465597,17.04908643,1075.315776
12.6500,0.3521355609,17.04208884,1075.311551
12.6550,0.3631029873,17.03526197,1075.307526
12.6600,0.373165908,17.02858676,1075.303699
12.6650,0.382261307,17.02202341,1075.300076
12.6700,0.3903914188,17.01552132,1075.296653
12.6750,0.3975836945,17.0090962,1075.293431
12.6800,0.403773341,17.00267947,1075.290411
12.6850,0.4090284054,16.99634379,1075.28759
12.6900,0.4133600656,16.99007102,1075.284963
12.6950,0.416790483,16.9838632,1075.282531
12.7000,0.4193274038,16.97771523,1075.280289
12.7050,0.4210123652,16.97161757,1075.278232
12.7100,0.4218999048,16.96553252,1075.276348
12.7150,0.4220699706,16.95953474,1075.274629
12.7200,0.4216036971,16.95362887,1075.273063
12.7250,0.420596369,16.94785573,1075.271637
12.7300,0.4190978568,16.94220847,1075.270344
12.7350,0.4172666106,16.93670147,1075.269157
12.7400,0.4152118916,16.93141411,1075.26807
12.7450,0.4130301796,16.92624998,1075.267055
12.7500,0.4108318061,16.9212434,1075.266096
12.7550,0.408683863,16.91641274,1075.265185
12.7600,0.4066699609,16.91175143,1075.264311
12.7650,0.4048963388,16.9072954,1075.263455
12.7700,0.4034125053,16.90302222,1075.262608
12.7750,0.4022694594,16.89888319,1075.261759
12.7800,0.4015515962,16.89493932,1075.260902
12.7850,0.4012940038,16.8911186,1075.260024
12.7900,0.4014794008,16.88742433,1075.259128
12.7950,0.4021333674,16.88384459,1075.25821
12.8000,0.4032450034,16.88035201,1075.25727
12.8050,0.4048127648,16.87690113,1075.256303
12.8100,0.4068482821,16.87349244,1075.255308
12.8150,0.4093092407,16.8700326,1075.254283
12.8200,0.4121423041,16.86653435,1075.253238
12.8250,0.4152710549,16.86296684,1075.252182
12.8300,0.4186549412,16.85931867,1075.251119
12.8350,0.4222291214,16.85555071,1075.250057
12.8400,0.4259185684,16.85164973,1075.249004
12.8450,0.4296493435,16.84758105,1075.247968
12.8500,0.4333933922,16.84337499,1075.246956
12.8550,0.4370651878,16.83897016,1075.245973
12.8600,0.4406396453,16.83443347,1075.24503
12.8650,0.4440861299,16.82973686,1075.244125
12.8700,0.4473731542,16.82489977,1075.243267
12.8750,0.4504714098,16.81995925,1075.242459
12.8800,0.4533482075,16.81490496,1075.241707
12.8850,0.4560372708,16.80972883,1075.241004
12.8900,0.4584894964,16.80449629,1075.240367
12.8950,0.4607044868,16.79922441,1075.239791
12.9000,0.4626652969,16.79386354,1075.239282
12.9050,0.4644401331,16.78849064,1075.238832
12.9100,0.4659971165,16.78314016,1075.238453
12.9150,0.4673383343,16.77781593,1075.238146
12.9200,0.4685038817,16.77256375,1075.237911
12.9250,0.4694470173,16.76738317,1075.237758
12.9300,0.4702044472,16.76225474,1075.23768
12.9350,0.4707264291,16.75723315,1075.237693
12.9400,0.4710357435,16.75228774,1075.237792
12.9450,0.4711229993,16.74747157,1075.237986
12.9500,0.4709922427,16.74275,1075.238271
12.9550,0.4706344478,16.73813368,1075.238655
12.9600,0.470049069,16.73364862,1075.239141
12.9650,0.4692043667,16.7293404,1075.239737
12.9700,0.4680866876,16.72519073,1075.240445
12.9750,0.4666916829,16.72121239,1075.241267
12.9800,0.4649835353,16.71744208,1075.242213
12.9850,0.462959305,16.71381074,1075.24328
12.9900,0.4606244873,16.71037048,1075.244471
12.9950,0.4579667336,16.70711968,1075.245785
13.0000,0.4550286359,16.70406681,1075.247221
13.0050,0.4517950071,16.70122039,1075.248782
13.0100,0.4482454668,16.69860865,1075.250476
13.0150,0.4443867124,16.6961707,1075.252297
13.0200,0.4402359895,16.69393871,1075.254249
13.0250,0.4357997526,16.69191131,1075.256334
13.0300,0.4311439539,16.69005125,1075.258541
13.0350,0.426273786,16.68839873,1075.260879
13.0400,0.4211194305,16.6869374,1075.263357
13.0450,0.4157597414,16.68570619,1075.265974
13.0500,0.4101603267,16.68465744,1075.268734
13.0550,0.4043373422,16.68381446,1075.27164
13.0600,0.3983186133,16.68315077,1075.274688
13.0650,0.3920930244,16.68269354,1075.277885
13.0700,0.3856592107,16.68242095,1075.281234
13.0750,0.3790285254,16.68238091,1075.284739
13.0800,0.3722023135,16.68254507,1075.288398
13.0850,0.3650794561,16.68292532,1075.292233
13.0900,0.3576806557,16.68353694,1075.296243
13.0950,0.3500087087,16.68436453,1075.300427
13.1000,0.3420161203,16.68541292,1075.304798
13.1050,0.3337060109,16.68671099,1075.309363
13.1100,0.325058264,16.68827252,1075.314128
13.1150,0.3160335723,16.69009545,1075.319103
13.1200,0.3067006361,16.69216125,1075.324277
13.1250,0.2970352525,16.69448721,1075.329662
13.1300,0.2870651789,16.69705984,1075.335258
13.1350,0.2767921203,16.69985439,1075.341064
13.1400,0.2662341161,16.70285724,1075.347084
13.1450,0.2553678411,16.70607541,1075.353323
13.1500,0.2442098758,16.70947067,1075.359786
13.1550,0.232781917,16.71304733,1075.366467
13.1600,0.2210537017,16.71680573,1075.373383
13.1650,0.2090329992,16.72073825,1075.380534
13.1700,0.1967334203,16.72482287,1075.387919
13.1750,0.1841927848,16.72902499,1075.395538
13.1800,0.1713916992,16.73335599,1075.403398
13.1850,0.1583194549,16.73782875,1075.411501
13.1900,0.1449767744,16.74242181,1075.419843
13.1950,0.1314078591,16.7471278,1075.428422
13.2000,0.1175966234,16.75198311,1075.437238
13.2050,0.1035576295,16.7569784,1075.44629
13.2100,0.08930556353,16.76211342,1075.455572
13.2150,0.07487839367,16.76738774,1075.465076
13.2200,0.06024876382,16.7727962,1075.474808
13.2250,0.04550490656,16.77835216,1075.484752
13.2300,0.03058996735,16.7840156,1075.49491
13.2350,0.01557580147,16.78978386,1075.505269
13.2400,0.0004787474847,16.79566262,1075.515822
13.2450,-0.01464090752,16.80164441,1075.526557
13.2500,-0.02978458812,16.80766771,1075.537469
13.2550,-0.04489137084,16.81377363,1075.548544
13.2600,-0.05994462722,16.81987814,1075.559775
13.2650,-0.07492164135,16.82595711,1075.571152
13.2700,-0.08978924023,16.83201989,1075.582667
13.2750,-0.1045592706,16.8380616,1075.594317
13.2800,-0.1191658615,16.84406055,1075.606088
13.2850,-0.1336145015,16.85003355,1075.617983
13.2900,-0.1479025389,16.85594076,1075.629992
13.2950,-0.1620011051,16.86179025,1075.642113
13.3000,-0.1759402627,16.86759012,1075.654351
13.3050,-0.1897081482,16.87335373,1075.666697
13.3100,-0.203290672,16.87910621,1075.679152
13.3150,-0.216703537,16.88483322,1075.691722
13.3200,-0.2299302338,16.89057047,1075.704407
13.3250,-0.2429848788,16.89632079,1075.71721
13.3300,-0.2558592324,16.90212087,1075.730132
13.3350,-0.2686119818,16.90793757,1075.743184
13.3400,-0.2812279701,16.91379661,1075.756366
13.3450,-0.2937545719,16.91967734,1075.769684
13.3500,-0.3061832069,16.9255998,1075.783145
13.3550,-0.3185689213,16.93158166,1075.79676
13.3600,-0.3309514789,16.93764114,1075.810539
13.3650,-0.3433276789,16.94377717,1075.824486
13.3700,-0.3557774357,16.9500357,1075.838623
13.3750,-0.3683089711,16.95640168,1075.852952
13.3800,-0.3809586335,16.96288468,1075.867484
13.3850,-0.393695169,16.96946184,1075.882212
13.3900,-0.4065443809,16.97616367,1075.89715
13.3950,-0.4195942823,16.9829861,1075.912311
13.4000,-0.4328038689,16.98993526,1075.927684
13.4050,-0.4461400135,16.99702408,1075.94327
13.4100,-0.459632446,17.00424096,1075.959063
13.4150,-0.4732374942,17.01165519,1075.975073
13.4200,-0.4870164633,17.01923844,1075.991304
13.4250,-0.5008929248,17.02702758,1076.007749
13.4300,-0.5148920135,17.03500976,1076.02441
13.4350,-0.5289821639,17.04320395,1076.041289
13.4400,-0.5431505273,17.05160463,1076.058376
13.4450,-0.5573617476,17.06021076,1076.075671
13.4500,-0.5715963663,17.06903337,1076.093159
13.4550,-0.5858495295,17.07809675,1076.110859
13.4600,-0.6000504796,17.08736914,1076.128746
13.4650,-0.614192253,17.09684877,1076.146817
13.4700,-0.6282103642,17.10660071,1076.165074
13.4750,-0.6420828743,17.11660857,1076.183497
13.4800,-0.6557914549,17.12687259,1076.202077
13.4850,-0.6693474474,17.13743301,1076.220816
13.4900,-0.6827136255,17.14830054,1076.239713
13.4950,-0.6959178708,17.15945569,1076.25876
13.5000,-0.7089185231,17.1709069,1076.277947
13.5050,-0.7217199132,17.18269703,1076.29727
13.5100,-0.734320404,17.19479783,1076.316726
13.5150,-0.7467590911,17.20720328,1076.336309
13.5200,-0.7590178621,17.21989227,1076.356012
13.5250,-0.7711448411,17.23286846,1076.375834
13.5300,-0.7830932438,17.2460893,1076.395763
13.5350,-0.7949040763,17.25957076,1076.415795
13.5400,-0.8065729453,17.27327117,1076.435925
13.5450,-0.8181378199,17.2871676,1076.456151
13.5500,-0.8295528894,17.30125084,1076.47646
13.5550,-0.8408847523,17.31544984,1076.496845
13.5600,-0.8521248573,17.32976943,1076.517304
13.5650,-0.8632476845,17.34418258,1076.537836
13.5700,-0.8743100499,17.35865071,1076.558429
13.5750,-0.8852698536,17.37310518,1076.579078
13.5800,-0.8961555145,17.38751475,1076.599776
13.5850,-0.9070091011,17.40185682,1076.620517
13.5900,-0.917805868,17.41608581,1076.6413
13.5950,-0.9285122467,17.43019121,1076.662105
