type,name,time_units,begin_time,frequency,count,units
signal_3d,"Noraxon MyoMotion-Trajectories-Elbow RT","s",0.0000,200,5088,"mm"

time,x,y,z
0.0000,197.6025279,6.68772884,1239.226401
0.0050,197.5832608,6.670915437,1239.225241
0.0100,197.5639913,6.654104722,1239.224084
0.0150,197.5447193,6.637296695,1239.222929
0.0200,197.5224064,6.618969011,1239.221754
0.0250,197.4970172,6.599134627,1239.220554
0.0300,197.4686292,6.577788453,1239.219315
0.0350,197.4374464,6.554902924,1239.218001
0.0400,197.4038026,6.530428403,1239.216565
0.0450,197.3681612,6.504298808,1239.214942
0.0500,197.3311104,6.476440214,1239.213056
0.0550,197.2933426,6.446777686,1239.210822
0.0600,197.2556219,6.415239462,1239.20815
0.0650,197.2187516,6.381762085,1239.204951
0.0700,197.183548,6.346295976,1239.201135
0.0750,197.1508159,6.308809844,1239.196621
0.0800,197.1213196,6.269295615,1239.191338
0.0850,197.0957541,6.22777575,1239.185226
0.0900,197.0747253,6.184313585,1239.178247
0.0950,197.0587339,6.139022435,1239.170381
0.1000,197.0481613,6.092068192,1239.161632
0.1050,197.0432543,6.043668713,1239.152026
0.1100,197.0441156,5.994093967,1239.141617
0.1150,197.0506995,5.943663035,1239.130482
0.1200,197.062814,5.892735614,1239.118719
0.1250,197.0801289,5.841703664,1239.106447
0.1300,197.1021909,5.790987479,1239.093802
0.1350,197.1284473,5.741031338,1239.080932
0.1400,197.1582703,5.692291851,1239.067996
0.1450,197.1909788,5.645217871,1239.055155
0.1500,197.2258585,5.600225327,1239.042565
0.1550,197.2687116,5.509770313,1239.020446
0.1600,197.31165,5.421597807,1238.998833
0.1650,197.3542357,5.336794185,1238.977994
0.1700,197.3968077,5.254995776,1238.957814
0.1750,197.4375125,5.175474787,1238.938314
0.1800,197.4763827,5.099189764,1238.919686
0.1850,197.5138244,5.025148599,1238.901694
0.1900,197.5490396,4.953761346,1238.884496
0.1950,197.5810182,4.88500981,1238.868174
0.2000,197.6114196,4.818208152,1238.852431
0.2050,197.6406143,4.754101564,1238.837392
0.2100,197.6682857,4.691559641,1238.822851
0.2150,197.6928297,4.631456595,1238.809123
0.2200,197.7162216,4.573510986,1238.795963
0.2250,197.7375159,4.516989688,1238.783314
0.2300,197.7577495,4.462695068,1238.771243
0.2350,197.775728,4.409446658,1238.75961
0.2400,197.7927439,4.357475569,1238.748344
0.2450,197.8086619,4.306628377,1238.737436
0.2500,197.8244061,4.257129104,1238.726829
0.2550,197.8399975,4.20827126,1238.716381
0.2600,197.855851,4.160914431,1238.706224
0.2650,197.8718849,4.113880154,1238.696131
0.2700,197.8877123,4.067468454,1238.6862
0.2750,197.9035216,4.020594875,1238.676185
0.2800,197.9183595,3.974019788,1238.666323
0.2850,197.9330082,3.927488949,1238.656498
0.2900,197.9477841,3.881358659,1238.646742
0.2950,197.9634879,3.835872156,1238.63703
0.3000,197.9797602,3.790937464,1238.627384
0.3050,197.996412,3.746391145,1238.61777
0.3100,198.0135341,3.701184424,1238.607978
0.3150,198.0314444,3.656224697,1238.598146
0.3200,198.0509779,3.611593678,1238.588222
0.3250,198.0716495,3.56676636,1238.578145
0.3300,198.0929725,3.522378763,1238.568074
0.3350,198.1156831,3.47749073,1238.557754
0.3400,198.1393548,3.433253559,1238.547455
0.3450,198.1656326,3.389208552,1238.536948
0.3500,198.1925555,3.34508471,1238.526339
0.3550,198.2211204,3.300984879,1238.515564
0.3600,198.2513112,3.257601531,1238.504767
0.3650,198.2835897,3.214932747,1238.493906
0.3700,198.3174151,3.173139594,1238.483056
0.3750,198.3530855,3.132358117,1238.472225
0.3800,198.3903124,3.092714167,1238.461465
0.3850,198.4290569,3.05421935,1238.450771
0.3900,198.4690506,3.017552455,1238.440311
0.3950,198.5098984,2.982368751,1238.430039
0.4000,198.5502173,2.948370285,1238.420011
0.4050,198.5897281,2.916677546,1238.41048
0.4100,198.6282135,2.886393376,1238.401275
0.4150,198.6662578,2.857258218,1238.392301
0.4200,198.7037119,2.830901062,1238.38389
0.4250,198.7396294,2.806055342,1238.375869
0.4300,198.7729552,2.783866719,1238.368559
0.4350,198.804295,2.762980193,1238.361632
0.4400,198.8329991,2.743527496,1238.355182
0.4450,198.8588012,2.727031766,1238.349539
0.4500,198.8810074,2.712023776,1238.344456
0.4550,198.9002273,2.6979947,1238.339784
0.4600,198.915479,2.686387706,1238.335904
0.4650,198.9278755,2.676179748,1238.332501
0.4700,198.9364093,2.668310193,1238.329859
0.4750,198.9424653,2.661644252,1238.327636
0.4800,198.9451058,2.657119121,1238.326097
0.4850,198.9443369,2.654600818,1238.325212
0.4900,198.9405623,2.653632742,1238.324865
0.4950,198.933757,2.653658699,1238.324945
0.5000,198.9240635,2.654997105,1238.325488
0.5050,198.9095312,2.657215248,1238.326588
0.5100,198.8916667,2.659614052,1238.327975
0.5150,198.870663,2.661534682,1238.329504
0.5200,198.845083,2.662832456,1238.331268
0.5250,198.8164117,2.664331235,1238.333307
0.5300,198.7849023,2.664185526,1238.335241
0.5350,198.7500462,2.663281721,1238.337295
0.5400,198.7120523,2.660327514,1238.339187
0.5450,198.6717329,2.656552036,1238.341093
0.5500,198.6287298,2.65077723,1238.342818
0.5550,198.5832335,2.642410783,1238.344228
0.5600,198.5366596,2.631655077,1238.345255
0.5650,198.4888041,2.618421236,1238.345879
0.5700,198.4401853,2.603125267,1238.346136
0.5750,198.3910934,2.585107951,1238.345894
0.5800,198.3421316,2.563773343,1238.344965
0.5850,198.2929288,2.539214607,1238.343405
0.5900,198.2439354,2.511390716,1238.34116
0.5950,198.1942115,2.479870838,1238.338243
0.6000,198.1438738,2.444108353,1238.334526
0.6050,198.0937794,2.404665576,1238.330054
0.6100,198.0435446,2.361536802,1238.324851
0.6150,197.9931331,2.314259028,1238.31884
0.6200,197.9422221,2.262801487,1238.312031
0.6250,197.8915213,2.206745785,1238.30428
0.6300,197.8413202,2.146472976,1238.295636
0.6350,197.7915493,2.082066782,1238.28612
0.6400,197.7422439,2.012986035,1238.275624
0.6450,197.6929933,1.939808888,1238.264289
0.6500,197.6452855,1.862099812,1238.251907
0.6550,197.5977597,1.78048341,1238.238721
0.6600,197.5520085,1.69451351,1238.224499
0.6650,197.5074737,1.604494622,1238.209349
0.6700,197.4642064,1.510040974,1238.193194
0.6750,197.4217833,1.410805835,1238.176004
0.6800,197.3805851,1.307452793,1238.157878
0.6850,197.3403425,1.19965705,1238.138787
0.6900,197.3012657,1.086516079,1238.118525
0.6950,197.2637406,0.9695903848,1238.097368
0.7000,197.2284754,0.8483667349,1238.075168
0.7050,197.194605,0.72296486,1238.052027
0.7100,197.1626295,0.5934128773,1238.0279
0.7150,197.1306012,0.4608245673,1238.003173
0.7200,197.097516,0.3242559859,1237.977773
0.7250,197.0649296,0.1831670399,1237.95145
0.7300,197.0319369,0.03762711594,1237.924297
0.7350,196.9978234,-0.1114039529,1237.89658
0.7400,196.9629011,-0.263517059,1237.868333
0.7450,196.9267698,-0.4196178971,1237.839428
0.7500,196.8908457,-0.5793442384,1237.809813
0.7550,196.8541378,-0.7427054493,1237.77957
0.7600,196.8164355,-0.9107023765,1237.748525
0.7650,196.7772989,-1.082857234,1237.716812
0.7700,196.7377165,-1.260774221,1237.684044
0.7750,196.6968789,-1.442962627,1237.650579
0.7800,196.6563757,-1.630054289,1237.616152
0.7850,196.6158101,-1.823039388,1237.580622
0.7900,196.5770098,-2.021630713,1237.543869
0.7950,196.5387273,-2.225914215,1237.506006
0.8000,196.5016889,-2.435983665,1237.466958
0.8050,196.4676098,-2.65206184,1237.426525
0.8100,196.4368418,-2.87226938,1237.385031
0.8150,196.4092171,-3.097230602,1237.342366
0.8200,196.3855623,-3.327039899,1237.298453
0.8250,196.3664274,-3.562873744,1237.253015
0.8300,196.3517969,-3.803795067,1237.20623
0.8350,196.3427603,-4.049426431,1237.158068
0.8400,196.3393223,-4.30083892,1237.108355
0.8450,196.3414596,-4.558102871,1237.057085
0.8500,196.349769,-4.820836918,1237.00428
0.8550,196.3643216,-5.088693128,1236.949999
0.8600,196.385132,-5.362236017,1236.894147
0.8650,196.4116581,-5.641072046,1236.836857
0.8700,196.4454894,-5.925389945,1236.777964
0.8750,196.4865886,-6.215328754,1236.717444
0.8800,196.5348862,-6.510901928,1236.655331
0.8850,196.5903532,-6.81181938,1236.591673
0.8900,196.6538618,-7.11915418,1236.526239
0.8950,196.7257989,-7.432007157,1236.45915
0.9000,196.8069729,-7.750385396,1236.390348
0.9050,196.897237,-8.073790329,1236.319942
0.9100,196.9962373,-8.402052865,1236.24801
0.9150,197.1039922,-8.734966864,1236.174595
0.9200,197.2211047,-9.072792541,1236.099631
0.9250,197.3470953,-9.413722709,1236.023469
0.9300,197.4817141,-9.758822091,1235.945982
0.9350,197.6247468,-10.10669742,1235.867423
0.9400,197.7748693,-10.45688003,1235.788011
0.9450,197.9315803,-10.8098924,1235.707734
0.9500,198.0943916,-11.16483307,1235.626785
0.9550,198.2626178,-11.52079382,1235.545383
0.9600,198.4339336,-11.87786032,1235.463739
0.9650,198.60805,-12.23578687,1235.381922
0.9700,198.7832009,-12.59333916,1235.300293
0.9750,198.959803,-12.95081088,1235.218778
0.9800,199.1350359,-13.30707494,1235.137802
0.9850,199.3094973,-13.66211365,1235.057303
0.9900,199.4812045,-14.01536146,1234.977541
0.9950,199.6493436,-14.3673796,1234.898504
1.0000,199.8129557,-14.71819106,1234.820252
1.0050,199.9708897,-15.06648804,1234.743057
1.0100,200.121928,-15.41289754,1234.666936
1.0150,200.2670516,-15.75768964,1234.591752
1.0200,200.4047908,-16.10158523,1234.517512
1.0250,200.5332322,-16.44381659,1234.444478
1.0300,200.6530778,-16.78419509,1234.372598
1.0350,200.7641287,-17.12300764,1234.301842
1.0400,200.8650743,-17.46101406,1234.232196
1.0450,200.9564313,-17.79860151,1234.16355
1.0500,201.0369931,-18.13457083,1234.096158
1.0550,201.1077784,-18.46979919,1234.029808
1.0600,201.1687077,-18.80409613,1233.964533
1.0650,201.2209637,-19.13685025,1233.900307
1.0700,201.2634908,-19.46775202,1233.837246
1.0750,201.2964831,-19.79706125,1233.775296
1.0800,201.3195602,-20.12487927,1233.714472
1.0850,201.3334081,-20.4502672,1233.654834
1.0900,201.3368214,-20.77321712,1233.596481
1.0950,201.3316891,-21.09315076,1233.539324
1.1000,201.3173767,-21.40988231,1233.483435
1.1050,201.2949693,-21.72323474,1233.428749
1.1100,201.2640714,-22.03394941,1233.375199
1.1150,201.2262094,-22.34119163,1233.322773
1.1200,201.1820657,-22.64463183,1233.27145
1.1250,201.1313575,-22.94295603,1233.221425
1.1300,201.0742037,-23.23726173,1233.172546
1.1350,201.0116753,-23.5267122,1233.124816
1.1400,200.9448621,-23.80944872,1233.078362
1.1450,200.8744138,-24.08665332,1233.032967
1.1500,200.80138,-24.35650198,1232.988749
1.1550,200.7266663,-24.61913872,1232.945595
1.1600,200.6513561,-24.87428973,1232.90344
1.1650,200.5774015,-25.12164863,1232.862126
1.1700,200.504345,-25.36149757,1232.82164
1.1750,200.4331574,-25.59310294,1232.781956
1.1800,200.3653063,-25.81627407,1232.742955
1.1850,200.3012423,-26.03086327,1232.7046
1.1900,200.2410215,-26.23634236,1232.666901
1.1950,200.1844671,-26.43365177,1232.629753
1.2000,200.1313648,-26.6228283,1232.593144
1.2050,200.0829705,-26.80393997,1232.556933
1.2100,200.0389566,-26.97565815,1232.521291
1.2150,199.9999262,-27.13916639,1232.486009
1.2200,199.9658612,-27.29321738,1232.45121
1.2250,199.9363576,-27.43866691,1232.416822
1.2300,199.9112047,-27.57433168,1232.382973
1.2350,199.891332,-27.70103957,1232.349474
1.2400,199.8781297,-27.81814385,1232.316265
1.2450,199.8714706,-27.92599496,1232.283299
1.2500,199.8701811,-28.0244601,1232.250681
1.2550,199.8750568,-28.11427952,1232.218244
1.2600,199.8859726,-28.19571563,1232.185962
1.2650,199.9032938,-28.26848418,1232.153825
1.2700,199.9266831,-28.33415976,1232.12168
1.2750,199.954974,-28.39141487,1232.089745
1.2800,199.9891017,-28.4422832,1232.05773
1.2850,200.0277874,-28.48580603,1232.025831
1.2900,200.0704872,-28.52304326,1231.993972
1.2950,200.1173041,-28.55389415,1231.962151
1.3000,200.1675098,-28.57785756,1231.930483
1.3050,200.2218304,-28.59579681,1231.89882
1.3100,200.2798545,-28.60658828,1231.867319
1.3150,200.3407646,-28.61056986,1231.83601
1.3200,200.4041141,-28.60650401,1231.805079
1.3250,200.4689985,-28.59457817,1231.774567
1.3300,200.5351325,-28.57447599,1231.744558
1.3350,200.6015489,-28.54577479,1231.715172
1.3400,200.6690564,-28.50805288,1231.686399
1.3450,200.7369136,-28.46090253,1231.658367
1.3500,200.8045225,-28.40446787,1231.631113
1.3550,200.8706626,-28.33843949,1231.604779
1.3600,200.935829,-28.26259419,1231.579353
1.3650,200.9980187,-28.17741175,1231.554968
1.3700,201.0581582,-28.08236034,1231.531619
1.3750,201.1167863,-27.97855702,1231.509145
1.3800,201.1733363,-27.86724909,1231.487454
1.3850,201.2267573,-27.74787842,1231.466727
1.3900,201.2779756,-27.62183972,1231.446725
1.3950,201.3263759,-27.48919634,1231.42752
1.4000,201.3717994,-27.35097784,1231.409027
1.4050,201.4125747,-27.20728747,1231.391383
1.4100,201.4484149,-27.05907091,1231.374513
1.4150,201.4796242,-26.90575364,1231.358458
1.4200,201.5054816,-26.74816827,1231.343209
1.4250,201.5267812,-26.58649014,1231.328678
1.4300,201.5437291,-26.41933046,1231.315003
1.4350,201.5565313,-26.24780084,1231.302071
1.4400,201.5635029,-26.07241558,1231.28996
1.4450,201.5641574,-25.89264928,1231.278811
1.4500,201.5589767,-25.70936414,1231.268483
1.4550,201.5466143,-25.52307049,1231.259078
1.4600,201.5268613,-25.33361686,1231.250638
1.4650,201.4988542,-25.14103186,1231.24327
1.4700,201.4625333,-24.94475054,1231.237056
1.4750,201.417829,-24.74472544,1231.232037
1.4800,201.3643523,-24.54099714,1231.228235
1.4850,201.3026068,-24.33451276,1231.225531
1.4900,201.2320704,-24.12434289,1231.224099
1.4950,201.1533803,-23.91050394,1231.223916
1.5000,201.0671668,-23.69250214,1231.22502
1.5050,200.9723221,-23.47130539,1231.227411
1.5100,200.8710655,-23.24732624,1231.230861
1.5150,200.7628202,-23.02048413,1231.23546
1.5200,200.6476475,-22.79119942,1231.241151
1.5250,200.5254691,-22.55931914,1231.247977
1.5300,200.3964295,-22.32571889,1231.255842
1.5350,200.2603128,-22.08972432,1231.264874
1.5400,200.1165289,-21.85164639,1231.275087
1.5450,199.9650204,-21.61186268,1231.286473
1.5500,199.8066464,-21.37016845,1231.298986
1.5550,199.6404266,-21.12705702,1231.31268
1.5600,199.4671358,-20.88143256,1231.327647
1.5650,199.2870733,-20.63425142,1231.343767
1.5700,199.1001504,-20.38467899,1231.361197
1.5750,198.905672,-20.13339834,1231.379929
1.5800,198.7036461,-19.87854446,1231.4002
1.5850,198.4945211,-19.62228606,1231.421755
1.5900,198.2791249,-19.36330486,1231.444716
1.5950,198.0559706,-19.10238186,1231.469134
1.6000,197.8261659,-18.83959096,1231.494947
1.6050,197.5896905,-18.57548474,1231.522091
1.6100,197.3472713,-18.31051896,1231.550449
1.6150,197.0982042,-18.04475579,1231.580121
1.6200,196.8438209,-17.77756828,1231.611061
1.6250,196.5856549,-17.50928102,1231.643115
1.6300,196.3237935,-17.24080633,1231.67614
1.6350,196.0598159,-16.97142137,1231.710107
1.6400,195.7938306,-16.70050673,1231.745106
1.6450,195.5259939,-16.42892059,1231.780995
1.6500,195.2569894,-16.15699556,1231.817666
1.6550,194.9888386,-15.88395504,1231.855022
1.6600,194.7212383,-15.60928562,1231.893168
1.6650,194.456174,-15.3337152,1231.931802
1.6700,194.1941256,-15.0571373,1231.970887
1.6750,193.9350066,-14.77898012,1232.010502
1.6800,193.6801622,-14.49811752,1232.050702
1.6850,193.4295794,-14.21557865,1232.091314
1.6900,193.1833215,-13.93079756,1232.132435
1.6950,192.9409761,-13.64422601,1232.17402
1.7000,192.7031566,-13.35577061,1232.216003
1.7050,192.4708609,-13.0643979,1232.258426
1.7100,192.2447295,-12.77104067,1232.301068
1.7150,192.0232334,-12.47623963,1232.344046
1.7200,191.8075011,-12.1804643,1232.387146
1.7250,191.5956084,-11.88490396,1232.430412
1.7300,191.388654,-11.58954725,1232.47373
1.7350,191.1849508,-11.29508129,1232.517152
1.7400,190.9857617,-11.00160228,1232.560537
1.7450,190.7916215,-10.70762779,1232.604021
1.7500,190.6020892,-10.41435016,1232.647476
1.7550,190.4170023,-10.12091943,1232.691029
1.7600,190.2366714,-9.827456604,1232.734601
1.7650,190.0607493,-9.534073929,1232.778211
1.7700,189.8894123,-9.24142121,1232.821722
1.7750,189.7230876,-8.949636177,1232.865037
1.7800,189.5602762,-8.658501112,1232.908366
1.7850,189.4005348,-8.368101175,1232.951702
1.7900,189.2437431,-8.079656661,1232.994869
1.7950,189.0898302,-7.792687279,1233.037924
1.8000,188.9378793,-7.50741636,1233.080914
1.8050,188.7883092,-7.224014806,1233.123765
1.8100,188.6401821,-6.943083653,1233.166473
1.8150,188.492711,-6.663844836,1233.20926
1.8200,188.344784,-6.38601028,1233.2523
1.8250,188.1961244,-6.110787505,1233.295414
1.8300,188.0471357,-5.836764137,1233.338781
1.8350,187.8965822,-5.564683011,1233.382427
1.8400,187.7442182,-5.296246306,1233.4261
1.8450,187.5895104,-5.029131857,1233.470247
1.8500,187.4328218,-4.764427578,1233.514654
1.8550,187.2736848,-4.50169384,1233.559453
1.8600,187.1115879,-4.242069842,1233.604508
1.8650,186.9447642,-3.984632175,1233.650208
1.8700,186.7731378,-3.72974321,1233.696499
1.8750,186.5973843,-3.477066708,1233.743363
1.8800,186.4167364,-3.227937044,1233.790685
1.8850,186.2311028,-2.98007835,1233.838857
1.8900,186.0400345,-2.734650395,1233.887752
1.8950,185.8441958,-2.490814057,1233.937452
1.9000,185.6429372,-2.248239051,1233.988076
1.9050,185.4359553,-2.006088967,1234.03985
1.9100,185.2233857,-1.764072545,1234.092802
1.9150,185.0058144,-1.521274849,1234.147026
1.9200,184.7828761,-1.278319856,1234.202478
1.9250,184.5547686,-1.034427192,1234.259283
1.9300,184.3210245,-0.7887049526,1234.317688
1.9350,184.0820752,-0.5423754866,1234.377406
1.9400,183.8380976,-0.2950321966,1234.438526
1.9450,183.5901112,-0.04481171681,1234.501249
1.9500,183.3378237,0.2085648351,1234.56569
1.9550,183.0809136,0.4647509444,1234.631843
1.9600,182.8204274,0.7249407328,1234.699794
1.9650,182.5547604,0.9895697747,1234.769853
1.9700,182.2845984,1.258156289,1234.841839
1.9750,182.0099885,1.530598771,1234.915755
1.9800,181.7309244,1.806740773,1234.991583
1.9850,181.4488353,2.086034037,1235.069025
1.9900,181.1632219,2.368637201,1235.148196
1.9950,180.8746534,2.653299804,1235.228811
2.0000,180.5819516,2.940581237,1235.311179
2.0050,180.2845051,3.228717443,1235.395061
2.0100,179.982562,3.518964781,1235.480705
2.0150,179.6754189,3.81049878,1235.568044
2.0200,179.3640513,4.104173899,1235.65714
2.0250,179.0487836,4.40039257,1235.74803
2.0300,178.7297727,4.698473899,1235.840567
2.0350,178.4081375,4.998929541,1235.934713
2.0400,178.083865,5.300810196,1236.030273
2.0450,177.7560915,5.603445259,1236.127292
2.0500,177.4252801,5.907513262,1236.225815
2.0550,177.0927248,6.213054331,1236.325661
2.0600,176.7577124,6.519652757,1236.426883
2.0650,176.4212361,6.827347104,1236.529316
2.0700,176.0834914,7.136323842,1236.632973
2.0750,175.7447795,7.447150826,1236.737947
2.0800,175.4059085,7.759084107,1236.84396
2.0850,175.0679719,8.073201451,1236.951079
2.0900,174.7314017,8.390220075,1237.059364
2.0950,174.3956602,8.710086837,1237.168901
2.1000,174.0620417,9.033434782,1237.279602
2.1050,173.7303079,9.359267933,1237.391301
2.1100,173.4006597,9.687004349,1237.503844
2.1150,173.0737,10.01649861,1237.617081
2.1200,172.7496977,10.34664641,1237.73072
2.1250,172.4291627,10.67781875,1237.844754
2.1300,172.1110355,11.00870486,1237.959077
2.1350,171.7948785,11.33947637,1238.073804
2.1400,171.4816189,11.66953603,1238.188643
2.1450,171.1705831,11.99864983,1238.30366
2.1500,170.8612334,12.32652358,1238.418865
2.1550,170.5539347,12.65340809,1238.534254
2.1600,170.2478805,12.97915565,1238.649933
2.1650,169.9433916,13.30258558,1238.765543
2.1700,169.64127,13.62452379,1238.881145
2.1750,169.3405638,13.94418064,1238.99671
2.1800,169.0418656,14.26254031,1239.112356
2.1850,168.7455051,14.57899495,1239.227872
2.1900,168.4506956,14.8944516,1239.343596
2.1950,168.1582387,15.20898172,1239.459382
2.2000,167.8680144,15.52311566,1239.575374
2.2050,167.5799327,15.83582793,1239.691325
2.2100,167.2924218,16.14757702,1239.807634
2.2150,167.0058738,16.45712938,1239.923945
2.2200,166.7217739,16.76569857,1240.040262
2.2250,166.4390215,17.07277234,1240.156665
2.2300,166.1579282,17.37841688,1240.273083
2.2350,165.8784298,17.68330844,1240.389711
2.2400,165.5992427,17.98785167,1240.506848
2.2450,165.3204446,18.29116872,1240.62428
2.2500,165.0419845,18.5931789,1240.741994
2.2550,164.7635555,18.89452142,1240.860198
2.2600,164.4856941,19.19436083,1240.978575
2.2650,164.2085689,19.4924662,1241.09705
2.2700,163.9311628,19.78940365,1241.21595
2.2750,163.653751,20.08497454,1241.335159
2.2800,163.3761756,20.37992689,1241.454898
2.2850,163.097985,20.67402506,1241.575216
2.2900,162.819134,20.96849239,1241.696408
2.2950,162.5396718,21.2640792,1241.81865
2.3000,162.2608658,21.56023375,1241.941571
2.3050,161.982364,21.85757331,1242.065387
2.3100,161.7038275,22.15587289,1242.19013
2.3150,161.4254542,22.45581914,1242.315934
2.3200,161.1469133,22.75694745,1242.442743
2.3250,160.8683593,23.05983099,1242.570673
2.3300,160.5896473,23.36405007,1242.699632
2.3350,160.3110715,23.6689307,1242.829408
2.3400,160.0323564,23.97579519,1242.960397
2.3450,159.7545666,24.28440815,1243.092292
2.3500,159.4766128,24.59389051,1243.225095
2.3550,159.1977656,24.90451299,1243.359047
2.3600,158.9189956,25.21602241,1243.493849
2.3650,158.639586,25.52853796,1243.62971
2.3700,158.3587371,25.8407267,1243.766457
2.3750,158.0765947,26.15291486,1243.904125
2.3800,157.7931076,26.46498312,1244.042696
2.3850,157.5065177,26.77658219,1244.182462
2.3900,157.217388,27.08762066,1244.323287
2.3950,156.926551,27.39715674,1244.464716
2.4000,156.6331463,27.70546055,1244.607007
2.4050,156.3367543,28.01284748,1244.750342
2.4100,156.0366813,28.32021389,1244.895119
2.4150,155.7339604,28.62670985,1245.04091
2.4200,155.4280639,28.93316953,1245.188069
2.4250,155.1195136,29.23930707,1245.336434
2.4300,154.808413,29.54555498,1245.486112
2.4350,154.4948356,29.85164017,1245.637017
2.4400,154.1777078,30.15924124,1245.789865
2.4450,153.8579909,30.46713354,1245.944121
2.4500,153.5348682,30.77576214,1246.100108
2.4550,153.2083143,31.0843012,1246.257596
2.4600,152.8787847,31.39333654,1246.416643
2.4650,152.5473222,31.70359775,1246.577249
2.4700,152.2124585,32.01419758,1246.739512
2.4750,151.8748056,32.3252828,1246.903355
2.4800,151.533595,32.63648899,1247.068856
2.4850,151.1881193,32.9475238,1247.236125
2.4900,150.8388726,33.25806763,1247.404976
2.4950,150.4853241,33.5682927,1247.575603
2.5000,150.1269044,33.87821013,1247.748181
2.5050,149.7639638,34.18868373,1247.922906
2.5100,149.3982492,34.50002209,1248.09947
2.5150,149.0294034,34.8127156,1248.278115
2.5200,148.6564789,35.12673816,1248.45907
2.5250,148.281052,35.44294155,1248.642204
2.5300,147.9025703,35.76136785,1248.827723
2.5350,147.521797,36.08254418,1249.015541
2.5400,147.1388331,36.40602146,1249.205564
2.5450,146.7541099,36.73187401,1249.397694
2.5500,146.3681023,37.06064391,1249.591949
2.5550,145.9810831,37.39218809,1249.788266
2.5600,145.5920576,37.72493548,1249.986438
2.5650,145.2025123,38.05930626,1250.186197
2.5700,144.8120995,38.39518124,1250.387622
2.5750,144.4205765,38.73233052,1250.590715
2.5800,144.0277346,39.07043083,1250.795439
2.5850,143.63339,39.40872264,1251.001603
2.5900,143.2379446,39.74711152,1251.209087
2.5950,142.8410002,40.08529992,1251.417917
2.6000,142.4427319,40.42205262,1251.627648
2.6050,142.0421057,40.75863827,1251.838977
2.6100,141.6397462,41.09399197,1252.051413
2.6150,141.2357265,41.42765689,1252.264803
2.6200,140.8293701,41.7610786,1252.479812
2.6250,140.4208267,42.09375314,1252.696255
2.6300,140.0105612,42.42581924,1252.914068
2.6350,139.5977653,42.75852909,1253.133865
2.6400,139.1833367,43.09018865,1253.354882
2.6450,138.7676965,43.42107372,1253.577108
2.6500,138.3514236,43.75134793,1253.800442
2.6550,137.9350862,44.08114364,1254.024746
2.6600,137.5180536,44.4109313,1254.250362
2.6650,137.1012632,44.74079,1254.477051
2.6700,136.6855318,45.0711698,1254.704718
2.6750,136.2694546,45.40137361,1254.933557
2.6800,135.8539251,45.73114376,1255.163188
2.6850,135.4407915,46.06044816,1255.393079
2.6900,135.0289784,46.38812142,1255.623114
2.6950,134.6186428,46.71511992,1255.853579
2.7000,134.2099234,47.04025589,1256.084016
2.7050,133.8025208,47.3638063,1256.314613
2.7100,133.3972779,47.68514237,1256.544864
2.7150,132.9925115,48.00434502,1256.775284
2.7200,132.5897345,48.32112564,1257.005324
2.7250,132.1879164,48.63469788,1257.234974
2.7300,131.7885064,48.94569072,1257.46401
2.7350,131.3920017,49.25380256,1257.69215
2.7400,130.9990165,49.55777064,1257.918754
2.7450,130.6088499,49.85804728,1258.144156
2.7500,130.222444,50.15397651,1258.367816
2.7550,129.8409304,50.44758604,1258.590056
2.7600,129.46436,50.73904362,1258.810892
2.7650,129.0932756,51.02852919,1259.03018
2.7700,128.728604,51.31607114,1259.247586
2.7750,128.3716948,51.60212401,1259.462821
2.7800,128.0219943,51.88654488,1259.675997
2.7850,127.6796889,52.17089696,1259.887585
2.7900,127.345178,52.45385818,1260.096936
2.7950,127.0182727,52.73658909,1260.304496
2.8000,126.6993483,53.01863,1260.50996
2.8050,126.3885209,53.29994831,1260.713231
2.8100,126.0850556,53.58057515,1260.914522
2.8150,125.7887166,53.86034082,1261.113823
2.8200,125.4979546,54.13877855,1261.311457
2.8250,125.2111125,54.41562942,1261.507891
2.8300,124.9285159,54.69133991,1261.703128
2.8350,124.6484961,54.96518584,1261.897498
2.8400,124.3704964,55.23704956,1262.091095
2.8450,124.093568,55.50711889,1262.284335
2.8500,123.8176072,55.77427383,1262.476837
2.8550,123.5421498,56.03860951,1262.668759
2.8600,123.2667968,56.30116042,1262.860602
2.8650,122.9901685,56.56076588,1263.052403
2.8700,122.7131602,56.81851267,1263.244256
2.8750,122.4346309,57.07477763,1263.436698
2.8800,122.1546863,57.3285796,1263.629297
2.8850,121.872917,57.5811714,1263.822694
2.8900,121.5886082,57.83156138,1264.016771
2.8950,121.3010703,58.0799777,1264.211842
2.9000,121.0105555,58.32770771,1264.408313
2.9050,120.7182163,58.57419385,1264.605605
2.9100,120.422173,58.82023918,1264.804662
2.9150,120.1239636,59.06632025,1265.005151
2.9200,119.8228915,59.31120407,1265.206868
2.9250,119.5190016,59.55564254,1265.410075
2.9300,119.2120328,59.79927332,1265.614774
2.9350,118.9012224,60.04263357,1265.821475
2.9400,118.5866758,60.28627048,1266.030347
2.9450,118.2670794,60.53066873,1266.242066
2.9500,117.9424788,60.77584919,1266.45667
2.9550,117.6128573,61.02091038,1266.673845
2.9600,117.2773061,61.2666376,1266.894238
2.9650,116.9360038,61.51218479,1267.117488
2.9700,116.5892381,61.75800531,1267.34368
2.9750,116.2377898,62.00388543,1267.57246
2.9800,115.8807587,62.24928346,1267.803995
2.9850,115.518328,62.49461413,1268.038384
2.9900,115.1510741,62.74013345,1268.275539
2.9950,114.7785911,62.98569039,1268.515565
3.0000,114.4018005,63.22995621,1268.757629
3.0050,114.0217926,63.47295502,1269.001316
3.0100,113.6379443,63.71427861,1269.246712
3.0150,113.251516,63.95496861,1269.493763
3.0200,112.8618696,64.19435883,1269.742455
3.0250,112.4702042,64.43286424,1269.992479
3.0300,112.0752137,64.66982677,1270.244091
3.0350,111.6774505,64.90517241,1270.497069
3.0400,111.2773525,65.13988954,1270.751629
3.0450,110.8748087,65.3729047,1271.007383
3.0500,110.4706548,65.60527581,1271.264454
3.0550,110.0643016,65.83522014,1271.522349
3.0600,109.6565682,66.0637229,1271.781136
3.0650,109.2463476,66.28994955,1272.040939
3.0700,108.8352563,66.5150445,1272.301594
3.0750,108.4223648,66.73889219,1272.563403
3.0800,108.0100051,66.96202648,1272.825657
3.0850,107.5982754,67.1834385,1273.087884
3.0900,107.1874145,67.40389824,1273.350312
3.0950,106.7778584,67.62199061,1273.612141
3.1000,106.3708111,67.83858644,1273.873237
3.1050,105.9665729,68.053755,1274.133497
3.1100,105.564402,68.26723717,1274.393092
3.1150,105.1651582,68.47876162,1274.651537
3.1200,104.7697138,68.68862468,1274.90859
3.1250,104.379299,68.89636559,1275.16347
3.1300,103.993496,69.10146631,1275.416133
3.1350,103.6127852,69.30426179,1275.666481
3.1400,103.2378943,69.50452837,1275.914087
3.1450,102.8697658,69.70219988,1276.158467
3.1500,102.5077105,69.8982996,1276.400331
3.1550,102.1520056,70.09154905,1276.638969
3.1600,101.8018446,70.28180757,1276.874637
3.1650,101.4577854,70.46934194,1277.107187
3.1700,101.1195842,70.65311004,1277.336221
3.1750,100.788296,70.83317173,1277.561258
3.1800,100.4632468,71.00930184,1277.782468
3.1850,100.1444005,71.18158671,1277.999862
3.1900,99.83203987,71.34967945,1278.213117
3.1950,99.52649232,71.51386867,1278.422192
3.2000,99.22622406,71.67397801,1278.627648
3.2050,98.93196917,71.83018053,1278.829184
3.2100,98.64446057,71.98226545,1279.026402
3.2150,98.36319536,72.12956007,1279.219206
3.2200,98.08749856,72.27279275,1279.408153
3.2250,97.81767457,72.41245675,1279.593297
3.2300,97.55297215,72.54901657,1279.775156
3.2350,97.29407507,72.68255299,1279.953424
3.2400,97.03955341,72.81336959,1280.128855
3.2450,96.79038838,72.94087178,1280.300724
3.2500,96.54649483,73.06685897,1280.469826
3.2550,96.30800371,73.19184424,1280.636306
3.2600,96.07495117,73.3142629,1280.799446
3.2650,95.84714953,73.43577501,1280.960037
3.2700,95.62407068,73.55639523,1281.118304
3.2750,95.40490207,73.67664864,1281.274832
3.2800,95.1914067,73.79803896,1281.429479
3.2850,94.98166834,73.91822645,1281.582064
3.2900,94.77666513,74.03842516,1281.732685
3.2950,94.57573143,74.15822128,1281.881469
3.3000,94.37781348,74.27890926,1282.029469
3.3050,94.18426698,74.40066319,1282.176137
3.3100,93.99465477,74.52339515,1282.321642
3.3150,93.80911248,74.64662492,1282.46573
3.3200,93.62775624,74.76957495,1282.607967
3.3250,93.4499942,74.89358526,1282.749287
3.3300,93.2763955,75.01724467,1282.888779
3.3350,93.10674152,75.14112178,1283.02678
3.3400,92.94002242,75.26436717,1283.163381
3.3450,92.7770968,75.38751268,1283.298437
3.3500,92.6168236,75.51044246,1283.432405
3.3550,92.45867525,75.63334037,1283.565627
3.3600,92.30321422,75.75512433,1283.697343
3.3650,92.15061447,75.8771488,1283.828058
3.3700,91.99972477,75.99842094,1283.957874
3.3750,91.85159388,76.11978728,1284.086669
3.3800,91.7047389,76.24013786,1284.214639
3.3850,91.55995657,76.35958392,1284.341429
3.3900,91.41670614,76.47893846,1284.467681
3.3950,91.27488501,76.59938215,1284.594002
3.4000,91.13274586,76.71968713,1284.720624
3.4050,90.99046988,76.84053618,1284.847792
3.4100,90.84870592,76.96147364,1284.974999
3.4150,90.70608493,77.082868,1285.10305
3.4200,90.56342741,77.20415333,1285.231303
3.4250,90.42004886,77.32555201,1285.360212
3.4300,90.27669791,77.447206,1285.489476
3.4350,90.13345922,77.56929145,1285.619152
3.4400,89.99041574,77.69136791,1285.748993
3.4450,89.84564258,77.81317979,1285.879803
3.4500,89.69897827,77.93412838,1286.011405
3.4550,89.55041097,78.05500157,1286.144172
3.4600,89.40083248,78.17547899,1286.277528
3.4650,89.2481456,78.29540168,1286.412396
3.4700,89.09308176,78.41512006,1286.54862
3.4750,88.93506575,78.53489754,1286.686575
3.4800,88.77543548,78.65425295,1286.825391
3.4850,88.61375111,78.77345747,1286.965384
3.4900,88.44908957,78.89216039,1287.106832
3.4950,88.28164709,79.01099753,1287.249927
3.5000,88.1120809,79.1297446,1287.39427
3.5050,87.94023184,79.24841555,1287.539899
3.5100,87.7655999,79.36749253,1287.687282
3.5150,87.58773852,79.48712127,1287.836695
3.5200,87.40717796,79.60749971,1287.987985
3.5250,87.22485307,79.72827707,1288.140546
3.5300,87.03914294,79.84869235,1288.294784
3.5350,86.85155295,79.96900742,1288.450073
3.5400,86.66390402,80.09017547,1288.605971
3.5450,86.47536732,80.21155676,1288.762573
3.5500,86.28581768,80.33207641,1288.91946
3.5550,86.09608007,80.45168345,1289.076179
3.5600,85.90814095,80.57059982,1289.231829
3.5650,85.72096817,80.68856468,1289.386764
3.5700,85.53566627,80.80529763,1289.540306
3.5750,85.35326279,80.92027983,1289.691664
3.5800,85.17343013,81.03305423,1289.840773
3.5850,84.9978345,81.14478558,1289.98735
3.5900,84.82611408,81.25409595,1290.130872
3.5950,84.65913218,81.36161896,1290.2712
3.6000,84.49785105,81.46700404,1290.407643
3.6050,84.34034232,81.56899302,1290.540568
3.6100,84.18752825,81.66809603,1290.669727
3.6150,84.03943868,81.76432426,1290.795103
3.6200,83.89512276,81.85818673,1290.917421
3.6250,83.75429975,81.94886954,1291.036422
3.6300,83.61688539,82.03697625,1291.1524
3.6350,83.48230282,82.12214463,1291.265468
3.6400,83.35042311,82.20472892,1291.37588
3.6450,83.22107486,82.28482751,1291.483771
3.6500,83.09432846,82.36247723,1291.589119
3.6550,82.97000138,82.43761684,1291.692007
3.6600,82.84691722,82.51109491,1291.793496
3.6650,82.72367925,82.5818549,1291.893769
3.6700,82.59977748,82.65146116,1291.993893
3.6750,82.4730049,82.7200345,1292.095101
3.6800,82.34470694,82.78950486,1292.197664
3.6850,82.21354298,82.86028209,1292.302503
3.6900,82.08001261,82.93274045,1292.409557
3.6950,81.94408288,83.00728289,1292.519073
3.7000,81.80569508,83.08436744,1292.631353
3.7050,81.66406056,83.16460818,1292.747144
3.7100,81.5181761,83.24930552,1292.867638
3.7150,81.36722634,83.33880151,1292.993493
3.7200,81.20995167,83.43456518,1293.126122
3.7250,81.04590204,83.53794481,1293.266508
3.7300,80.87405561,83.64934272,1293.415415
3.7350,80.69321309,83.76924881,1293.5738
3.7400,80.5033706,83.8986914,1293.74227
3.7450,80.30497555,84.03781202,1293.920716
3.7500,80.09876211,84.18688197,1294.108937
3.7550,79.88321336,84.34614656,1294.307929
3.7600,79.65812604,84.5163098,1294.518206
3.7650,79.42488025,84.69779042,1294.739289
3.7700,79.18154655,84.89031214,1294.972144
3.7750,78.92934957,85.09215123,1295.215332
3.7800,78.66759532,85.30442484,1295.469836
3.7850,78.39638494,85.52539111,1295.73478
3.7900,78.1175102,85.75652671,1296.010023
3.7950,77.83150408,85.99579661,1296.294274
3.8000,77.53836937,86.24351862,1296.587716
3.8050,77.23933947,86.49838083,1296.889101
3.8100,76.93589161,86.7599064,1297.197381
3.8150,76.62922693,87.02824121,1297.512018
3.8200,76.32027311,87.30158301,1297.831566
3.8250,76.00989455,87.57953244,1298.155372
3.8300,75.70004624,87.8616624,1298.482112
3.8350,75.39172747,88.14703628,1298.810717
3.8400,75.0847576,88.43377558,1299.140299
3.8450,74.78040535,88.72065309,1299.469483
3.8500,74.47903583,89.00628831,1299.797288
3.8550,74.18133678,89.29093674,1300.123407
3.8600,73.88674212,89.57306222,1300.447313
3.8650,73.59729855,89.85185807,1300.767396
3.8700,73.31297596,90.12666658,1301.08325
3.8750,73.03416015,90.39634314,1301.393956
3.8800,72.76050361,90.65977847,1301.699046
3.8850,72.49292421,90.91642591,1301.997619
3.8900,72.2319967,91.16559945,1302.288923
3.8950,71.97744287,91.4053323,1302.571939
3.9000,71.72941039,91.63525357,1302.846335
3.9050,71.48843182,91.85450941,1303.111245
3.9100,71.25488905,92.06231627,1303.365948
3.9150,71.0279372,92.25687754,1303.609841
3.9200,70.80903313,92.43942722,1303.842659
3.9250,70.59850462,92.60857567,1304.063361
3.9300,70.3968488,92.76450263,1304.271693
3.9350,70.20309446,92.90620233,1304.467631
3.9400,70.0174208,93.03385809,1304.651105
3.9450,69.83987946,93.14793997,1304.822285
3.9500,69.66967793,93.2475733,1304.981158
3.9550,69.50603971,93.33405393,1305.128833
3.9600,69.3489954,93.40676938,1305.264911
3.9650,69.20009353,93.46674069,1305.38903
3.9700,69.05942082,93.51368385,1305.500933
3.9750,68.92792342,93.54778139,1305.60012
3.9800,68.80395045,93.56913847,1305.687617
3.9850,68.68802877,93.57792451,1305.763227
3.9900,68.57942483,93.575566,1305.828157
3.9950,68.47760551,93.56187837,1305.882628
4.0000,68.38201303,93.5391365,1305.928262
4.0050,68.29269392,93.50692289,1305.964782
4.0100,68.20866423,93.46551147,1305.992928
4.0150,68.13140178,93.41716187,1306.013088
4.0200,68.06052525,93.36144135,1306.025261
4.0250,67.99552947,93.29877245,1306.02996
4.0300,67.93539171,93.23020408,1306.028417
4.0350,67.87987364,93.15594331,1306.020886
4.0400,67.82712594,93.07619573,1306.008596
4.0450,67.77621555,92.99182844,1305.992604
4.0500,67.72626807,92.903974,1305.974105
4.0550,67.67713793,92.81339946,1305.953615
4.0600,67.62737769,92.71911087,1305.931504
4.0650,67.57713093,92.62252779,1305.908512
4.0700,67.52640835,92.52332927,1305.884434
4.0750,67.4730254,92.42385293,1305.861903
4.0800,67.41727415,92.32361903,1305.840515
4.0850,67.35877173,92.22463035,1305.821602
4.0900,67.29701984,92.12631693,1305.805158
4.0950,67.2325302,92.03007705,1305.791679
4.1000,67.16455214,91.93628448,1305.781805
4.1050,67.09299094,91.84532482,1305.775791
4.1100,67.01805984,91.75769543,1305.773806
4.1150,66.93969799,91.67359236,1305.775971
4.1200,66.85723516,91.59346268,1305.782957
4.1250,66.77123441,91.51710445,1305.794276
4.1300,66.68242136,91.44542441,1305.809998
4.1350,66.59057667,91.37862682,1305.830392
4.1400,66.49577896,91.31665547,1305.855342
4.1450,66.39896583,91.26078292,1305.884991
4.1500,66.3003481,91.21166708,1305.919538
4.1550,66.20002489,91.1679075,1305.958145
4.1600,66.09882534,91.12971017,1306.000403
4.1650,65.99612042,91.09683248,1306.046537
4.1700,65.89291092,91.06869677,1306.09562
4.1750,65.7902082,91.04560451,1306.147217
4.1800,65.68782144,91.02637159,1306.200774
4.1850,65.58663108,91.01130701,1306.255936
4.1900,65.48607772,90.99941842,1306.312478
4.1950,65.38823098,90.99060848,1306.369092
4.2000,65.29208344,90.98341183,1306.42555
4.2050,65.19840978,90.97842479,1306.481692
4.2100,65.10800193,90.97502176,1306.536687
4.2150,65.02240535,90.97329828,1306.58963
4.2200,64.94064795,90.97104681,1306.639896
4.2250,64.86384917,90.96796482,1306.686626
4.2300,64.7918531,90.96367057,1306.729698
4.2350,64.7248808,90.95848405,1306.769117
4.2400,64.66366376,90.9514503,1306.803899
4.2450,64.60833266,90.94166409,1306.833477
4.2500,64.55869764,90.92929256,1306.85798
4.2550,64.51700765,90.91314592,1306.875373
4.2600,64.48268779,90.8930292,1306.885857
4.2650,64.45565814,90.86882867,1306.889436
4.2700,64.4360578,90.84074161,1306.886113
4.2750,64.42432473,90.80759818,1306.874987
4.2800,64.41988339,90.76945011,1306.856422
4.2850,64.42278022,90.72602874,1306.830224
4.2900,64.43338469,90.67666095,1306.795813
4.2950,64.45174907,90.62122137,1306.753081
4.3000,64.47792038,90.55870373,1306.701413
4.3050,64.51208439,90.48954681,1306.640937
4.3100,64.55473305,90.41353656,1306.57127
4.3150,64.60554425,90.3288442,1306.491603
4.3200,64.66409969,90.23674974,1306.402884
4.3250,64.73068031,90.1367082,1306.304697
4.3300,64.80536991,90.02890857,1306.197121
4.3350,64.88766104,89.91393008,1306.080781
4.3400,64.97854292,89.79244955,1305.955458
4.3450,65.07857012,89.66523469,1305.821311
4.3500,65.18681177,89.53108269,1305.67824
4.3550,65.30339923,89.39069942,1305.526614
4.3600,65.42885998,89.24608914,1305.367222
4.3650,65.56240818,89.09725495,1305.200564
4.3700,65.70363284,88.94456453,1305.02714
4.3750,65.85373601,88.7883645,1304.846454
4.3800,66.01093684,88.62878198,1304.659684
4.3850,66.17594436,88.46574458,1304.466417
4.3900,66.34704819,88.29986721,1304.26806
4.3950,66.52289195,88.13113404,1304.06545
4.4000,66.70428716,87.9598059,1303.858299
4.4050,66.89013202,87.78586311,1303.647274
4.4100,67.07915588,87.60959588,1303.433314
4.4150,67.27185785,87.43082521,1303.216057
4.4200,67.4687746,87.25017509,1302.995538
4.4250,67.66832818,87.06787606,1302.772864
4.4300,67.87078544,86.88391655,1302.547902
4.4350,68.07564523,86.69755718,1302.320599
4.4400,68.28235726,86.50956343,1302.091699
4.4450,68.49025684,86.31921262,1301.86121
4.4500,68.69926502,86.12643031,1301.629146
4.4550,68.90865732,85.93182868,1301.396303
4.4600,69.11798477,85.73625481,1301.163379
4.4650,69.32706666,85.53891379,1300.930075
4.4700,69.53528751,85.33930131,1300.696521
4.4750,69.742819,85.1374156,1300.462609
4.4800,69.94945708,84.93375635,1300.228726
4.4850,70.15491995,84.72800202,1299.994865
4.4900,70.3600377,84.52074176,1299.760847
4.4950,70.56394009,84.31171159,1299.52703
4.5000,70.76778437,84.10140018,1299.293039
4.5050,70.97133532,83.88983274,1299.059033
4.5100,71.17353826,83.67605078,1298.825136
4.5150,71.37469769,83.46044873,1298.591407
4.5200,71.57545401,83.24331863,1298.357624
4.5250,71.77420438,83.02501352,1298.124884
4.5300,71.97152099,82.80475873,1297.892487
4.5350,72.16826482,82.58291525,1297.660133
4.5400,72.36508324,82.36009868,1297.427763
4.5450,72.56145839,82.13677668,1297.19586
4.5500,72.75801,81.91346055,1296.964384
4.5550,72.95469023,81.69022149,1296.733418
4.5600,73.15279909,81.46791925,1296.502676
4.5650,73.3524111,81.24631334,1296.271995
4.5700,73.55334044,81.02557564,1296.04155
4.5750,73.75543349,80.8073661,1295.812263
4.5800,73.95947837,80.59055584,1295.583139
4.5850,74.16572155,80.37548922,1295.354224
4.5900,74.37330623,80.16337677,1295.126603
4.5950,74.58314765,79.95372342,1294.899512
4.6000,74.79543297,79.74663609,1294.672927
4.6050,75.00965087,79.54162741,1294.446885
4.6100,75.22733346,79.34063326,1294.221497
4.6150,75.44690324,79.14299835,1293.997326
4.6200,75.66916811,78.94849168,1293.773807
4.6250,75.89410513,78.75760374,1293.551214
4.6300,76.12292527,78.5697682,1293.328588
4.6350,76.35526678,78.38463901,1293.105968
4.6400,76.59070303,78.20125787,1292.883159
4.6450,76.82955746,78.01975444,1292.66003
4.6500,77.07124178,77.84077153,1292.4372
4.6550,77.31593484,77.66419206,1292.214538
4.6600,77.56334047,77.48929117,1291.9918
4.6650,77.81359397,77.31565953,1291.768742
4.6700,78.06689093,77.14412002,1291.545623
4.6750,78.32176535,76.97273731,1291.322304
4.6800,78.57953457,76.8022802,1291.098456
4.6850,78.83877281,76.63201216,1290.874438
4.6900,79.0995686,76.46151727,1290.650018
4.6950,79.36300684,76.29132648,1290.424891
4.7000,79.6280707,76.12072501,1290.199234
4.7050,79.89487291,75.95018214,1289.97323
4.7100,80.16359028,75.77923728,1289.746577
4.7150,80.43254278,75.60789723,1289.520166
4.7200,80.70175059,75.43586038,1289.293845
4.7250,80.97080895,75.26313223,1289.067841
4.7300,81.23987266,75.08947714,1288.84197
4.7350,81.50908103,74.91540423,1288.616357
4.7400,81.77932762,74.74101553,1288.390607
4.7450,82.05043077,74.56652631,1288.164903
4.7500,82.32259342,74.39197098,1287.939153
4.7550,82.59594855,74.21625087,1287.712777
4.7600,82.8707621,74.03942576,1287.485674
4.7650,83.14651443,73.86079053,1287.257803
4.7700,83.42316327,73.6824425,1287.030148
4.7750,83.70095822,73.50351792,1286.802196
4.7800,83.97971078,73.32520722,1286.57462
4.7850,84.25930823,73.14621386,1286.346884
4.7900,84.53883157,72.96687256,1286.11964
4.7950,84.81909897,72.78806483,1285.892891
4.8000,85.10082003,72.60952323,1285.666136
4.8050,85.38429669,72.431443,1285.439337
4.8100,85.66948572,72.25366791,1285.212412
4.8150,85.95610363,72.07519832,1284.985071
4.8200,86.24356212,71.89556502,1284.757402
4.8250,86.53268054,71.71503332,1284.529161
4.8300,86.82279863,71.53361513,1284.300653
4.8350,87.11439275,71.35098454,1284.071527
4.8400,87.4067753,71.16788416,1283.842443
4.8450,87.7022337,70.98520529,1283.612711
4.8500,87.99997064,70.80290419,1283.382692
4.8550,88.30020034,70.62160012,1283.152548
4.8600,88.60306166,70.44094877,1282.922096
4.8650,88.90880053,70.26207619,1282.691722
4.8700,89.2179836,70.0846364,1282.461027
4.8750,89.53074599,69.9081771,1282.229721
4.8800,89.84748785,69.7334777,1281.99798
4.8850,90.1678087,69.56103885,1281.766205
4.8900,90.49255696,69.3881283,1281.532788
4.8950,90.82093438,69.21651711,1281.298889
4.9000,91.15326733,69.0451357,1281.063876
4.9050,91.48926567,68.87415143,1280.827971
4.9100,91.828827,68.70116631,1280.590183
4.9150,92.17234245,68.52749446,1280.350894
4.9200,92.52054716,68.35291879,1280.109741
4.9250,92.87195586,68.17677832,1279.867091
4.9300,93.2254281,67.99867929,1279.623361
4.9350,93.58239734,67.81891991,1279.378063
4.9400,93.94233425,67.63783557,1279.13158
4.9450,94.30483646,67.45495034,1278.883944
4.9500,94.67022869,67.27040628,1278.635101
4.9550,95.03801004,67.08304733,1278.384775
4.9600,95.40844109,66.89250065,1278.132778
4.9650,95.77981091,66.69759326,1277.879382
4.9700,96.152295,66.49761095,1277.624263
4.9750,96.52662672,66.29355458,1277.367506
4.9800,96.90206549,66.08575128,1277.10959
4.9850,97.27993127,65.87479694,1276.85022
4.9900,97.66131422,65.66083711,1276.588976
4.9950,98.04621865,65.44304115,1276.325512
5.0000,98.43494968,65.22169497,1276.059897
5.0050,98.82746302,64.99739251,1275.792417
5.0100,99.22360983,64.76851768,1275.522498
5.0150,99.62432767,64.53586885,1275.250114
5.0200,100.0288757,64.29880684,1274.975356
5.0250,100.4375798,64.05735314,1274.698113
5.0300,100.8502066,63.81105896,1274.4183
5.0350,101.2649998,63.55966679,1274.136594
5.0400,101.682672,63.303387,1273.85283
5.0450,102.1028997,63.04213815,1273.567152
5.0500,102.5263661,62.77497532,1273.278964
5.0550,102.9542212,62.50205985,1272.987861
5.0600,103.3860188,62.22316931,1272.694004
5.0650,103.8218803,61.93937795,1272.397795
5.0700,104.2616133,61.64967126,1272.098934
5.0750,104.7043173,61.35461575,1271.798093
5.0800,105.1513333,61.05364813,1271.494531
5.0850,105.6017223,60.74659172,1271.188623
5.0900,106.0562823,60.43442652,1270.880467
5.0950,106.512703,60.11547546,1270.570406
5.1000,106.9713714,59.79213705,1270.259258
5.1050,107.4315156,59.46329716,1269.946927
5.1100,107.8952969,59.13109022,1269.633422
5.1150,108.3610825,58.7963165,1269.31971
5.1200,108.8302864,58.45932196,1269.005387
5.1250,109.3033531,58.12052164,1268.69044
5.1300,109.7793055,57.77895367,1268.374912
5.1350,110.2578773,57.43469077,1268.058965
5.1400,110.7390887,57.08796317,1267.742713
5.1450,111.2206902,56.7380657,1267.426799
5.1500,111.7042348,56.38456662,1267.110495
5.1550,112.1896168,56.02801878,1266.794068
5.1600,112.6761305,55.66936001,1266.478164
5.1650,113.16272,55.30778608,1266.162897
5.1700,113.6499788,54.94375065,1265.848227
5.1750,114.1376079,54.57684441,1265.534141
5.1800,114.6260144,54.20794755,1265.220802
5.1850,115.1159038,53.83763071,1264.908195
5.1900,115.6077506,53.46752718,1264.596764
5.1950,116.1017939,53.09690679,1264.286168
5.2000,116.5976398,52.72615855,1263.976726
5.2050,117.0968126,52.35543647,1263.667951
5.2100,117.598517,51.98607049,1263.360614
5.2150,118.1030426,51.61720873,1263.054324
5.2200,118.6080042,51.24813513,1262.749629
5.2250,119.1152468,50.87889614,1262.445913
5.2300,119.623626,50.50954482,1262.143568
5.2350,120.132686,50.13885664,1261.842287
5.2400,120.642505,49.76584878,1261.541691
5.2450,121.1528951,49.3901545,1261.241679
5.2500,121.6649352,49.01148614,1260.941776
5.2550,122.1790776,48.62976502,1260.641821
5.2600,122.6943704,48.24542543,1260.34227
5.2650,123.2119705,47.85827001,1260.042674
5.2700,123.7319061,47.4681994,1259.743018
5.2750,124.2537716,47.07453462,1259.443235
5.2800,124.7778651,46.67691773,1259.143157
5.2850,125.3041418,46.27469476,1258.842602
5.2900,125.8333383,45.86715498,1258.541118
5.2950,126.3645481,45.45520638,1258.239338
5.3000,126.8995049,45.03862032,1257.936608
5.3050,127.4374025,44.61593052,1257.632751
5.3100,127.979263,44.18890612,1257.328025
5.3150,128.5250293,43.75578716,1257.021883
5.3200,129.0756215,43.31680888,1256.71417
5.3250,129.631032,42.87162698,1256.404813
5.3300,130.1911781,42.41956922,1256.093715
5.3350,130.756164,41.96040383,1255.780813
5.3400,131.3240393,41.49299857,1255.466379
5.3450,131.894464,41.01769464,1255.150673
5.3500,132.465844,40.53512009,1254.834398
5.3550,133.0354489,40.04694871,1254.518962
5.3600,133.6012396,39.55283937,1254.204895
5.3650,134.1635417,39.05428212,1253.892568
5.3700,134.7227203,38.55164523,1253.581991
5.3750,135.2775625,38.04609331,1253.273876
5.3800,135.8269532,37.53860384,1252.968851
5.3850,136.3708731,37.03142063,1252.667582
5.3900,136.9083203,36.52543113,1252.370621
5.3950,137.4396482,36.0217517,1252.078175
5.4000,137.9638757,35.52044776,1251.790531
5.4050,138.4807309,35.02356565,1251.508338
5.4100,138.9894372,34.53108641,1251.231799
5.4150,139.4911024,34.0441084,1250.960882
5.4200,139.9848669,33.56419915,1250.696224
5.4250,140.4695155,33.09280088,1250.43854
5.4300,140.945668,32.63199362,1250.188199
5.4350,141.4136135,32.18332779,1249.945479
5.4400,141.874056,31.74759936,1249.710347
5.4450,142.3273975,31.32505942,1249.482655
5.4500,142.7740233,30.91698734,1249.262595
5.4550,143.2133431,30.5236618,1249.050297
5.4600,143.6459276,30.14501088,1248.84546
5.4650,144.0717515,29.78029287,1248.647776
5.4700,144.4898614,29.42908285,1248.45727
5.4750,144.8990805,29.09082699,1248.274006
5.4800,145.2987527,28.76443559,1248.097753
5.4850,145.6882397,28.44880242,1247.92828
5.4900,146.0667638,28.143035,1247.765438
5.4950,146.4341478,27.84580434,1247.608805
5.5000,146.7903723,27.55667793,1247.458195
5.5050,147.134617,27.27564897,1247.313755
5.5100,147.4663437,27.00117684,1247.175142
5.5150,147.7855574,26.73287267,1247.042181
5.5200,148.0951339,26.4715381,1246.914317
5.5250,148.3939279,26.21622387,1246.791547
5.5300,148.6837466,25.96646316,1246.673258
5.5350,148.9648562,25.72263022,1246.559445
5.5400,149.2379617,25.48524775,1246.450057
5.5450,149.5036113,25.25323655,1246.344625
5.5500,149.7608175,25.02508146,1246.242962
5.5550,150.010996,24.80045202,1246.144572
5.5600,150.2545133,24.57641843,1246.048533
5.5650,150.4919757,24.35358742,1245.954837
5.5700,150.7243976,24.13175581,1245.863104
5.5750,150.9522452,23.9103583,1245.773053
5.5800,151.17582,23.68794227,1245.68418
5.5850,151.3958643,23.46461503,1245.596297
5.5900,151.6116763,23.23965416,1245.509389
5.5950,151.824692,23.0115584,1245.422708
5.6000,152.034409,22.78010017,1245.336305
5.6050,152.2423542,22.54425068,1245.249514
5.6100,152.448118,22.30338374,1245.162285
5.6150,152.6516855,22.05713785,1245.074515
5.6200,152.8514582,21.80420841,1244.98623
5.6250,153.048457,21.54375037,1244.896966
5.6300,153.2413785,21.27566536,1244.806997
5.6350,153.4316297,20.99867044,1244.715649
5.6400,153.6185498,20.71408864,1244.623437
5.6450,153.8027914,20.42189566,1244.530219
5.6500,153.9861621,20.12194663,1244.435549
5.6550,154.1683321,19.81444738,1244.339601
5.6600,154.3504953,19.49971309,1244.242192
5.6650,154.5327889,19.17776416,1244.143353
5.6700,154.7147624,18.84933918,1244.043399
5.6750,154.8963176,18.51542269,1243.942668
5.6800,155.078358,18.17616598,1243.840987
5.6850,155.259988,17.83304055,1243.738977
5.6900,155.4422176,17.48590858,1243.636376
5.6950,155.6266924,17.13767419,1243.53351
5.7000,155.8123884,16.78852752,1243.430663
5.7050,156.000338,16.43911262,1243.327765
5.7100,156.1899387,16.09141003,1243.225426
5.7150,156.381463,15.74615589,1243.123766
5.7200,156.5741846,15.40439831,1243.023247
5.7250,156.7688119,15.06686155,1242.923841
5.7300,156.9659527,14.73582007,1242.82598
5.7350,157.1652989,14.41176049,1242.72983
5.7400,157.3659451,14.09503194,1242.635679
5.7450,157.5675109,13.78560391,1242.543613
5.7500,157.7696853,13.48518871,1242.45406
5.7550,157.972121,13.19347794,1242.36703
5.7600,158.1744607,12.91065538,1242.282624
5.7650,158.3775759,12.63879632,1242.201105
5.7700,158.5809613,12.37745316,1242.122449
5.7750,158.7854483,12.12800495,1242.046781
5.7800,158.991072,11.89036362,1241.974039
5.7850,159.1974602,11.66393916,1241.904121
5.7900,159.4043151,11.44966954,1241.837303
5.7950,159.610348,11.24755826,1241.773861
5.8000,159.8157952,11.05753068,1241.713714
5.8050,160.0195626,10.87889303,1241.656918
5.8100,160.223065,10.71303249,1241.603479
5.8150,160.4259727,10.55947583,1241.553325
5.8200,160.626856,10.41650805,1241.506378
5.8250,160.8265012,10.28511532,1241.462642
5.8300,161.0255214,10.16419105,1241.421715
5.8350,161.2223886,10.05313693,1241.383767
5.8400,161.416534,9.949453025,1241.348314
5.8450,161.6072186,9.852475805,1241.31534
5.8500,161.7942122,9.761164095,1241.284641
5.8550,161.9751077,9.673640742,1241.256256
5.8600,162.1502722,9.590874723,1241.230305
5.8650,162.3195631,9.510399918,1241.206255
5.8700,162.4816245,9.430036245,1241.183918
5.8750,162.6370379,9.349980412,1241.163174
5.8800,162.7864345,9.268880463,1241.143586
5.8850,162.9300267,9.185783239,1241.124891
5.8900,163.0676449,9.100389521,1241.107014
5.8950,163.1991122,9.011387805,1241.089697
5.9000,163.3238872,8.917996087,1241.072859
5.9050,163.4400901,8.820269347,1241.056901
5.9100,163.5482722,8.71683166,1241.041373
5.9150,163.6484111,8.608214267,1241.026377
5.9200,163.7420873,8.493764612,1241.011451
5.9250,163.8280397,8.372542114,1240.996627
5.9300,163.9074701,8.245174025,1240.98179
5.9350,163.9790106,8.111131976,1240.967126
5.9400,164.0446262,7.969742015,1240.952055
5.9450,164.1047755,7.820342996,1240.936341
5.9500,164.1587777,7.663993727,1240.920334
5.9550,164.2068815,7.499997299,1240.903838
5.9600,164.249605,7.329715424,1240.887053
5.9650,164.2861701,7.153187733,1240.870132
5.9700,164.3163596,6.97028331,1240.853121
5.9750,164.340372,6.781309379,1240.836014
5.9800,164.3576717,6.587422725,1240.819204
5.9850,164.3694808,6.388712187,1240.802458
5.9900,164.3747843,6.185846848,1240.78614
5.9950,164.3735664,5.978384664,1240.77017
6.0000,164.3667261,5.767597792,1240.754653
6.0050,164.3539657,5.555062195,1240.739996
6.0100,164.3344536,5.33948606,1240.72609
6.0150,164.3083783,5.122695715,1240.713296
6.0200,164.27573,4.905552436,1240.701792
6.0250,164.2369562,4.689375131,1240.691793
6.0300,164.1916885,4.473385352,1240.683192
6.0350,164.1406604,4.258471079,1240.676057
6.0400,164.0828274,4.045080887,1240.670678
6.0450,164.0184829,3.835141369,1240.667397
6.0500,163.9474149,3.627159638,1240.665964
6.0550,163.8699038,3.423318594,1240.666752
6.0600,163.7863005,3.223443285,1240.66968
6.0650,163.6968126,3.027739362,1240.674747
6.0700,163.60214,2.836381481,1240.681836
6.0750,163.5029767,2.650182708,1240.690972
6.0800,163.3995672,2.470343991,1240.702356
6.0850,163.2919217,2.297942409,1240.71619
6.0900,163.1811923,2.132466452,1240.732143
6.0950,163.0690442,1.974819889,1240.750043
6.1000,162.9553678,1.826217302,1240.770121
6.1050,162.8419003,1.687032447,1240.7921
6.1100,162.7274945,1.555639725,1240.815869
6.1150,162.6120841,1.433600611,1240.841743
6.1200,162.4963352,1.31986021,1240.869357
6.1250,162.3795296,1.213162261,1240.898616
6.1300,162.2608919,1.114039979,1240.929779
6.1350,162.1401994,1.021999761,1240.962782
6.1400,162.0177985,0.9370649892,1240.997555
6.1450,161.8932625,0.8592276487,1241.034175
6.1500,161.7669131,0.7878345656,1241.072424
6.1550,161.6394788,0.7231440932,1241.112226
6.1600,161.5114083,0.6642619682,1241.153315
6.1650,161.3826796,0.6103504445,1241.195503
6.1700,161.2537661,0.5626299548,1241.238925
6.1750,161.124949,0.5189853158,1241.283122
6.1800,160.9963537,0.480306898,1241.328238
6.1850,160.8678072,0.445613246,1241.374134
6.1900,160.7394637,0.4153920065,1241.420858
6.1950,160.6115952,0.3892175256,1241.468267
6.2000,160.4855082,0.3678877065,1241.516244
6.2050,160.3625992,0.3506148396,1241.56431
6.2100,160.2423022,0.3380008038,1241.612704
6.2150,160.1254189,0.3292247424,1241.661109
6.2200,160.012505,0.3248517079,1241.709486
6.2250,159.9039224,0.3254580204,1241.757869
6.2300,159.8006164,0.330138347,1241.805867
6.2350,159.7036763,0.3394262705,1241.853345
6.2400,159.6135333,0.3523750504,1241.900025
6.2450,159.5288403,0.3697234461,1241.946329
6.2500,159.4489194,0.3907852192,1241.99228
6.2550,159.3745622,0.4155110671,1242.037664
6.2600,159.305511,0.4427819298,1242.082316
6.2650,159.2416156,0.4725318374,1242.126252
6.2700,159.1817749,0.5044008723,1242.169621
6.2750,159.1267123,0.5368385169,1242.211983
6.2800,159.075994,0.5691795152,1242.253293
6.2850,159.0293221,0.6011672487,1242.293552
6.2900,158.9878133,0.6324252989,1242.332443
6.2950,158.9497375,0.6620688209,1242.37017
6.3000,158.9158233,0.6895198215,1242.406456
6.3050,158.8859983,0.7143630677,1242.441249
6.3100,158.8613276,0.738185228,1242.474618
6.3150,158.8418206,0.7595771467,1242.506289
6.3200,158.8286477,0.7792804051,1242.536148
6.3250,158.821568,0.7968144259,1242.56415
6.3300,158.8214111,0.8128943739,1242.590255
6.3350,158.8278392,0.8274734959,1242.614512
6.3400,158.8425793,0.8406390154,1242.636568
6.3450,158.8655985,0.8527924807,1242.656498
6.3500,158.8956454,0.8635176806,1242.674486
6.3550,158.9331632,0.8707699528,1242.690037
6.3600,158.9777847,0.8750277625,1242.703306
6.3650,159.0275642,0.874891696,1242.714444
6.3700,159.0823551,0.8713900884,1242.723678
6.3750,159.1412252,0.8621041979,1242.73073
6.3800,159.2033309,0.8462514786,1242.735618
6.3850,159.2684904,0.8235809982,1242.738347
6.3900,159.3343428,0.7941656914,1242.739426
6.3950,159.4001793,0.7568381154,1242.738769
6.4000,159.4657446,0.7113962865,1242.736413
6.4050,159.5298505,0.6576714442,1242.732556
6.4100,159.5926119,0.5956366145,1242.727187
6.4150,159.6537003,0.524755366,1242.720276
6.4200,159.7121115,0.445865706,1242.712207
6.4250,159.7680389,0.3585168164,1242.702843
6.4300,159.8206005,0.2625594366,1242.692346
6.4350,159.8708164,0.1576706754,1242.680451
6.4400,159.9182189,0.04438903106,1242.667343
6.4450,159.9635907,-0.0776454077,1242.652802
6.4500,160.0076503,-0.2081895776,1242.636732
6.4550,160.0507517,-0.3472346105,1242.619063
6.4600,160.092687,-0.4946624754,1242.599866
6.4650,160.1333984,-0.6494272303,1242.579377
6.4700,160.1734885,-0.8127727207,1242.557231
6.4750,160.2131038,-0.9832023891,1242.533684
6.4800,160.2519184,-1.161068487,1242.508758
6.4850,160.2889418,-1.346438199,1242.482637
6.4900,160.3251673,-1.540642523,1242.454889
6.4950,160.3598744,-1.74261881,1242.425881
6.5000,160.3924444,-1.953008564,1242.395636
6.5050,160.4223306,-2.17126341,1242.364379
6.5100,160.4512681,-2.398349052,1242.331592
6.5150,160.4784112,-2.633848216,1242.29754
6.5200,160.5041393,-2.877731971,1242.262172
6.5250,160.5280659,-3.129954289,1242.225599
6.5300,160.5495931,-3.38908032,1242.188229
6.5350,160.5689543,-3.65509858,1242.150028
6.5400,160.5853204,-3.927016813,1242.111374
6.5450,160.5997814,-4.205130313,1242.072005
6.5500,160.6134042,-4.489214013,1242.031747
6.5550,160.6253509,-4.778235652,1241.990991
6.5600,160.6358599,-5.072664967,1241.949615
6.5650,160.6458595,-5.372515197,1241.907447
6.5700,160.6566697,-5.677614705,1241.86427
6.5750,160.6661987,-5.988725826,1241.820393
6.5800,160.6751466,-6.304899907,1241.77585
6.5850,160.6822927,-6.626853772,1241.730791
6.5900,160.6860095,-6.954376217,1241.685611
6.5950,160.6871502,-7.286510922,1241.640307
6.6000,160.6849467,-7.623259956,1241.595068
6.6050,160.6793719,-7.964755027,1241.549876
6.6100,160.6691694,-8.311019006,1241.505032
6.6150,160.6549045,-8.660406925,1241.460697
6.6200,160.6363078,-9.012773688,1241.416965
6.6250,160.6130748,-9.367352526,1241.374044
6.6300,160.5854023,-9.723374568,1241.332026
6.6350,160.55331,-10.08057401,1241.290964
6.6400,160.5156142,-10.43815878,1241.251236
6.6450,160.473758,-10.79672302,1241.212456
6.6500,160.4286144,-11.1548109,1241.174688
6.6550,160.3799732,-11.51218896,1241.138012
6.6600,160.3284225,-11.8684417,1241.102362
6.6650,160.2750911,-12.2227969,1241.067631
6.6700,160.2207902,-12.57525033,1241.033658
6.6750,160.1648018,-12.92417086,1241.000832
6.6800,160.1085685,-13.26975429,1240.96881
6.6850,160.0521073,-13.61173951,1240.93763
6.6900,159.9959681,-13.94998463,1240.907199
6.6950,159.9391932,-14.28336897,1240.877879
6.7000,159.8807077,-14.61231221,1240.849824
6.7050,159.8203329,-14.93663033,1240.823096
6.7100,159.7575744,-15.25459923,1240.798033
6.7150,159.6933234,-15.56737199,1240.774268
6.7200,159.6268386,-15.87508669,1240.751937
6.7250,159.558347,-16.17538146,1240.731326
6.7300,159.4878022,-16.46925085,1240.712291
6.7350,159.4151214,-16.75575079,1240.694961
6.7400,159.3398555,-17.03592401,1240.679293
6.7450,159.2616602,-17.30894294,1240.665462
6.7500,159.1802452,-17.574007,1240.653624
6.7550,159.0962721,-17.83171391,1240.643543
6.7600,159.0099057,-18.08187871,1240.63521
6.7650,158.9217049,-18.32487009,1240.628446
6.7700,158.8319837,-18.55975311,1240.623293
6.7750,158.7407049,-18.78766186,1240.619601
6.7800,158.6481683,-19.00886463,1240.617243
6.7850,158.5556857,-19.2236243,1240.615909
6.7900,158.4621978,-19.43253709,1240.61572
6.7950,158.3681391,-19.63662867,1240.616446
6.8000,158.2737157,-19.83642653,1240.617952
6.8050,158.1785994,-20.03263277,1240.620226
6.8100,158.0825315,-20.2253758,1240.623299
6.8150,157.9851915,-20.4163566,1240.626997
6.8200,157.8858014,-20.60434025,1240.631644
6.8250,157.7849705,-20.79102067,1240.636881
6.8300,157.6819864,-20.97670053,1240.642814
6.8350,157.5764212,-21.16260916,1240.649366
6.8400,157.4685583,-21.34952673,1240.656384
6.8450,157.357809,-21.53781465,1240.663936
6.8500,157.2434989,-21.72830401,1240.672072
6.8550,157.1275774,-21.923591,1240.680031
6.8600,157.009964,-22.12299082,1240.687925
6.8650,156.8909968,-22.32763724,1240.695527
6.8700,156.7700652,-22.53887023,1240.702806
6.8750,156.6494449,-22.7556381,1240.709411
6.8800,156.5289939,-22.98010459,1240.715103
6.8850,156.4085728,-23.21225933,1240.719928
6.8900,156.2891769,-23.45242651,1240.723636
6.8950,156.1700526,-23.70084693,1240.726381
6.9000,156.0513476,-23.95912113,1240.727954
6.9050,155.9322393,-24.22572062,1240.72873
6.9100,155.8157899,-24.50063561,1240.728055
6.9150,155.70029,-24.7836445,1240.726362
6.9200,155.5861055,-25.07514559,1240.723532
6.9250,155.4742267,-25.37435517,1240.719451
6.9300,155.3639104,-25.68011165,1240.714441
6.9350,155.25634,-25.99091066,1240.708422
6.9400,155.1532939,-26.30626067,1240.701071
6.9450,155.0539243,-26.6252214,1240.692698
6.9500,154.9594928,-26.94643112,1240.683182
6.9550,154.8705047,-27.26849853,1240.672567
6.9600,154.7875887,-27.59119114,1240.660765
6.9650,154.7124808,-27.9132408,1240.647517
6.9700,154.6440918,-28.23437347,1240.633087
6.9750,154.585397,-28.55392979,1240.616896
6.9800,154.5358271,-28.87134025,1240.599128
6.9850,154.4957935,-29.18641212,1240.579704
6.9900,154.4661047,-29.49953655,1240.558394
6.9950,154.4470874,-29.8102757,1240.535165
7.0000,154.4400656,-30.11895999,1240.509697
7.0050,154.443914,-30.42575191,1240.482215
7.0100,154.4581358,-30.73121604,1240.452786
7.0150,154.4815248,-31.03435629,1240.421784
7.0200,154.5138559,-31.33512672,1240.389262
7.0250,154.5534238,-31.63497641,1240.355466
7.0300,154.5995827,-31.93184038,1240.320729
7.0350,154.6519209,-32.22598478,1240.285134
7.0400,154.7092319,-32.51590234,1240.249083
7.0450,154.771595,-32.80181213,1240.212533
7.0500,154.8377859,-33.0835364,1240.175779
7.0550,154.9067707,-33.35995473,1240.139139
7.0600,154.9775055,-33.63038964,1240.10289
7.0650,155.0501762,-33.89354396,1240.06709
7.0700,155.1239181,-34.14930431,1240.031937
7.0750,155.1990854,-34.39697232,1239.997392
7.0800,155.2745521,-34.63658921,1239.963678
7.0850,155.3506804,-34.86804035,1239.930698
7.0900,155.4283662,-35.09025111,1239.898337
7.0950,155.5081362,-35.30328895,1239.866443
7.1000,155.5890384,-35.50735989,1239.835199
7.1050,155.6730194,-35.70246133,1239.804145
7.1100,155.7577727,-35.89002575,1239.773634
7.1150,155.8449254,-36.06868753,1239.743415
7.1200,155.933586,-36.24072457,1239.71347
7.1250,156.0242032,-36.40641953,1239.683671
7.1300,156.1172449,-36.56649916,1239.653823
7.1350,156.2119702,-36.72025949,1239.624146
7.1400,156.3076803,-36.86896814,1239.594665
7.1450,156.404703,-37.01315313,1239.565257
7.1500,156.5029863,-37.15194868,1239.535979
7.1550,156.6018381,-37.28544753,1239.506969
7.1600,156.6998716,-37.41420024,1239.478469
7.1650,156.7971958,-37.53819474,1239.450457
7.1700,156.8938897,-37.65640325,1239.422975
7.1750,156.9880525,-37.76889064,1239.396414
7.1800,157.0805649,-37.87650135,1239.370514
7.1850,157.1710664,-37.97826355,1239.345414
7.1900,157.2606933,-38.07508812,1239.320793
7.1950,157.3501984,-38.16748673,1239.296435
7.2000,157.4398004,-38.25400574,1239.272393
7.2050,157.5303355,-38.3361376,1239.248381
7.2100,157.6208621,-38.41360322,1239.2246
7.2150,157.7118791,-38.48658205,1239.200917
7.2200,157.8039933,-38.5552489,1239.177192
7.2250,157.8981928,-38.61988189,1239.153208
7.2300,157.9953361,-38.68074283,1239.128745
7.2350,158.0959799,-38.73917743,1239.103595
7.2400,158.2002686,-38.79556373,1239.0777
7.2450,158.3090009,-38.85034668,1239.050842
7.2500,158.4228723,-38.90438805,1239.02282
7.2550,158.5428407,-38.95758885,1238.993445
7.2600,158.6681044,-39.01040007,1238.962847
7.2650,158.7991341,-39.06470533,1238.930783
7.2700,158.9366366,-39.11980032,1238.897174
7.2750,159.0798892,-39.17759928,1238.862026
7.2800,159.2289568,-39.2379084,1238.825356
7.2850,159.3832158,-39.30110472,1238.787258
7.2900,159.5426313,-39.36594888,1238.747845
7.2950,159.706892,-39.43311734,1238.70714
7.3000,159.8758086,-39.50283877,1238.665162
7.3050,160.0484748,-39.57472925,1238.622143
7.3100,160.2248952,-39.64932475,1238.578039
7.3150,160.4041798,-39.72669658,1238.533034
7.3200,160.5858469,-39.80574529,1238.487308
7.3250,160.7688135,-39.88693111,1238.441055
7.3300,160.9521627,-39.97009628,1238.394474
7.3350,161.1348193,-40.05554416,1238.347757
7.3400,161.3171682,-40.14239627,1238.300891
7.3450,161.498304,-40.23134089,1238.254012
7.3500,161.6761389,-40.32107767,1238.207617
7.3550,161.852037,-40.4111067,1238.161459
7.3600,162.0250668,-40.50108786,1238.115744
7.3650,162.1951864,-40.59159952,1238.070446
7.3700,162.3614639,-40.68186336,1238.025781
7.3750,162.5238845,-40.77198565,1237.981738
7.3800,162.6820347,-40.86161361,1237.938417
7.3850,162.8359489,-40.94947683,1237.895903
7.3900,162.9852554,-41.03626705,1237.8542
7.3950,163.1289566,-41.1212486,1237.813541
7.4000,163.2672794,-41.20457129,1237.773856
7.4050,163.3989359,-41.28600845,1237.735407
7.4100,163.5249914,-41.36515367,1237.698012
7.4150,163.6438319,-41.44180239,1237.661981
7.4200,163.7556032,-41.51513046,1237.627331
7.4250,163.8591281,-41.58339882,1237.5944
7.4300,163.9538036,-41.6483608,1237.563183
7.4350,164.0401024,-41.70923284,1237.533618
7.4400,164.1179868,-41.76478903,1237.505794
7.4450,164.1876015,-41.81491904,1237.47969
7.4500,164.2484185,-41.86098686,1237.455311
7.4550,164.3010768,-41.90189879,1237.432606
7.4600,164.3457227,-41.93662774,1237.411607
7.4650,164.3827001,-41.96666697,1237.392135
7.4700,164.4123507,-41.99101468,1237.374198
7.4750,164.4351767,-42.01122419,1237.357599
7.4800,164.4516295,-42.02588291,1237.342337
7.4850,164.4633876,-42.03643575,1237.328001
7.4900,164.4691024,-42.04267272,1237.314851
7.4950,164.4704199,-42.04460819,1237.30258
7.5000,164.4685263,-42.04132712,1237.291026
7.5050,164.4640869,-42.03401924,1237.279969
7.5100,164.4571048,-42.02190131,1237.269482
7.5150,164.4497025,-42.00551861,1237.259107
7.5200,164.4418103,-41.98512756,1237.248845
7.5250,164.4329391,-41.9609899,1237.238758
7.5300,164.4250129,-41.93369618,1237.228446
7.5350,164.4173652,-41.90304476,1237.218048
7.5400,164.4107147,-41.8691573,1237.207404
7.5450,164.405347,-41.83270305,1237.196441
7.5500,164.4023834,-41.79330528,1237.184952
7.5550,164.400687,-41.75278884,1237.173038
7.5600,164.4031849,-41.71015191,1237.160206
7.5650,164.4074751,-41.66531326,1237.146935
7.5700,164.4152052,-41.61992207,1237.132783
7.5750,164.4257852,-41.57280238,1237.11795
7.5800,164.4389542,-41.52574765,1237.102362
7.5850,164.4562154,-41.47842128,1237.085769
7.5900,164.4770763,-41.43214031,1237.068176
7.5950,164.5014694,-41.38722145,1237.049585
7.6000,164.5293143,-41.34288799,1237.030055
7.6050,164.5605512,-41.29986619,1237.009562
7.6100,164.5960498,-41.25772116,1236.987977
7.6150,164.635767,-41.2170353,1236.965267
7.6200,164.6795776,-41.17789182,1236.941458
7.6250,164.7269476,-41.13928693,1236.916723
7.6300,164.7787795,-41.10297355,1236.890783
7.6350,164.8345867,-41.06741517,1236.863826
7.6400,164.8952083,-41.03329636,1236.835671
7.6450,164.9590399,-40.99912988,1236.806704
7.6500,165.0274982,-40.96658097,1236.776563
7.6550,165.0985855,-40.93512821,1236.745681
7.6600,165.1733129,-40.90456621,1236.713872
7.6650,165.2504052,-40.87445446,1236.681412
7.6700,165.3309508,-40.84654463,1236.647991
7.6750,165.4133266,-40.81898581,1236.614039
7.6800,165.4988585,-40.79208549,1236.579292
7.6850,165.585593,-40.7664412,1236.544077
7.6900,165.6744057,-40.74132294,1236.508288
7.6950,165.7647727,-40.71718551,1236.472008
7.7000,165.8569628,-40.69380626,1236.435206
7.7050,165.9507936,-40.67152774,1236.397894
7.7100,166.0454784,-40.64874527,1236.360351
7.7150,166.1412644,-40.6261538,1236.322493
7.7200,166.2384375,-40.60344085,1236.284281
7.7250,166.335768,-40.58041559,1236.24597
7.7300,166.4328431,-40.55677356,1236.207667
7.7350,166.5295087,-40.53223518,1236.169436
7.7400,166.6259177,-40.50697754,1236.131216
7.7450,166.7201985,-40.48100177,1236.093363
7.7500,166.8125863,-40.45358778,1236.055911
7.7550,166.9016752,-40.42436665,1236.019131
7.7600,166.9888171,-40.39463735,1235.982672
7.7650,167.0720255,-40.36320217,1235.947012
7.7700,167.1510573,-40.33070467,1235.912149
7.7750,167.2256177,-40.2968567,1235.87814
7.7800,167.2954645,-40.26139981,1235.845064
7.7850,167.359417,-40.22475798,1235.813099
7.7900,167.4192127,-40.18597527,1235.782007
7.7950,167.4742975,-40.14490573,1235.751886
7.8000,167.5227096,-40.10350823,1235.72296
7.8050,167.5659035,-40.06031206,1235.69507
7.8100,167.6040651,-40.01699769,1235.668047
7.8150,167.6362279,-39.97284608,1235.642128
7.8200,167.6634705,-39.9273036,1235.617152
7.8250,167.6871759,-39.88178692,1235.592763
7.8300,167.7056487,-39.8350463,1235.569363
7.8350,167.7211961,-39.78780093,1235.546474
7.8400,167.7330914,-39.74012979,1235.524242
7.8450,167.7425016,-39.69080308,1235.502509
7.8500,167.7481106,-39.64093738,1235.481442
7.8550,167.7508386,-39.5892169,1235.460981
7.8600,167.7488548,-39.53719654,1235.441333
7.8650,167.7443243,-39.48340503,1235.422204
7.8700,167.7348712,-39.42737683,1235.404088
7.8750,167.7229461,-39.36907963,1235.386522
7.8800,167.7084721,-39.30721153,1235.369622
7.8850,167.6900648,-39.24261326,1235.353583
7.8900,167.6682308,-39.17538418,1235.338294
7.8950,167.6428441,-39.1046568,1235.32386
7.9000,167.6140159,-39.03105001,1235.310209
7.9050,167.5834253,-38.9535066,1235.297108
7.9100,167.5496327,-38.87332199,1235.284727
7.9150,167.5141193,-38.78800418,1235.272988
7.9200,167.4771442,-38.69919566,1235.261713
7.9250,167.4399285,-38.60599815,1235.250743
7.9300,167.402685,-38.50774426,1235.2401
7.9350,167.3665018,-38.40572151,1235.229478
7.9400,167.3318121,-38.29890311,1235.218864
7.9450,167.2991795,-38.18827711,1235.208118
7.9500,167.2696339,-38.07247776,1235.197119
7.9550,167.2437674,-37.95274752,1235.185671
7.9600,167.2218787,-37.82888627,1235.173734
7.9650,167.2050185,-37.70167462,1235.161052
7.9700,167.1935355,-37.57006823,1235.147648
7.9750,167.1881942,-37.4364436,1235.133207
7.9800,167.1891919,-37.30034214,1235.117721
7.9850,167.1969692,-37.1622682,1235.101051
7.9900,167.2107257,-37.02341388,1235.083271
7.9950,167.2306373,-36.88423232,1235.064295
8.0000,167.2564793,-36.74530389,1235.044112
8.0050,167.288156,-36.60607718,1235.022823
8.0100,167.325949,-36.46737344,1235.000274
8.0150,167.3687437,-36.32966704,1234.976647
8.0200,167.4158865,-36.19341309,1234.952045
8.0250,167.4681442,-36.05969148,1234.926227
8.0300,167.5250081,-35.92828295,1234.899294
8.0350,167.5861299,-35.79882537,1234.871357
8.0400,167.6509944,-35.67197226,1234.842477
8.0450,167.7199683,-35.54758088,1234.812606
8.0500,167.7930121,-35.42564862,1234.781724
8.0550,167.8704974,-35.30647922,1234.749755
8.0600,167.9511227,-35.18960863,1234.717
8.0650,168.0363935,-35.07411789,1234.683234
8.0700,168.1247468,-34.96103566,1234.648673
8.0750,168.2174347,-34.84894954,1234.613211
8.0800,168.3131716,-34.73778128,1234.57709
8.0850,168.4123934,-34.62770861,1234.540226
8.0900,168.5144251,-34.51902406,1234.50269
8.0950,168.6182408,-34.41207071,1234.464658
8.1000,168.725197,-34.30637765,1234.425928
8.1050,168.8342395,-34.20286235,1234.386592
8.1100,168.9452109,-34.10077325,1234.346787
8.1150,169.0573875,-34.00050551,1234.306607
8.1200,169.1710797,-33.90183021,1234.266013
8.1250,169.2844272,-33.80436672,1234.225376
8.1300,169.3987798,-33.70823501,1234.184445
8.1350,169.5113348,-33.61321823,1234.14376
8.1400,169.6229822,-33.5181102,1234.103272
8.1450,169.7331722,-33.42347477,1234.063029
8.1500,169.8415854,-33.32920898,1234.023117
8.1550,169.948272,-33.23434596,1233.983592
8.1600,170.0523943,-33.13903079,1233.944619
8.1650,170.1538901,-33.04437441,1233.906101
8.1700,170.2529353,-32.95039863,1233.868004
8.1750,170.3477088,-32.85697222,1233.830661
8.1800,170.4381629,-32.76466398,1233.794039
8.1850,170.5244909,-32.67303048,1233.758122
8.1900,170.6076861,-32.58099533,1233.722845
8.1950,170.6877392,-32.48959026,1233.688106
8.2000,170.7637624,-32.39805073,1233.654142
8.2050,170.8358699,-32.30736726,1233.620842
8.2100,170.9041066,-32.21616956,1233.588324
8.2150,170.9673739,-32.12615913,1233.556621
8.2200,171.0264952,-32.03539331,1233.525789
8.2250,171.0818817,-31.9448848,1233.495647
8.2300,171.133673,-31.85427023,1233.466192
8.2350,171.1820308,-31.76308156,1233.43747
8.2400,171.2265705,-31.67195396,1233.409493
8.2450,171.2681636,-31.58079442,1233.382101
8.2500,171.3076663,-31.48939778,1233.355186
8.2550,171.3449066,-31.39718369,1233.328851
8.2600,171.3803694,-31.30499881,1233.302928
8.2650,171.4129068,-31.21091748,1233.27783
8.2700,171.4433841,-31.11573046,1233.253326
8.2750,171.4725283,-31.01775739,1233.229431
8.2800,171.5002545,-30.91849723,1233.20604
8.2850,171.5268594,-30.81695696,1233.183211
8.2900,171.5526673,-30.71262948,1233.16093
8.2950,171.5778346,-30.60566856,1233.139156
8.3000,171.6024907,-30.49665704,1233.117821
8.3050,171.6258698,-30.38538041,1233.09706
8.3100,171.6479976,-30.27242595,1233.07683
8.3150,171.6685908,-30.15747809,1233.057215
8.3200,171.6866416,-30.04122344,1233.038327
8.3250,171.7023377,-29.92270233,1233.020246
8.3300,171.7152393,-29.80145645,1233.003105
8.3350,171.7257732,-29.67838403,1232.986754
8.3400,171.7334096,-29.55147151,1232.971459
8.3450,171.7383802,-29.42060612,1232.95721
8.3500,171.7406953,-29.28558595,1232.944045
8.3550,171.7398405,-29.1458264,1232.932127
8.3600,171.736486,-29.0010366,1232.921372
8.3650,171.7293587,-28.85168276,1232.911964
8.3700,171.7197359,-28.69683989,1232.903789
8.3750,171.7064637,-28.537401,1232.896966
8.3800,171.6887311,-28.3738108,1232.891605
8.3850,171.6673267,-28.20556116,1232.887651
8.3900,171.6417076,-28.03193035,1232.885309
8.3950,171.6123347,-27.8534984,1232.884464
8.4000,171.5794922,-27.66840771,1232.885252
8.4050,171.5426183,-27.4758935,1232.887897
8.4100,171.5010773,-27.27575334,1232.892493
8.4150,171.4571713,-27.06786738,1232.898698
8.4200,171.4093148,-26.85178314,1232.906839
8.4250,171.3596103,-26.62693184,1232.916631
8.4300,171.3062889,-26.3944511,1232.928267
8.4350,171.250343,-26.15303141,1232.941724
8.4400,171.1911911,-25.90411599,1232.956971
8.4450,171.1279098,-25.64720834,1232.974267
8.4500,171.0611457,-25.38219991,1232.99351
8.4550,170.9913608,-25.11047956,1233.014495
8.4600,170.9186305,-24.83054858,1233.037366
8.4650,170.8425337,-24.54303632,1233.062205
8.4700,170.764219,-24.2464085,1233.088973
8.4750,170.6834278,-23.94236184,1233.117564
8.4800,170.6012959,-23.62956805,1233.147937
8.4850,170.518325,-23.30830377,1233.180021
8.4900,170.4330316,-22.98031223,1233.213881
8.4950,170.3463723,-22.64649007,1233.249254
8.5000,170.2587611,-22.30631691,1233.286154
8.5050,170.170109,-21.96050894,1233.324527
8.5100,170.0804192,-21.61017539,1233.364262
8.5150,169.9903085,-21.25585253,1233.405209
8.5200,169.8993818,-20.89858285,1233.447309
8.5250,169.8077168,-20.53890285,1233.490497
8.5300,169.714218,-20.17786765,1233.534844
8.5350,169.6201118,-19.81412514,1233.580282
8.5400,169.5247637,-19.44852111,1233.626814
8.5450,169.427921,-19.08078658,1233.674518
8.5500,169.3278973,-18.7118169,1233.723582
8.5550,169.2254747,-18.34167122,1233.773845
8.5600,169.1202885,-17.97040209,1233.825381
8.5650,169.0125638,-17.59906017,1233.877973
8.5700,168.9023261,-17.22765327,1233.93162
8.5750,168.7868538,-16.8561372,1233.98685
8.5800,168.6666586,-16.48439707,1234.043573
8.5850,168.5417364,-16.11338185,1234.101642
8.5900,168.4113377,-15.74264132,1234.161292
8.5950,168.2744974,-15.37270283,1234.222612
8.6000,168.130797,-15.00300975,1234.285771
8.6050,167.9789898,-14.63411867,1234.350938
8.6100,167.819071,-14.26495566,1234.418246
8.6150,167.6506996,-13.89544127,1234.487787
8.6200,167.4742049,-13.5249121,1234.559581
8.6250,167.2903448,-13.15411264,1234.633384
8.6300,167.0989261,-12.78205776,1234.709409
8.6350,166.8991549,-12.40872179,1234.787811
8.6400,166.6918825,-12.03482089,1234.868335
8.6450,166.4759621,-11.65985603,1234.951286
8.6500,166.2509433,-11.28473553,1235.036652
8.6550,166.0165394,-10.90975986,1235.12444
8.6600,165.7712448,-10.5344556,1235.215036
8.6650,165.5154216,-10.15948338,1235.308306
8.6700,165.2485334,-9.784706828,1235.404391
8.6750,164.9709768,-9.409811742,1235.503289
8.6800,164.6834039,-9.033362427,1235.605129
8.6850,164.3850932,-8.654754111,1235.710161
8.6900,164.076323,-8.27412507,1235.818354
8.6950,163.7580084,-7.890619597,1235.929697
8.7000,163.429369,-7.503905611,1236.044428
8.7050,163.0921158,-7.113928942,1236.162264
8.7100,162.7463219,-6.720237463,1236.283326
8.7150,162.3917559,-6.322404663,1236.407752
8.7200,162.0289871,-5.920862919,1236.535453
8.7250,161.6570585,-5.514311524,1236.666889
8.7300,161.2780236,-5.101989073,1236.801833
8.7350,160.8921477,-4.684888375,1236.940111
8.7400,160.4993863,-4.261673377,1237.081997
8.7450,160.1010447,-3.832190632,1237.227295
8.7500,159.6979514,-3.395551311,1237.376038
8.7550,159.2909304,-2.950833153,1237.528273
8.7600,158.8812303,-2.499204316,1237.683607
8.7650,158.4697485,-2.04094726,1237.841817
8.7700,158.0577052,-1.577520374,1238.00245
8.7750,157.645818,-1.108564011,1238.165445
8.7800,157.2331838,-0.6363726438,1238.330619
8.7850,156.8211863,-0.1616917545,1238.497549
8.7900,156.4097832,0.3155864369,1238.666292
8.7950,156.0000409,0.7964949468,1238.836831
8.8000,155.5930418,1.278636086,1239.00847
8.8050,155.1896535,1.762637304,1239.181096
8.8100,154.7910516,2.248065352,1239.354378
8.8150,154.3976244,2.733959699,1239.528014
8.8200,154.0108447,3.220901039,1239.701767
8.8250,153.6317964,3.707490369,1239.875081
8.8300,153.2619723,4.193913886,1240.047641
8.8350,152.9019748,4.679094324,1240.219059
8.8400,152.552426,5.163308956,1240.389194
8.8450,152.2151368,5.645666996,1240.557416
8.8500,151.8920331,6.126075363,1240.723184
8.8550,151.5824627,6.603207596,1240.886333
8.8600,151.286431,7.076073574,1241.046614
8.8650,151.0037334,7.544312756,1241.203943
8.8700,150.7326839,8.007321969,1241.358524
8.8750,150.4764627,8.463257763,1241.509135
8.8800,150.2332959,8.91250215,1241.656225
8.8850,150.0025889,9.35389653,1241.799637
8.8900,149.7839818,9.786121168,1241.939084
8.8950,149.5769312,10.20921723,1242.074676
8.9000,149.3800367,10.62197961,1242.206429
8.9050,149.1927747,11.024261,1242.334365
8.9100,149.0137057,11.41525067,1242.458627
8.9150,148.8416594,11.7951877,1242.579504
8.9200,148.6758355,12.1638616,1242.697091
8.9250,148.5139021,12.52208274,1242.812097
8.9300,148.3557772,12.87038017,1242.924591
8.9350,148.1995958,13.20892348,1243.035014
8.9400,148.044586,13.53971375,1243.143958
8.9450,147.8902486,13.8628992,1243.251547
8.9500,147.7360916,14.17964106,1243.358113
8.9550,147.5808197,14.49143967,1243.464305
8.9600,147.4244695,14.7984762,1243.570143
8.9650,147.266793,15.10368003,1243.676321
8.9700,147.1074788,15.40714976,1243.782927
8.9750,146.9467955,15.71026063,1243.8902
8.9800,146.7840214,16.01321881,1243.99838
8.9850,146.6187425,16.31757798,1244.107894
8.9900,146.4505761,16.62233777,1244.218637
8.9950,146.2791788,16.92898261,1244.331053
9.0000,146.1037654,17.23617313,1244.445059
9.0050,145.9230469,17.54530276,1244.561323
9.0100,145.7376009,17.85722701,1244.679925
9.0150,145.546356,18.17114287,1244.800933
9.0200,145.3488808,18.48748911,1244.924582
9.0250,145.1449574,18.80562431,1245.050787
9.0300,144.9335806,19.12528447,1245.179784
9.0350,144.7143546,19.44765938,1245.311971
9.0400,144.4873666,19.77066648,1245.446866
9.0450,144.2529351,20.09557409,1245.584722
9.0500,144.0094424,20.42190575,1245.725879
9.0550,143.7562308,20.7493363,1245.870472
9.0600,143.4935008,21.07705021,1246.018262
9.0650,143.2205061,21.40659113,1246.169855
9.0700,142.9366568,21.73704839,1246.325204
9.0750,142.6415937,22.06859154,1246.484508
9.0800,142.3358234,22.40133068,1246.647691
9.0850,142.0190988,22.73526912,1246.814874
9.0900,141.6935388,23.07045096,1246.98555
9.0950,141.3588211,23.40585239,1247.159544
9.1000,141.0158725,23.74243026,1247.336871
9.1050,140.6649895,24.08040858,1247.517571
9.1100,140.3074158,24.42078386,1247.701563
9.1150,139.9446715,24.76252036,1247.888187
9.1200,139.5768047,25.10510066,1248.077331
9.1250,139.2036767,25.44891909,1248.269154
9.1300,138.8264247,25.79361335,1248.463262
9.1350,138.4437104,26.13833949,1248.659849
9.1400,138.0575231,26.48251793,1248.858232
9.1450,137.667703,26.82691903,1249.058655
9.1500,137.2732942,27.17088219,1249.261252
9.1550,136.8760438,27.51552632,1249.465832
9.1600,136.4766562,27.86088932,1249.672219
9.1650,136.0767405,28.20557627,1249.879595
9.1700,135.6766869,28.55105811,1250.088275
9.1750,135.275949,28.89613117,1250.298106
9.1800,134.8746524,29.24132738,1250.509208
9.1850,134.4733551,29.58609238,1250.72129
9.1900,134.0708883,29.93070779,1250.934799
9.1950,133.668925,30.27486093,1251.149161
9.2000,133.2670957,30.61948789,1251.364759
9.2050,132.8667628,30.96475258,1251.581248
9.2100,132.4667915,31.30982318,1251.798695
9.2150,132.0686092,31.65483913,1252.01671
9.2200,131.6726607,32.00124738,1252.235568
9.2250,131.2784049,32.34833244,1252.455217
9.2300,130.8871604,32.6964688,1252.675357
9.2350,130.5003487,33.04593652,1252.895628
9.2400,130.1166844,33.39641952,1253.116335
9.2450,129.7367751,33.7478138,1253.337217
9.2500,129.359995,34.10185841,1253.558966
9.2550,128.9876024,34.45790664,1253.781
9.2600,128.6193492,34.81667083,1254.003584
9.2650,128.2542864,35.17771536,1254.226884
9.2700,127.8925336,35.54120089,1254.450922
9.2750,127.5332833,35.90782772,1254.676194
9.2800,127.1780943,36.27704119,1254.902035
9.2850,126.8267766,36.64716013,1255.128043
9.2900,126.4782805,37.01953046,1255.354931
9.2950,126.1306126,37.3940107,1255.583321
9.3000,125.784333,37.77080253,1255.813083
9.3050,125.4390025,38.14941309,1256.044227
9.3100,125.0931531,38.52793749,1256.276642
9.3150,124.7466092,38.90755514,1256.510793
9.3200,124.3992336,39.28685191,1256.746247
9.3250,124.0507569,39.66659755,1256.983336
9.3300,123.7006793,40.04553451,1257.221826
9.3350,123.3493707,40.42299939,1257.46142
9.3400,122.9955996,40.79949419,1257.70267
9.3450,122.6385721,41.17359782,1257.945411
9.3500,122.2795701,41.54558127,1258.189266
9.3550,121.9178508,41.91422673,1258.434046
9.3600,121.5521093,42.28027811,1258.680422
9.3650,121.1832569,42.64194719,1258.927495
9.3700,120.8120146,42.9998186,1259.17519
9.3750,120.4390508,43.35336133,1259.423042
9.3800,120.0660031,43.70286094,1259.670557
9.3850,119.6933477,44.04697016,1259.917092
9.3900,119.3197157,44.38504429,1260.162851
9.3950,118.9458238,44.71688957,1260.407491
9.4000,118.5720582,45.04162734,1260.650576
9.4050,118.1987113,45.3581609,1260.891598
9.4100,117.8267977,45.66514177,1261.129728
9.4150,117.4549272,45.96330328,1261.365674
9.4200,117.083801,46.25251877,1261.599101
9.4250,116.7144034,46.53359775,1261.829934
9.4300,116.3466818,46.80688718,1262.058275
9.4350,115.9820406,47.07282649,1262.283745
9.4400,115.6203085,47.33178447,1262.506462
9.4450,115.2619223,47.583581,1262.726193
9.4500,114.9082225,47.82866278,1262.94256
9.4550,114.5592852,48.06588523,1263.155113
9.4600,114.2150238,48.29544718,1263.363919
9.4650,113.8762246,48.51928718,1263.569313
9.4700,113.543185,48.73517248,1263.770357
9.4750,113.2150054,48.94484627,1263.967956
9.4800,112.8928519,49.14754333,1264.161343
9.4850,112.5772579,49.34493893,1264.350862
9.4900,112.2690968,49.53680312,1264.536078
9.4950,111.968174,49.72322469,1264.717074
9.5000,111.6752285,49.90427661,1264.893561
9.5050,111.3904401,50.08006544,1265.06549
9.5100,111.1142385,50.25111279,1265.23286
9.5150,110.8463449,50.4170392,1265.395619
9.5200,110.5861246,50.57786266,1265.553984
9.5250,110.3342626,50.73400908,1265.707801
9.5300,110.0896431,50.8855597,1265.857516
9.5350,109.8519619,51.0327765,1266.003291
9.5400,109.6215445,51.17571164,1266.145003
9.5450,109.3981113,51.31446133,1266.28279
9.5500,109.1829165,51.4487421,1266.416016
9.5550,108.9743713,51.57926533,1266.545535
9.5600,108.7730694,51.70621786,1266.67117
9.5650,108.578855,51.82904777,1266.792766
9.5700,108.3927074,51.94934529,1266.910469
9.5750,108.2138642,52.06620365,1267.024235
9.5800,108.040629,52.17938317,1267.134632
9.5850,107.8733122,52.29009346,1267.241923
9.5900,107.7121381,52.39827745,1267.345998
9.5950,107.5567586,52.50362134,1267.446853
9.6000,107.4072569,52.60692017,1267.544751
9.6050,107.2638239,52.70726466,1267.639266
9.6100,107.1261703,52.80560996,1267.730886
9.6150,106.9935815,52.9011533,1267.819585
9.6200,106.8653627,52.99528221,1267.906173
9.6250,106.7402601,53.08682192,1267.990736
9.6300,106.6183829,53.17784419,1268.073977
9.6350,106.498227,53.26682682,1268.155919
9.6400,106.3789172,53.35515517,1268.237434
9.6450,106.2593944,53.44191381,1268.318617
9.6500,106.1380596,53.52680732,1268.399997
9.6550,106.0151664,53.61140117,1268.48202
9.6600,105.8910407,53.6951397,1268.564362
9.6650,105.7658262,53.77934305,1268.647459
9.6700,105.6377641,53.86308364,1268.731695
9.6750,105.5058826,53.9469682,1268.817662
9.6800,105.3697863,54.03071433,1268.905433
9.6850,105.228939,54.11695792,1268.996153
9.6900,105.0836328,54.20494957,1269.089474
9.6950,104.9347144,54.29560592,1269.185362
9.7000,104.7836424,54.39011243,1269.283681
9.7050,104.6304778,54.48866583,1269.384485
9.7100,104.4757909,54.59188048,1269.487749
9.7150,104.3207054,54.69971627,1269.593017
9.7200,104.1652233,54.81149809,1269.70003
9.7250,104.0095947,54.92723483,1269.808698
9.7300,103.8547666,55.0464996,1269.918508
9.7350,103.701684,55.16949386,1270.02916
9.7400,103.5512239,55.29624542,1270.14034
9.7450,103.4045154,55.426848,1270.251605
9.7500,103.2618645,55.56128786,1270.362857
9.7550,103.1227942,55.69879888,1270.474001
9.7600,102.9868624,55.83935685,1270.585227
9.7650,102.853269,55.98158163,1270.696387
9.7700,102.7229049,56.12689565,1270.80764
9.7750,102.5970966,56.27421344,1270.918017
9.7800,102.475808,56.42469914,1271.027992
9.7850,102.3600876,56.57733803,1271.136727
9.7900,102.2500129,56.73140228,1271.243887
9.7950,102.1463109,56.88775175,1271.349497
9.8000,102.0489225,57.04507607,1271.453063
9.8050,101.9573399,57.20332196,1271.55476
9.8100,101.8737432,57.36202369,1271.653505
9.8150,101.7986289,57.52207099,1271.749411
9.8200,101.7337479,57.68226464,1271.841302
9.8250,101.681198,57.84419281,1271.92886
9.8300,101.6425983,58.00750702,1272.011277
9.8350,101.61725,58.17107562,1272.088396
9.8400,101.606155,58.33316824,1272.159144
9.8450,101.6095563,58.49479246,1272.223766
9.8500,101.6259233,58.65446175,1272.282316
9.8550,101.6565788,58.81124478,1272.33388
9.8600,101.7011543,58.96338806,1272.377907
9.8650,101.7596116,59.11126631,1272.414549
9.8700,101.8296379,59.25306588,1272.444091
9.8750,101.9112931,59.38843463,1272.466336
9.8800,102.0024826,59.51742951,1272.482187
9.8850,102.102073,59.64028078,1272.492229
9.8900,102.2082347,59.7573498,1272.497351
9.8950,102.3200357,59.86747846,1272.497499
9.9000,102.4363059,59.97183696,1272.493592
9.9050,102.5548426,60.07096951,1272.486779
9.9100,102.6752544,60.16543882,1272.477375
9.9150,102.7972155,60.25695284,1272.466175
9.9200,102.9192793,60.34585591,1272.453892
9.9250,103.0405114,60.43367135,1272.441471
9.9300,103.1589949,60.51904145,1272.429168
9.9350,103.2746423,60.60320948,1272.417515
9.9400,103.3871081,60.68693914,1272.406908
9.9450,103.4960011,60.77025712,1272.397543
9.9500,103.6009649,60.8533292,1272.389631
9.9550,103.7011944,60.93603331,1272.383483
9.9600,103.796602,61.01811275,1272.379022
9.9650,103.8857783,61.09911821,1272.376621
9.9700,103.969656,61.17866488,1272.375747
9.9750,104.0487723,61.25609053,1272.375918
9.9800,104.1218671,61.33022073,1272.377167
9.9850,104.1878357,61.3993763,1272.379312
9.9900,104.2479569,61.46324471,1272.381651
9.9950,104.3014923,61.52081316,1272.384137
10.0000,104.3462474,61.5700171,1272.386832
10.0050,104.3829198,61.61002751,1272.389142
10.0100,104.4106009,61.63987487,1272.391084
10.0150,104.4297067,61.66030912,1272.392758
10.0200,104.4410162,61.67145755,1272.393919
10.0250,104.4462601,61.67301371,1272.393742
10.0300,104.4452139,61.66496563,1272.392287
10.0350,104.4379705,61.64691188,1272.38938
10.0400,104.424303,61.61880041,1272.385106
10.0450,104.4046509,61.58124895,1272.37956
10.0500,104.3791103,61.53406917,1272.372591
10.0550,104.3502023,61.47948726,1272.36405
10.0600,104.319006,61.41732355,1272.353422
10.0650,104.2876734,61.34859223,1272.340228
10.0700,104.2560532,61.27313432,1272.324472
10.0750,104.2248473,61.19155961,1272.30612
10.0800,104.1956993,61.10381807,1272.284509
10.0850,104.1679625,61.01038578,1272.260112
10.0900,104.1431724,60.91233426,1272.23271
10.0950,104.1219593,60.81003733,1272.202172
10.1000,104.1073963,60.70531709,1272.167946
10.1050,104.1008022,60.59853163,1272.129589
10.1100,104.1021535,60.49044309,1272.087412
10.1150,104.1135592,60.38091983,1272.040469
10.1200,104.1345742,60.26961066,1271.988787
10.1250,104.1649208,60.15553672,1271.932119
10.1300,104.2047761,60.03812735,1271.870152
10.1350,104.2563012,59.91825904,1271.802347
10.1400,104.3195173,59.79626395,1271.728786
10.1450,104.395607,59.67217432,1271.649023
10.1500,104.4859396,59.54563669,1271.562434
10.1550,104.5891558,59.4163912,1271.46949
10.1600,104.7052615,59.28541582,1271.370578
10.1650,104.8344049,59.15135243,1271.265175
10.1700,104.9767616,59.01437963,1271.153291
10.1750,105.1315083,58.8752668,1271.03558
10.1800,105.2997495,58.73349816,1270.911431
10.1850,105.4814158,58.58823844,1270.780582
10.1900,105.675536,58.43823658,1270.642971
10.1950,105.8816481,58.28519677,1270.499478
10.2000,106.098194,58.12701002,1270.349959
10.2050,106.3243451,57.96422521,1270.194961
10.2100,106.5584297,57.79683912,1270.035211
10.2150,106.7988883,57.62310042,1269.870737
10.2200,107.0444945,57.44297029,1269.702037
10.2250,107.2944229,57.25515216,1269.529001
10.2300,107.5491419,57.06135997,1269.352128
10.2350,107.8058887,56.86169401,1269.172569
10.2400,108.0663495,56.65656937,1268.989837
10.2450,108.3288103,56.44663055,1268.804827
10.2500,108.5931187,56.2320195,1268.617693
10.2550,108.8591584,56.01266666,1268.428465
10.2600,109.1267415,55.78972197,1268.237634
10.2650,109.3950273,55.56293717,1268.045468
10.2700,109.664054,55.3329735,1267.852184
10.2750,109.933139,55.09931362,1267.657865
10.2800,110.2010155,54.86257092,1267.463273
10.2850,110.4685606,54.62160439,1267.267642
10.2900,110.7339771,54.37731581,1267.072045
10.2950,110.9972328,54.12944468,1266.876369
10.3000,111.2581655,53.87805465,1266.680762
10.3050,111.5171636,53.62304925,1266.48502
10.3100,111.7733603,53.36524258,1266.289785
10.3150,112.0260121,53.10424715,1266.095221
10.3200,112.2745722,52.84020178,1265.901579
10.3250,112.5171965,52.57325332,1265.709603
10.3300,112.7551833,52.30433935,1265.519148
10.3350,112.9878785,52.03327089,1265.330379
10.3400,113.2149333,51.7609903,1265.143737
10.3450,113.4366382,51.48767059,1264.959199
10.3500,113.6531567,51.21336582,1264.776715
10.3550,113.8631754,50.93831793,1264.596866
10.3600,114.0683299,50.66380734,1264.419464
10.3650,114.2679606,50.39010061,1264.244794
10.3700,114.4641417,50.11680453,1264.071969
10.3750,114.6567012,49.84502826,1263.901428
10.3800,114.8451511,49.5733845,1263.732854
10.3850,115.0315286,49.30372709,1263.566128
10.3900,115.2168254,49.03672965,1263.401123
10.3950,115.4006695,48.77139639,1263.237601
10.4000,115.5823719,48.50845007,1263.076073
10.4050,115.7627693,48.24739208,1262.916106
10.4100,115.9424514,47.98969678,1262.757956
10.4150,116.1200643,47.7339201,1262.601642
10.4200,116.2960765,47.48088382,1262.447277
10.4250,116.4707645,47.2298741,1262.294529
10.4300,116.6439065,46.98133299,1262.143632
10.4350,116.8145369,46.73440569,1261.99464
10.4400,116.9829832,46.48989944,1261.847743
10.4450,117.1489927,46.24643297,1261.702542
10.4500,117.312448,46.00441198,1261.559192
10.4550,117.4744055,45.76342712,1261.417161
10.4600,117.6348319,45.52471518,1261.276887
10.4650,117.7933867,45.28776123,1261.138284
10.4700,117.9501692,45.05364698,1261.001651
10.4750,118.1054221,44.82157931,1260.866645
10.4800,118.2601076,44.59230666,1260.733123
10.4850,118.413086,44.36625779,1260.601635
10.4900,118.5658297,44.14373153,1260.471753
10.4950,118.7188452,43.9244038,1260.343169
10.5000,118.8732338,43.70902714,1260.215717
10.5050,119.0282913,43.49742324,1260.089602
10.5100,119.1849826,43.28977,1259.964527
10.5150,119.3435676,43.08652583,1259.840535
10.5200,119.504769,42.88830202,1259.717561
10.5250,119.6692458,42.69503395,1259.595331
10.5300,119.8348627,42.50633502,1259.474452
10.5350,120.0029324,42.32205632,1259.354415
10.5400,120.171317,42.14137363,1259.235698
10.5450,120.3411923,41.96356755,1259.117651
10.5500,120.5115553,41.78898755,1259.000714
10.5550,120.6821301,41.61662383,1258.884658
10.5600,120.8511735,41.44616612,1258.769995
10.5650,121.0190475,41.27713883,1258.656442
10.5700,121.1859762,41.10989812,1258.544013
10.5750,121.3518443,40.94416006,1258.432688
10.5800,121.5177918,40.77928009,1258.321809
10.5850,121.6841299,40.61686336,1258.211784
10.5900,121.8511769,40.45659626,1258.102383
10.5950,122.0193497,40.2987978,1257.993612
10.6000,122.1887205,40.14383351,1257.885522
10.6050,122.3595968,39.99216331,1257.778192
10.6100,122.5317679,39.84326787,1257.671527
10.6150,122.7069442,39.69797202,1257.565191
10.6200,122.8847644,39.55571902,1257.459142
10.6250,123.0659688,39.4159453,1257.352956
10.6300,123.24984,39.27833636,1257.246788
10.6350,123.4386215,39.14204151,1257.139628
10.6400,123.6317606,39.00556074,1257.031191
10.6450,123.8287374,38.86794302,1256.921347
10.6500,124.0297518,38.7282627,1256.809782
10.6550,124.234686,38.58589638,1256.696314
10.6600,124.4432229,38.44033994,1256.580931
10.6650,124.6557822,38.29103421,1256.463361
10.6700,124.8718119,38.13983532,1256.344349
10.6750,125.0927056,37.98599935,1256.22322
10.6800,125.3190209,37.83054102,1256.100087
10.6850,125.5501557,37.67205982,1255.974729
10.6900,125.7855985,37.51066196,1255.847399
10.6950,126.0270853,37.34660643,1255.717638
10.7000,126.2746555,37.17878847,1255.585097
10.7050,126.5292891,37.0077479,1255.449648
10.7100,126.7908034,36.83200494,1255.310935
10.7150,127.0604643,36.65229397,1255.168806
10.7200,127.3388754,36.46869536,1255.023121
10.7250,127.6259651,36.28028154,1254.873678
10.7300,127.9210109,36.08599505,1254.720421
10.7350,128.2252705,35.88694239,1254.563365
10.7400,128.539033,35.68272322,1254.402323
10.7450,128.8616616,35.47474656,1254.237966
10.7500,129.1932468,35.26375742,1254.070524
10.7550,129.5333104,35.05036367,1253.900399
10.7600,129.8822369,34.83324633,1253.727104
10.7650,130.2393914,34.61396552,1253.551375
10.7700,130.6046512,34.39048896,1253.372709
10.7750,130.9768327,34.16390403,1253.191816
10.7800,131.3547838,33.93413355,1253.009072
10.7850,131.7394629,33.70234792,1252.824535
10.7900,132.1305126,33.46880008,1252.638395
10.7950,132.527561,33.23517494,1252.451262
10.8000,132.9301555,33.00175682,1252.263394
10.8050,133.3384066,32.76792673,1252.074572
10.8100,133.7526945,32.53334642,1251.884625
10.8150,134.1723048,32.29956694,1251.694224
10.8200,134.5979168,32.06655616,1251.503189
10.8250,135.0282763,31.83523722,1251.31219
10.8300,135.4646407,31.60545166,1251.120826
10.8350,135.9065312,31.37793322,1250.929495
10.8400,136.3537147,31.15290342,1250.738354
10.8450,136.8053869,30.93149744,1250.547998
10.8500,137.2619407,30.71239718,1250.357939
10.8550,137.7224865,30.49701913,1250.168843
10.8600,138.1873317,30.28508047,1249.980563
10.8650,138.6559777,30.07664891,1249.793245
10.8700,139.1258855,29.86967483,1249.607016
10.8750,139.5967262,29.66429202,1249.421979
10.8800,140.0672307,29.46101151,1249.238637
10.8850,140.5363876,29.25812594,1249.056796
10.8900,141.0029798,29.05482418,1248.876514
10.8950,141.4655789,28.85078333,1248.698039
10.9000,141.9238623,28.64497227,1248.521193
10.9050,142.3755757,28.43889081,1248.346912
10.9100,142.8223229,28.23223446,1248.17467
10.9150,143.2634469,28.02475537,1248.00456
10.9200,143.6992822,27.81750437,1247.836749
10.9250,144.1302863,27.61142436,1247.671348
10.9300,144.5572588,27.40664294,1247.508158
10.9350,144.9792248,27.20411057,1247.347658
10.9400,145.3975603,27.00416103,1247.189591
10.9450,145.8118327,26.80691886,1247.0341
10.9500,146.2228842,26.61263338,1246.881008
10.9550,146.6310078,26.42071333,1246.730084
10.9600,147.0366421,26.23113934,1246.581189
10.9650,147.438647,26.04381153,1246.434582
10.9700,147.8383122,25.8577469,1246.289674
10.9750,148.2352131,25.67276362,1246.146509
10.9800,148.6297939,25.48891438,1246.004992
10.9850,149.0234963,25.30714332,1245.865015
10.9900,149.4162595,25.12596094,1245.726155
10.9950,149.8080564,24.94666897,1245.588781
11.0000,150.1990504,24.76967416,1245.452958
11.0050,150.5886708,24.59403409,1245.318601
11.0100,150.9780896,24.4198269,1245.185422
11.0150,151.3670762,24.24708035,1245.053524
11.0200,151.7562528,24.07494671,1244.922555
11.0250,152.1451455,23.90422587,1244.792834
11.0300,152.5348764,23.735115,1244.664176
11.0350,152.925442,23.56626185,1244.536206
11.0400,153.3164839,23.39727668,1244.408953
11.0450,153.7082677,23.22728841,1244.282158
11.0500,154.1005505,23.05512063,1244.155599
11.0550,154.4934624,22.88088796,1244.02928
11.0600,154.8868951,22.7041833,1243.903147
11.0650,155.2810686,22.52505114,1243.77714
11.0700,155.6774871,22.34385653,1243.65103
11.0750,156.0774333,22.16083207,1243.524606
11.0800,156.4809687,21.97547164,1243.397778
11.0850,156.8874142,21.78541789,1243.270138
11.0900,157.2967082,21.59192596,1243.142074
11.0950,157.7087042,21.39334821,1243.01324
11.1000,158.1220895,21.18997754,1242.884033
11.1050,158.538791,20.98379667,1242.754556
11.1100,158.9573566,20.7744601,1242.625048
11.1150,159.377971,20.56233002,1242.495565
11.1200,159.7993664,20.34797995,1242.36654
11.1250,160.2223106,20.13065946,1242.237615
11.1300,160.6466582,19.91148412,1242.109094
11.1350,161.0728684,19.69128761,1241.981035
11.1400,161.5023149,19.46955805,1241.853013
11.1450,161.9344394,19.24633563,1241.725106
11.1500,162.3697873,19.02283642,1241.597504
11.1550,162.8078388,18.79853295,1241.470187
11.1600,163.2490038,18.57346551,1241.34306
11.1650,163.693302,18.34845793,1241.216333
11.1700,164.1410727,18.12488887,1241.090275
11.1750,164.5926269,17.90353985,1240.965017
11.1800,165.0483278,17.68354503,1240.840295
11.1850,165.5072779,17.46601651,1240.716546
11.1900,165.9702545,17.25013636,1240.593439
11.1950,166.4364402,17.03678102,1240.471344
11.2000,166.9057471,16.82583253,1240.350247
11.2050,167.3785341,16.61558657,1240.229677
11.2100,167.8544056,16.40566759,1240.109588
11.2150,168.3322668,16.19514179,1239.989984
11.2200,168.8121642,15.98335876,1239.870691
11.2250,169.292342,15.76957551,1239.751873
11.2300,169.7717904,15.5529816,1239.633521
11.2350,170.2496639,15.33231963,1239.515482
11.2400,170.7249212,15.108227,1239.398097
11.2450,171.1971136,14.87955303,1239.281175
11.2500,171.6659905,14.64663193,1239.164819
11.2550,172.1303237,14.40975923,1239.049338
11.2600,172.5893163,14.16734966,1238.934509
11.2650,173.042974,13.9204484,1238.820547
11.2700,173.4902555,13.6687841,1238.707546
11.2750,173.9319822,13.41318602,1238.595536
11.2800,174.3677429,13.15300586,1238.484418
11.2850,174.7959156,12.88800965,1238.374384
11.2900,175.2175164,12.619398,1238.26552
11.2950,175.6330083,12.34639813,1238.157526
11.3000,176.0427769,12.0680816,1238.050135
11.3050,176.4471819,11.7850983,1237.94337
11.3100,176.8454562,11.49698554,1237.837258
11.3150,177.237333,11.20367833,1237.731799
11.3200,177.622496,10.90655603,1237.627328
11.3250,178.0003942,10.60470565,1237.523721
11.3300,178.3712985,10.29865212,1237.421001
11.3350,178.7346563,9.98905286,1237.319417
11.3400,179.0921208,9.676323826,1237.218764
11.3450,179.4438438,9.359872415,1237.118906
11.3500,179.7911329,9.041776654,1237.020053
11.3550,180.1343593,8.72145213,1236.922011
11.3600,180.4733413,8.399991443,1236.825033
11.3650,180.8091564,8.077055623,1236.728893
11.3700,181.1404676,7.753840939,1236.634018
11.3750,181.466441,7.429790763,1236.540384
11.3800,181.7872807,7.105275785,1236.448029
11.3850,182.1028789,6.781702651,1236.35725
11.3900,182.4125452,6.458741529,1236.268044
11.3950,182.7162732,6.137670624,1236.180654
11.4000,183.0142541,5.819271685,1236.095202
11.4050,183.3059307,5.503613725,1236.011768
11.4100,183.5920009,5.192933334,1235.930687
11.4150,183.8728179,4.885992379,1235.851613
11.4200,184.1490951,4.583373564,1235.774515
11.4250,184.4218969,4.28681302,1235.699562
11.4300,184.6895235,3.994622867,1235.62663
11.4350,184.9522891,3.707310706,1235.555774
11.4400,185.2077808,3.425067413,1235.487312
11.4450,185.4570337,3.147485624,1235.421025
11.4500,185.6993383,2.873940755,1235.356825
11.4550,185.9342317,2.603945909,1235.294654
11.4600,186.1616221,2.337479146,1235.234512
11.4650,186.3814905,2.074940357,1235.176446
11.4700,186.594227,1.815470509,1235.120238
11.4750,186.8006397,1.559525255,1235.065863
11.4800,187.0011495,1.308155073,1235.013443
11.4850,187.1952865,1.061708563,1234.963054
11.4900,187.3840655,0.8218687051,1234.914892
11.4950,187.567818,0.5876069268,1234.868696
11.5000,187.7469014,0.3604897495,1234.82466
11.5050,187.9216786,0.1400536078,1234.78264
11.5100,188.0903749,-0.07404469138,1234.742797
11.5150,188.2545047,-0.2811891178,1234.705017
11.5200,188.4123423,-0.4831564455,1234.669183
11.5250,188.5653979,-0.680380468,1234.634983
11.5300,188.7133097,-0.8735462789,1234.602311
11.5350,188.8556443,-1.062039329,1234.571347
11.5400,188.9915276,-1.247287298,1234.541903
11.5450,189.1218845,-1.429054421,1234.51386
11.5500,189.2456905,-1.60651244,1234.487508
11.5550,189.3643736,-1.780912233,1234.462397
11.5600,189.477594,-1.950399324,1234.438889
11.5650,189.5865116,-2.116324225,1234.416598
11.5700,189.6912937,-2.278732628,1234.395513
11.5750,189.7920916,-2.438500594,1234.375447
11.5800,189.8891975,-2.594879127,1234.356511
11.5850,189.9827286,-2.748556917,1234.33857
11.5900,190.0726291,-2.899644073,1234.321607
11.5950,190.1582096,-3.048809578,1234.3056
11.6000,190.2396251,-3.195327485,1234.290647
11.6050,190.317174,-3.340544211,1234.27649
11.6100,190.3911808,-3.483687699,1234.263218
11.6150,190.4610892,-3.625585263,1234.250756
11.6200,190.5264958,-3.76761732,1234.2389
11.6250,190.5875624,-3.90816904,1234.227929
11.6300,190.6438564,-4.048638189,1234.217662
11.6350,190.6956622,-4.186861894,1234.208407
11.6400,190.7419359,-4.323526562,1234.200184
11.6450,190.7842677,-4.456851982,1234.193095
11.6500,190.8217329,-4.587410152,1234.187179
11.6550,190.8552243,-4.713445498,1234.182651
11.6600,190.8847693,-4.833823963,1234.179726
11.6650,190.9098175,-4.948755657,1234.178404
11.6700,190.931464,-5.057169387,1234.178766
11.6750,190.949939,-5.159097472,1234.180778
11.6800,190.9651668,-5.254359245,1234.184471
11.6850,190.9767524,-5.342074504,1234.190032
11.6900,190.9858959,-5.422447119,1234.197267
11.6950,190.9921637,-5.495556758,1234.206212
11.7000,190.9969508,-5.562388556,1234.216525
11.7050,190.9984613,-5.623416107,1234.228319
11.7100,190.9975421,-5.67893319,1234.241454
11.7150,190.9932264,-5.727612194,1234.256292
11.7200,190.9867234,-5.769825258,1234.272636
11.7250,190.9768149,-5.806395653,1234.290523
11.7300,190.9653868,-5.83563956,1234.31002
11.7350,190.9509111,-5.857799249,1234.331272
11.7400,190.9360752,-5.873002755,1234.353979
11.7450,190.9202015,-5.880130452,1234.378381
11.7500,190.903801,-5.878798242,1234.40452
11.7550,190.8868837,-5.868482252,1234.432452
11.7600,190.8692029,-5.850999442,1234.461902
11.7650,190.8513724,-5.826442748,1234.492772
11.7700,190.8327309,-5.794165,1234.525244
11.7750,190.8120801,-5.754914314,1234.559318
11.7800,190.7899622,-5.708363355,1234.594978
11.7850,190.7664237,-5.655358097,1234.632077
11.7900,190.7414454,-5.59554211,1234.670669
11.7950,190.7153253,-5.527739447,1234.710924
11.8000,190.6880709,-5.454015163,1234.752498
11.8050,190.6612542,-5.373578881,1234.795315
11.8100,190.6349393,-5.286593316,1234.839339
11.8150,190.6082182,-5.194077432,1234.884489
11.8200,190.5819014,-5.095471742,1234.930763
11.8250,190.5552592,-4.992593766,1234.97793
11.8300,190.5286223,-4.886570599,1235.025782
11.8350,190.5017709,-4.778654905,1235.074074
11.8400,190.4761088,-4.66989468,1235.12245
11.8450,190.4504932,-4.562176794,1235.170702
11.8500,190.424879,-4.459105334,1235.218184
11.8550,190.3980371,-4.361152882,1235.264936
11.8600,190.3687158,-4.270142904,1235.310781
11.8650,190.3357471,-4.188026941,1235.355478
11.8700,190.2999221,-4.116790979,1235.39854
11.8750,190.2586776,-4.057068927,1235.44014
11.8800,190.2124317,-4.010013031,1235.47999
11.8850,190.1611485,-3.976843261,1235.517875
11.8900,190.103037,-3.958429843,1235.553823
11.8950,190.0377076,-3.956259457,1235.587643
11.9000,189.964542,-3.969754797,1235.619492
11.9050,189.881063,-3.999778681,1235.649523
11.9100,189.7873816,-4.046616751,1235.677703
11.9150,189.6828828,-4.108844084,1235.70436
11.9200,189.5670358,-4.187063224,1235.729502
11.9250,189.4401773,-4.280649408,1235.7532
11.9300,189.3008428,-4.387949581,1235.775982
11.9350,189.1486882,-4.509019554,1235.797925
11.9400,188.9849673,-4.641935955,1235.81925
11.9450,188.8078541,-4.786225863,1235.840287
11.9500,188.6178197,-4.940926882,1235.861191
11.9550,188.415751,-5.105620049,1235.881955
11.9600,188.2032042,-5.280168897,1235.902408
11.9650,187.9811561,-5.463232979,1235.922729
11.9700,187.7484913,-5.655667526,1235.942937
11.9750,187.5066092,-5.855143748,1235.963295
11.9800,187.2570532,-6.059861089,1235.983975
11.9850,187.0000629,-6.268704171,1236.005167
11.9900,186.7356355,-6.481097958,1236.02704
11.9950,186.463913,-6.696116916,1236.049762
12.0000,186.1847363,-6.911263555,1236.073799
12.0050,185.8991563,-7.12457097,1236.09938
12.0100,185.6078735,-7.334112696,1236.126732
12.0150,185.3136437,-7.538828417,1236.155669
12.0200,185.0166944,-7.737561288,1236.186345
12.0250,184.7191402,-7.929073858,1236.218675
12.0300,184.4227784,-8.113250494,1236.2524
12.0350,184.1302487,-8.289964954,1236.287155
12.0400,183.8424522,-8.458370178,1236.322919
12.0450,183.5599013,-8.620345857,1236.359295
12.0500,183.2836245,-8.775171339,1236.396222
12.0550,183.0156511,-8.924087661,1236.433197
12.0600,182.7565894,-9.065153733,1236.470407
12.0650,182.5077644,-9.200203296,1236.507328
12.0700,182.2713735,-9.328648074,1236.543711
12.0750,182.0494557,-9.450897591,1236.579158
12.0800,181.8443834,-9.566893612,1236.613295
12.0850,181.6590868,-9.675577494,1236.64583
12.0900,181.4946981,-9.778179685,1236.676346
12.0950,181.3532663,-9.874300736,1236.704568
12.1000,181.2358907,-9.963827342,1236.730308
12.1050,181.140016,-10.04705862,1236.75385
12.1100,181.0646141,-10.12409198,1236.775302
12.1150,181.0089038,-10.1959383,1236.79459
12.1200,180.9702008,-10.26286882,1236.812046
12.1250,180.9472642,-10.32588501,1236.827673
12.1300,180.9368182,-10.3848338,1236.841947
12.1350,180.9358416,-10.4410809,1236.855107
12.1400,180.9404661,-10.49614659,1236.867466
12.1450,180.9481105,-10.55111252,1236.879234
12.1500,180.9568968,-10.60664443,1236.890577
12.1550,180.9642902,-10.66420017,1236.901632
12.1600,180.9695062,-10.72725261,1236.911946
12.1650,180.9705707,-10.79713464,1236.921604
12.1700,180.9632668,-10.87472481,1236.931092
12.1750,180.9472511,-10.96340873,1236.939923
12.1800,180.9192412,-11.06599522,1236.948138
12.1850,180.8789276,-11.1833647,1236.955652
12.1900,180.8256359,-11.31774229,1236.962245
12.1950,180.758034,-11.46916433,1236.96811
12.2000,180.6755342,-11.63925643,1236.973122
12.2050,180.5789983,-11.82809434,1236.977177
12.2100,180.467393,-12.03604075,1236.980412
12.2150,180.3412905,-12.26332033,1236.982771
12.2200,180.2024425,-12.50768574,1236.984393
12.2250,180.0512176,-12.76866534,1236.985348
12.2300,179.8894593,-13.04437562,1236.985695
12.2350,179.7174443,-13.33494708,1236.985428
12.2400,179.5351035,-13.63801248,1236.984955
12.2450,179.3429819,-13.95302305,1236.984359
12.2500,179.1416014,-14.27905228,1236.983731
12.2550,178.9301794,-14.61387717,1236.983576
12.2600,178.7083799,-14.95683258,1236.984096
12.2650,178.4767174,-15.30517079,1236.985654
12.2700,178.236148,-15.65622986,1236.988526
12.2750,177.9867353,-16.01087124,1236.992625
12.2800,177.7281959,-16.36723461,1236.998267
12.2850,177.4621157,-16.72351977,1237.005501
12.2900,177.1893667,-17.07870485,1237.01434
12.2950,176.9104994,-17.43201087,1237.024845
12.3000,176.6267971,-17.78223586,1237.036979
12.3050,176.3400809,-18.12841613,1237.050606
12.3100,176.0522725,-18.47166693,1237.065271
12.3150,175.7627748,-18.81094628,1237.081207
12.3200,175.4731572,-19.14608563,1237.098187
12.3250,175.1840502,-19.47611855,1237.116213
12.3300,174.8956269,-19.80031911,1237.135353
12.3350,174.6078617,-20.11870853,1237.155597
12.3400,174.3215627,-20.4308984,1237.176836
12.3450,174.03823,-20.73500958,1237.199052
12.3500,173.7579803,-21.03212579,1237.222063
12.3550,173.4827727,-21.3207132,1237.245695
12.3600,173.2143808,-21.59944326,1237.269797
12.3650,172.9544546,-21.86712881,1237.294188
12.3700,172.7041277,-22.12275273,1237.318748
12.3750,172.4638336,-22.36659017,1237.343324
12.3800,172.2340096,-22.59841536,1237.367813
12.3850,172.0144387,-22.82016801,1237.391968
12.3900,171.8055613,-23.0323004,1237.415606
12.3950,171.6068441,-23.23687628,1237.438535
12.4000,171.4187828,-23.43385987,1237.460617
12.4050,171.2427259,-23.62512843,1237.481377
12.4100,171.0809196,-23.8114626,1237.500293
12.4150,170.9330782,-23.99448546,1237.517191
12.4200,170.8007511,-24.17606973,1237.531551
12.4250,170.6832062,-24.35689859,1237.54341
12.4300,170.5817986,-24.53739123,1237.552461
12.4350,170.4969851,-24.71843264,1237.558501
12.4400,170.4303081,-24.90127414,1237.561114
12.4450,170.3825556,-25.08466486,1237.560291
12.4500,170.3537321,-25.26834289,1237.556041
12.4550,170.3463156,-25.45355288,1237.547793
12.4600,170.3600464,-25.63884626,1237.535758
12.4650,170.3949692,-25.82551872,1237.519783
12.4700,170.4529174,-26.01405789,1237.499487
12.4750,170.5336125,-26.20302444,1237.475111
12.4800,170.6367327,-26.39341488,1237.446623
12.4850,170.7613957,-26.58458812,1237.414264
12.4900,170.9087062,-26.77650954,1237.377874
12.4950,171.0778563,-26.96930593,1237.337615
12.5000,171.2681113,-27.16295639,1237.293648
12.5050,171.4777965,-27.3565099,1237.246406
12.5100,171.7059805,-27.54994191,1237.19609
12.5150,171.9524469,-27.7420687,1237.142905
12.5200,172.2140599,-27.93316263,1237.087381
12.5250,172.4903236,-28.12305708,1237.029676
12.5300,172.7789863,-28.31186367,1236.970193
12.5350,173.0792895,-28.49797705,1236.909257
12.5400,173.3881014,-28.68209314,1236.847345
12.5450,173.7048142,-28.86305942,1236.784706
12.5500,174.0262406,-29.04055262,1236.721919
12.5550,174.3501143,-29.21465573,1236.65935
12.5600,174.6738144,-29.38554525,1236.59743
12.5650,174.9940039,-29.55394703,1236.536614
12.5700,175.308146,-29.7195864,1236.477335
12.5750,175.613706,-29.88124404,1236.420097
12.5800,175.9088739,-30.03808279,1236.365268
12.5850,176.1915764,-30.19095354,1236.313041
12.5900,176.4610413,-30.33911246,1236.2636
12.5950,176.7167754,-30.48142992,1236.217064
12.6000,176.9578945,-30.61738862,1236.173608
12.6050,177.1828046,-30.74868588,1236.133258
12.6100,177.389579,-30.87413627,1236.096403
12.6150,177.578633,-30.99393465,1236.062906
12.6200,177.7488177,-31.10799343,1236.032919
12.6250,177.8996619,-31.21722742,1236.006388
12.6300,178.0310316,-31.32064374,1235.983389
12.6350,178.1438808,-31.4190978,1235.963665
12.6400,178.2363651,-31.51287174,1235.947436
12.6450,178.3085842,-31.60303499,1235.934562
12.6500,178.3607086,-31.68812271,1235.925116
12.6550,178.3910372,-31.76939461,1235.919234
12.6600,178.4001981,-31.84777571,1235.916706
12.6650,178.386961,-31.92437587,1235.917602
12.6700,178.3516585,-32.00048767,1235.921752
12.6750,178.2947317,-32.07635139,1235.929055
12.6800,178.2152423,-32.15327523,1235.93955
12.6850,178.1147229,-32.2296834,1235.953161
12.6900,177.9934417,-32.30597502,1235.969833
12.6950,177.8521925,-32.38251752,1235.989417
12.7000,177.6910533,-32.45904342,1236.011969
12.7050,177.5111716,-32.53610404,1236.037282
12.7100,177.3140837,-32.614604,1236.065073
12.7150,177.1018102,-32.69242257,1236.095262
12.7200,176.8764295,-32.76934603,1236.127583
12.7250,176.6405811,-32.84411921,1236.161773
12.7300,176.3955065,-32.917206,1236.197609
12.7350,176.1451953,-32.98782902,1236.234574
12.7400,175.8929276,-33.05437908,1236.272288
12.7450,175.6412578,-33.11886299,1236.310191
12.7500,175.393372,-33.18038743,1236.347854
12.7550,175.1513102,-33.23877047,1236.384947
12.7600,174.9177893,-33.29435669,1236.420983
12.7650,174.6959917,-33.34605226,1236.455532
12.7700,174.4877973,-33.39450414,1236.488204
12.7750,174.2952197,-33.4414706,1236.51847
12.7800,174.1212095,-33.48571977,1236.545916
12.7850,173.9674755,-33.52922787,1236.570052
12.7900,173.8343383,-33.57224254,1236.590759
12.7950,173.723058,-33.61542055,1236.607734
12.8000,173.633764,-33.65966496,1236.620849
12.8050,173.56712,-33.70628856,1236.629854
12.8100,173.5237422,-33.75559082,1236.634597
12.8150,173.5026337,-33.81001492,1236.635022
12.8200,173.5028709,-33.86941227,1236.631283
12.8250,173.5223077,-33.93469039,1236.623656
12.8300,173.5598434,-34.00596435,1236.612327
12.8350,173.6134361,-34.08435143,1236.597547
12.8400,173.6809173,-34.16990864,1236.579692
12.8450,173.7603051,-34.26346164,1236.559033
12.8500,173.8498293,-34.36426438,1236.535948
12.8550,173.9472042,-34.47335346,1236.510756
12.8600,174.0506628,-34.58915658,1236.483898
12.8650,174.1591506,-34.71189376,1236.45556
12.8700,174.2712936,-34.84118892,1236.426009
12.8750,174.3860121,-34.97558502,1236.395572
12.8800,174.5020583,-35.11558695,1236.364412
12.8850,174.6200016,-35.26095114,1236.332486
12.8900,174.7385452,-35.41059382,1236.300079
12.8950,174.8572257,-35.56334789,1236.267395
12.9000,174.9761021,-35.72098239,1236.234265
12.9050,175.0966238,-35.88123846,1236.20066
12.9100,175.2181499,-36.04359239,1236.166715
12.9150,175.3411313,-36.20791979,1236.13237
12.9200,175.4662309,-36.37323293,1236.097598
12.9250,175.5926447,-36.53970098,1236.062507
12.9300,175.7212532,-36.70784154,1236.026919
12.9350,175.8511606,-36.87647085,1235.991058
12.9400,175.9830849,-37.04628825,1235.954762
12.9450,176.1170388,-37.21608619,1235.918115
12.9500,176.2527176,-37.38678706,1235.881096
12.9550,176.3899666,-37.55829716,1235.84373
12.9600,176.5288696,-37.7300228,1235.806045
12.9650,176.6681145,-37.90055924,1235.76836
12.9700,176.807349,-38.07045576,1235.73068
12.9750,176.9464532,-38.23921225,1235.693064
12.9800,177.0843578,-38.40599199,1235.655728
12.9850,177.220697,-38.57241184,1235.618612
12.9900,177.3556698,-38.73709963,1235.581779
12.9950,177.4887228,-38.89969271,1235.545349
13.0000,177.6203837,-39.06033002,1235.509215
13.0050,177.7502905,-39.21870823,1235.473448
13.0100,177.8779106,-39.37406262,1235.438175
13.0150,178.003067,-39.52803767,1235.403298
13.0200,178.1263856,-39.67981891,1235.368768
13.0250,178.2482038,-39.82953383,1235.334513
13.0300,178.3703656,-39.97819031,1235.300178
13.0350,178.4930506,-40.12494629,1235.26578
13.0400,178.6150024,-40.27002604,1235.231489
13.0450,178.7382098,-40.41287278,1235.197024
13.0500,178.8620607,-40.55460894,1235.162396
13.0550,178.9868704,-40.69476248,1235.12758
13.0600,179.1136593,-40.83370562,1235.092403
13.0650,179.2418534,-40.97099866,1235.056966
13.0700,179.3718102,-41.10700608,1235.021193
13.0750,179.503466,-41.240647,1234.985155
13.0800,179.6369628,-41.37225755,1234.948818
13.0850,179.769425,-41.50198046,1234.91257
13.0900,179.9011639,-41.62908212,1234.876421
13.0950,180.0320863,-41.7539418,1234.840353
13.1000,180.1612421,-41.87649148,1234.804494
13.1050,180.2885651,-41.99614234,1234.768879
13.1100,180.413579,-42.11240146,1234.7336
13.1150,180.5353631,-42.22535061,1234.698774
13.1200,180.6553209,-42.33538153,1234.664172
13.1250,180.7729796,-42.44213112,1234.629872
13.1300,180.8888327,-42.54620294,1234.595748
13.1350,181.0031426,-42.64775841,1234.561757
13.1400,181.1163044,-42.74741999,1234.527787
13.1450,181.2272722,-42.84503613,1234.493991
13.1500,181.3368495,-42.94170679,1234.460171
13.1550,181.444994,-43.03712558,1234.426357
13.1600,181.5515117,-43.13143195,1234.392548
13.1650,181.6564145,-43.22473083,1234.358733
13.1700,181.7596687,-43.3175745,1234.324881
13.1750,181.8626625,-43.41080923,1234.290738
13.1800,181.9647981,-43.50398631,1234.256413
13.1850,182.0653541,-43.59663509,1234.222037
13.1900,182.1642642,-43.68866759,1234.187645
13.1950,182.2625579,-43.78039084,1234.153066
13.2000,182.3594651,-43.87028019,1234.118515
13.2050,182.454894,-43.95871363,1234.083978
13.2100,182.5489492,-44.04508631,1234.049494
13.2150,182.6422086,-44.12927935,1234.014992
13.2200,182.7337805,-44.21131226,1233.980597
13.2250,182.8257792,-44.29044061,1233.946071
13.2300,182.9161725,-44.36744014,1233.911661
13.2350,183.0063691,-44.44223589,1233.877186
13.2400,183.0964044,-44.51446224,1233.84267
13.2450,183.1872418,-44.5841996,1233.807985
13.2500,183.279106,-44.65261618,1233.773044
13.2550,183.3730317,-44.7183713,1233.737798
13.2600,183.4689032,-44.78374705,1233.702139
13.2650,183.567311,-44.84896702,1233.665986
13.2700,183.6686548,-44.91374817,1233.629313
13.2750,183.7724879,-44.97791606,1233.592202
13.2800,183.8801837,-45.04203303,1233.554444
13.2850,183.9914378,-45.10579731,1233.516095
13.2900,184.1060922,-45.16983722,1233.477166
13.2950,184.2246622,-45.23414623,1233.437586
13.3000,184.3467951,-45.29823908,1233.397436
13.3050,184.4724286,-45.3615436,1233.356775
13.3100,184.6019457,-45.42335353,1233.315598
13.3150,184.7354022,-45.48397328,1233.273874
13.3200,184.8730405,-45.54261105,1233.231618
13.3250,185.0145684,-45.59903663,1233.188886
13.3300,185.1600115,-45.65246283,1233.145717
13.3350,185.30817,-45.70378147,1233.102214
13.3400,185.4593507,-45.7522428,1233.058381
13.3450,185.6124263,-45.79829586,1233.014344
13.3500,185.7675807,-45.84180873,1232.970066
13.3550,185.9233737,-45.88239513,1232.925749
13.3600,186.0788557,-45.91966704,1232.881525
13.3650,186.2342012,-45.95364102,1232.837365
13.3700,186.3872971,-45.98362443,1232.793552
13.3750,186.5382108,-46.00966231,1232.750073
13.3800,186.6857352,-46.03194465,1232.707055
13.3850,186.8307474,-46.0508726,1232.66437
13.3900,186.972442,-46.06602899,1232.622115
13.3950,187.108982,-46.07708394,1232.580549
13.4000,187.2410233,-46.08386014,1232.539598
13.4050,187.3694249,-46.08610282,1232.49916
13.4100,187.4932745,-46.08374387,1232.45937
13.4150,187.6136516,-46.07543709,1232.420136
13.4200,187.7290681,-46.06164089,1232.38163
13.4250,187.8413512,-46.04138295,1232.343673
13.4300,187.9497866,-46.01502409,1232.306332
13.4350,188.0550768,-45.98224003,1232.26953
13.4400,188.1574522,-45.94276765,1232.23327
13.4450,188.2577899,-45.89678057,1232.197426
13.4500,188.3564286,-45.84354166,1232.162018
13.4550,188.4536883,-45.78279814,1232.126994
13.4600,188.5510211,-45.71514433,1232.092163
13.4650,188.6486789,-45.64029299,1232.057527
13.4700,188.7483115,-45.55675821,1232.022951
13.4750,188.8500545,-45.46468636,1231.988447
13.4800,188.9539576,-45.36419138,1231.95402
13.4850,189.0598919,-45.25387766,1231.919784
13.4900,189.1686752,-45.13370116,1231.885634
13.4950,189.2794726,-45.00379834,1231.851698
13.5000,189.3929267,-44.86415601,1231.817913
13.5050,189.5088937,-44.71341311,1231.784398
13.5100,189.6273398,-44.55230294,1231.75113
13.5150,189.7469941,-44.38083104,1231.718293
13.5200,189.8682847,-44.19945108,1231.685834
13.5250,189.9897666,-44.00797292,1231.653967
13.5300,190.1125585,-43.80750494,1231.622513
13.5350,190.2352884,-43.59766186,1231.591687
13.5400,190.3580394,-43.37947031,1231.561439
13.5450,190.4794949,-43.15378846,1231.531894
13.5500,190.6007104,-42.9207816,1231.502943
13.5550,190.7199317,-42.68209198,1231.474729
13.5600,190.837216,-42.43771403,1231.447261
13.5650,190.9532719,-42.18858589,1231.420405
13.5700,191.0663596,-41.9355188,1231.394353
13.5750,191.177735,-41.68035066,1231.368842
13.5800,191.2862363,-41.42421349,1231.343947
13.5850,191.3911031,-41.16709054,1231.319785
13.5900,191.49278,-40.91064557,1231.296176
13.5950,191.5921272,-40.65485712,1231.273044
13.6000,191.6882147,-40.40081403,1231.250416
13.6050,191.782186,-40.14916061,1231.228103
13.6100,191.8725842,-39.89974991,1231.206296
13.6150,191.9600431,-39.65253515,1231.184928
13.6200,192.043943,-39.40900459,1231.163971
13.6250,192.1246507,-39.16789715,1231.14346
13.6300,192.2013672,-38.92956445,1231.123471
13.6350,192.2740823,-38.69369247,1231.104014
13.6400,192.3423304,-38.46045947,1231.08512
13.6450,192.4063592,-38.22791475,1231.066894
13.6500,192.4644781,-37.99584767,1231.049543
13.6550,192.5177029,-37.76416797,1231.032966
13.6600,192.5652882,-37.53297942,1231.01722
13.6650,192.6065097,-37.30237172,1231.002379
13.6700,192.6416636,-37.07178036,1230.988458
13.6750,192.6705471,-36.84119227,1230.975485
13.6800,192.6931319,-36.61060788,1230.96348
13.6850,192.7083002,-36.37813449,1230.952719
13.6900,192.7152151,-36.14494406,1230.943218
13.6950,192.7141502,-35.91054872,1230.934984
13.7000,192.7056792,-35.67551632,1230.927896
13.7050,192.688257,-35.43979724,1230.922143
13.7100,192.6617569,-35.20225693,1230.91782
13.7150,192.6270462,-34.96471058,1230.914705
13.7200,192.5843238,-34.7251522,1230.91294
13.7250,192.5328977,-34.48532056,1230.91244
13.7300,192.4726845,-34.24347681,1230.913394
13.7350,192.4030213,-34.00102373,1230.915765
13.7400,192.3244682,-33.75724162,1230.919533
13.7450,192.237506,-33.51244811,1230.924618
13.7500,192.1424093,-33.26657486,1230.931018
13.7550,192.0400841,-33.01985285,1230.938605
13.7600,191.9307227,-32.77216741,1230.947371
13.7650,191.8148013,-32.52276351,1230.957319
13.7700,191.6924286,-32.2718908,1230.96843
13.7750,191.5622345,-32.01991356,1230.980817
13.7800,191.4252771,-31.76580924,1230.994465
13.7850,191.282214,-31.51047364,1231.009216
13.7900,191.1316478,-31.25359562,1231.025275
13.7950,190.9751588,-30.99483759,1231.042483
13.8000,190.8117735,-30.73419233,1231.060961
