type,name,time_units,begin_time,frequency,count,units
signal_3d,"Noraxon MyoMotion-Trajectories-Lateral humeral epicondyle RT","s",0.0000,200,5088,"mm"

time,x,y,z
0.0000,224.8921516,11.41517355,1242.291023
0.0050,224.8735451,11.39435012,1242.290164
0.0100,224.8549354,11.37352957,1242.289309
0.0150,224.8363225,11.3527119,1242.288457
0.0200,224.8148514,11.3295604,1242.287204
0.0250,224.7905047,11.30402854,1242.285472
0.0300,224.7633752,11.27606529,1242.283176
0.0350,224.7336777,11.24561372,1242.280223
0.0400,224.7017527,11.21261362,1242.276511
0.0450,224.6680653,11.17700853,1242.271939
0.0500,224.6331997,11.13875508,1242.266406
0.0550,224.5978391,11.0978301,1242.25982
0.0600,224.5627332,11.05423417,1242.252097
0.0650,224.5286655,11.00799547,1242.24317
0.0700,224.4964284,10.95917338,1242.232988
0.0750,224.4667987,10.9078604,1242.221522
0.0800,224.4405097,10.85418354,1242.208763
0.0850,224.4182236,10.79830759,1242.194729
0.0900,224.4005116,10.7404415,1242.179464
0.0950,224.3878402,10.6808439,1242.163042
0.1000,224.380556,10.61982226,1242.145564
0.1050,224.3788729,10.55772908,1242.12716
0.1100,224.3828623,10.49495925,1242.107987
0.1150,224.3924495,10.43194502,1242.088225
0.1200,224.4074163,10.36914601,1242.068071
0.1250,224.4274097,10.3070398,1242.047742
0.1300,224.4519565,10.24611729,1242.027459
0.1350,224.4804878,10.18687821,1242.007454
0.1400,224.5123629,10.1298196,1241.987957
0.1450,224.5468917,10.07541573,1241.969188
0.1500,224.583354,10.0240927,1241.951353
0.1550,224.6289242,9.922309022,1241.920872
0.1600,224.6743447,9.823852635,1241.891462
0.1650,224.7191938,9.729693267,1241.863425
0.1700,224.7638285,9.639404526,1241.836588
0.1750,224.8063934,9.552230385,1241.811043
0.1800,224.8469368,9.469089909,1241.786905
0.1850,224.8858751,9.388934162,1241.763936
0.1900,224.9224361,9.312062522,1241.742219
0.1950,224.9556171,9.238447813,1241.721788
0.2000,224.9870942,9.167295867,1241.702357
0.2050,225.0172561,9.099319081,1241.68393
0.2100,225.0457851,9.03335716,1241.666356
0.2150,225.0710881,8.970278229,1241.649863
0.2200,225.0951492,8.909757074,1241.634185
0.2250,225.1170206,8.851145735,1241.619159
0.2300,225.1377286,8.795266196,1241.604929
0.2350,225.1560965,8.740896835,1241.591247
0.2400,225.1734082,8.68827397,1241.578117
0.2450,225.1895397,8.637270539,1241.565382
0.2500,225.2054044,8.588088402,1241.553122
0.2550,225.2210351,8.539991398,1241.541126
0.2600,225.2368518,8.493842249,1241.529474
0.2650,225.2527682,8.448428265,1241.518033
0.2700,225.2684313,8.403963675,1241.506705
0.2750,225.2840326,8.35932893,1241.495265
0.2800,225.2986416,8.315173597,1241.483901
0.2850,225.3130396,8.271219397,1241.47254
0.2900,225.3275803,8.227710017,1241.461026
0.2950,225.3430741,8.184817018,1241.44935
0.3000,225.3591737,8.142441245,1241.437427
0.3050,225.3757097,8.100268834,1241.425262
0.3100,225.3927787,8.057254295,1241.412586
0.3150,225.4107208,8.014212074,1241.399462
0.3200,225.4303386,7.971373271,1241.385925
0.3250,225.4511864,7.928042463,1241.371787
0.3300,225.4727553,7.884950081,1241.35728
0.3350,225.49579,7.841124496,1241.342112
0.3400,225.5198422,7.797804002,1241.326631
0.3450,225.546551,7.754580125,1241.310581
0.3500,225.5739463,7.711205749,1241.294124
0.3550,225.6030072,7.667817928,1241.277312
0.3600,225.6337237,7.625148442,1241.260166
0.3650,225.6665331,7.583305238,1241.242712
0.3700,225.7009038,7.542355014,1241.225083
0.3750,225.7371329,7.502467247,1241.207239
0.3800,225.7749202,7.463832439,1241.189245
0.3850,225.8142415,7.426334245,1241.171153
0.3900,225.8548487,7.390619527,1241.152977
0.3950,225.8963453,7.356278666,1241.134784
0.4000,225.9373592,7.322990556,1241.116558
0.4050,225.9776228,7.291823995,1241.098512
0.4100,226.0169433,7.261721645,1241.080489
0.4150,226.0559255,7.232376508,1241.062255
0.4200,226.094435,7.205304894,1241.044169
0.4250,226.1315172,7.179313541,1241.026019
0.4300,226.1661316,7.155382862,1241.008244
0.4350,226.1988809,7.132194084,1240.99048
0.4400,226.2291303,7.109804745,1240.972781
0.4450,226.2565906,7.08987342,1240.955485
0.4500,226.2805715,7.070863922,1240.938412
0.4550,226.3016497,7.052416503,1240.921502
0.4600,226.3188431,7.035969703,1240.905141
0.4650,226.3332385,7.020593181,1240.889132
0.4700,226.3438216,7.007272442,1240.873746
0.4750,226.3519676,6.994963002,1240.858591
0.4800,226.3567296,6.984594099,1240.844042
0.4850,226.3580947,6.976152595,1240.830063
0.4900,226.356466,6.969180515,1240.816547
0.4950,226.3518106,6.963193534,1240.803342
0.5000,226.3442635,6.958559662,1240.790481
0.5050,226.3318825,6.954792976,1240.778054
0.5100,226.3161661,6.951296808,1240.7657
0.5150,226.2973242,6.947300529,1240.753277
0.5200,226.2739071,6.942712708,1240.740923
0.5250,226.2473956,6.938409932,1240.728632
0.5300,226.2180447,6.932547853,1240.715995
0.5350,226.1853326,6.926130515,1240.703175
0.5400,226.1494645,6.91789755,1240.689871
0.5450,226.1112515,6.909099244,1240.67623
0.5500,226.0703144,6.898670635,1240.662094
0.5550,226.0268441,6.886025755,1240.647308
0.5600,225.9822519,6.871450291,1240.631695
0.5650,225.9363432,6.85478996,1240.615236
0.5700,225.8896062,6.836604343,1240.598059
0.5750,225.8423294,6.816279804,1240.579957
0.5800,225.7951038,6.793247896,1240.560832
0.5850,225.747576,6.767576023,1240.540565
0.5900,225.7001641,6.739325712,1240.519295
0.5950,225.6519234,6.708075027,1240.497074
0.6000,225.6029696,6.673290478,1240.473751
0.6050,225.5541435,6.635651217,1240.449339
0.6100,225.5050669,6.595064646,1240.423957
0.6150,225.4557046,6.551107884,1240.397418
0.6200,225.4057552,6.503606512,1240.369732
0.6250,225.3559122,6.452230108,1240.340773
0.6300,225.3064876,6.397222525,1240.310559
0.6350,225.2574178,6.338651343,1240.279047
0.6400,225.2087333,6.276008786,1240.246107
0.6450,225.1600334,6.209801152,1240.211871
0.6500,225.1128074,6.139592355,1240.176098
0.6550,225.0656914,6.066023834,1240.139004
0.6600,225.0202774,5.988615121,1240.100425
0.6650,224.9760101,5.907663534,1240.060417
0.6700,224.9329334,5.822826452,1240.018879
0.6750,224.8906324,5.733683361,1239.9758
0.6800,224.8494817,5.640904101,1239.931327
0.6850,224.8091969,5.544270574,1239.885378
0.6900,224.7699799,5.442874087,1239.837854
0.6950,224.732228,5.338235867,1239.788918
0.7000,224.6966428,5.229840504,1239.738501
0.7050,224.6623671,5.117743576,1239.686705
0.7100,224.6298916,5.002018312,1239.633489
0.7150,224.5972647,4.883782057,1239.57926
0.7200,224.5634714,4.762191851,1239.523809
0.7250,224.5300683,4.636623162,1239.467066
0.7300,224.4961522,4.507159933,1239.409007
0.7350,224.4610036,4.374794519,1239.34984
0.7400,224.424937,4.239893454,1239.289629
0.7450,224.3875475,4.101560752,1239.228254
0.7500,224.3502456,3.960200555,1239.165578
0.7550,224.3120513,3.815732473,1239.101629
0.7600,224.2727354,3.66724391,1239.036238
0.7650,224.231858,3.515218424,1238.969446
0.7700,224.1903892,3.358117554,1238.900927
0.7750,224.1475187,3.197438998,1238.830941
0.7800,224.1048139,3.032650365,1238.759233
0.7850,224.0618684,2.862778226,1238.685704
0.7900,224.0204978,2.688168347,1238.610155
0.7950,223.9794288,2.508845893,1238.532725
0.8000,223.9393702,2.324785127,1238.453333
0.8050,223.9020017,2.135909663,1238.37187
0.8100,223.8676541,1.944185453,1238.288639
0.8150,223.8361365,1.749075847,1238.203536
0.8200,223.808252,1.550571294,1238.116505
0.8250,223.7845465,1.347465884,1238.027299
0.8300,223.7649834,1.140775679,1237.936047
0.8350,223.7506535,0.9308101498,1237.842786
0.8400,223.7415426,0.7165553869,1237.747328
0.8450,223.7376132,0.4979582193,1237.649722
0.8500,223.7394502,0.2754205023,1237.549928
0.8550,223.7471041,0.04934071393,1237.448029
0.8600,223.7605919,-0.1809214626,1237.344019
0.8650,223.7793382,-0.4148512652,1237.237991
0.8700,223.8049355,-0.6527119631,1237.129796
0.8750,223.8373295,-0.8946163256,1237.01943
0.8800,223.8764584,-1.14067133,1236.906843
0.8850,223.9222727,-1.390547588,1236.792155
0.8900,223.975652,-1.645413482,1236.675073
0.8950,224.0369782,-1.904405627,1236.555653
0.9000,224.1070714,-2.167649475,1236.433812
0.9050,224.1857942,-2.434752266,1236.309671
0.9100,224.2727837,-2.705560995,1236.183166
0.9150,224.3680491,-2.979884278,1236.054467
0.9200,224.4721826,-3.257993406,1235.923353
0.9250,224.5847189,-3.538205545,1235.790309
0.9300,224.705386,-3.821544264,1235.655081
0.9350,224.8339742,-4.10668918,1235.518069
0.9400,224.9691454,-4.393170778,1235.379374
0.9450,225.1104009,-4.681573217,1235.239096
0.9500,225.2572511,-4.971044357,1235.097395
0.9550,225.4090021,-5.260685043,1234.954565
0.9600,225.5633273,-5.550619023,1234.810883
0.9650,225.7199297,-5.840615317,1234.666406
0.9700,225.8770677,-6.129580813,1234.521563
0.9750,226.0351375,-6.417767203,1234.376277
0.9800,226.1913334,-6.704159069,1234.230898
0.9850,226.3462774,-6.9888603,1234.085489
0.9900,226.4979942,-7.271372729,1233.940288
0.9950,226.6456794,-7.552321954,1233.795304
1.0000,226.7883687,-7.831744568,1233.65057
1.0050,226.9249223,-8.10839674,1233.50641
1.0100,227.0541248,-8.382945445,1233.362806
1.0150,227.1769733,-8.655731542,1233.219706
1.0200,227.2920097,-8.927537633,1233.077127
1.0250,227.3973266,-9.197625246,1232.935389
1.0300,227.4936115,-9.4657783,1232.794391
1.0350,227.5806886,-9.7323681,1232.654188
1.0400,227.6572175,-9.998050325,1232.514801
1.0450,227.7237467,-10.26333768,1232.37614
1.0500,227.7790582,-10.52698965,1232.238505
1.0550,227.8241748,-10.78989673,1232.101734
1.0600,227.8590207,-11.05188576,1231.965875
1.0650,227.8847757,-11.31235594,1231.830857
1.0700,227.9003809,-11.5709841,1231.696837
1.0750,227.9060409,-11.82805066,1231.563845
1.0800,227.9013725,-12.08365973,1231.431875
1.0850,227.8870471,-12.33683922,1231.300954
1.0900,227.8618761,-12.58759969,1231.171332
1.0950,227.8277747,-12.83544973,1231.04292
1.1000,227.7841044,-13.08017931,1230.915833
1.1050,227.7319598,-13.32166322,1230.789935
1.1100,227.670981,-13.56076401,1230.665132
1.1150,227.6027029,-13.7966349,1230.541523
1.1200,227.527802,-14.02897769,1230.418927
1.1250,227.4460272,-14.25657439,1230.297533
1.1300,227.3575073,-14.48057359,1230.17712
1.1350,227.2633072,-14.70006279,1230.057848
1.1400,227.1645265,-14.91319931,1229.939868
1.1450,227.0617955,-15.12111997,1229.822911
1.1500,226.9561661,-15.32200183,1229.707106
1.1550,226.8485119,-15.5158745,1229.592392
1.1600,226.7399095,-15.7024396,1229.478713
1.1650,226.6323076,-15.88135899,1229.365968
1.1700,226.5252045,-16.05280189,1229.254111
1.1750,226.4195931,-16.21606884,1229.143192
1.1800,226.3169121,-16.37090561,1229.033053
1.1850,226.2176216,-16.51716952,1228.923711
1.1900,226.1217821,-16.6543897,1228.815068
1.1950,226.0292227,-16.78351727,1228.707034
1.2000,225.9397161,-16.90452742,1228.59967
1.2050,225.8545063,-17.01748342,1228.49277
1.2100,225.7732701,-17.12109918,1228.386441
1.2150,225.6966137,-17.21654638,1228.280528
1.2200,225.6245398,-17.30263118,1228.17516
1.2250,225.5566036,-17.38012927,1228.070212
1.2300,225.4926001,-17.44781317,1227.965956
1.2350,225.4334196,-17.5064533,1227.862116
1.2400,225.3804657,-17.55537097,1227.758792
1.2450,225.33356,-17.59483631,1227.65584
1.2500,225.2915463,-17.62470898,1227.553493
1.2550,225.2551787,-17.64563248,1227.451584
1.2600,225.2243462,-17.65790531,1227.350098
1.2650,225.1994397,-17.6612599,1227.249134
1.2700,225.1800669,-17.65714054,1227.148545
1.2750,225.1650751,-17.64423328,1227.048604
1.2800,225.1554302,-17.62459161,1226.949143
1.2850,225.1498011,-17.59718764,1226.850252
1.2900,225.1476437,-17.56308862,1226.751852
1.2950,225.1490318,-17.52215285,1226.653903
1.3000,225.1533017,-17.47397602,1226.556637
1.3050,225.1611474,-17.41943513,1226.459738
1.3100,225.1721778,-17.35743815,1226.363405
1.3150,225.1855782,-17.28838545,1226.267565
1.3200,225.2009381,-17.2110976,1226.172457
1.3250,225.217318,-17.12578865,1226.077923
1.3300,225.2344892,-17.03223279,1225.984123
1.3350,225.2514903,-16.9300462,1225.891132
1.3400,225.2691168,-16.81880158,1225.798901
1.3450,225.2866588,-16.69814805,1225.707584
1.3500,225.3035146,-16.56823,1225.617207
1.3550,225.3184503,-16.42870793,1225.527923
1.3600,225.3319636,-16.27935241,1225.439748
1.3650,225.3420944,-16.1207021,1225.352877
1.3700,225.3497148,-15.95212731,1225.267281
1.3750,225.3553954,-15.77477401,1225.182873
1.3800,225.3586074,-15.58993965,1225.099611
1.3850,225.358317,-15.39712789,1225.017619
1.3900,225.3553979,-15.19772181,1224.936484
1.3950,225.3492925,-14.99187113,1224.856329
1.4000,225.3398311,-14.78063701,1224.776969
1.4050,225.3253923,-14.56426262,1224.698456
1.4100,225.305672,-14.34364591,1224.62074
1.4150,225.2809491,-14.11819126,1224.543813
1.4200,225.2505586,-13.88879974,1224.467733
1.4250,225.2152491,-13.65556835,1224.3924
1.4300,225.1752327,-13.41704134,1224.318095
1.4350,225.1307286,-13.17444513,1224.244536
1.4400,225.0800179,-12.92820684,1224.171849
1.4450,225.022645,-12.67789173,1224.10011
1.4500,224.9591132,-12.42433885,1224.02929
1.4550,224.8881161,-12.1681785,1223.959396
1.4600,224.8094252,-11.90918758,1223.890535
1.4650,224.7221925,-11.64745013,1223.822756
1.4700,224.6264124,-11.38247188,1223.756179
1.4750,224.5219684,-11.11410998,1223.690866
1.4800,224.4085446,-10.84248275,1223.626912
1.4850,224.2866264,-10.5685106,1223.564184
1.4900,224.1556593,-10.29117957,1223.502903
1.4950,224.0162769,-10.01051991,1223.443003
1.5000,223.8691394,-9.726127055,1223.384445
1.5050,223.7131188,-9.438903709,1223.32728
1.5100,223.5504284,-9.149203329,1223.271362
1.5150,223.3804701,-8.856935971,1223.216731
1.5200,223.2032994,-8.562463595,1223.163413
1.5250,223.0188493,-8.265637768,1223.111471
1.5300,222.8272378,-7.967326014,1223.060746
1.5350,222.6283015,-7.666789166,1223.011618
1.5400,222.4214226,-7.364368815,1222.963967
1.5450,222.2065663,-7.060402075,1222.917911
1.5500,221.9845999,-6.75464631,1222.873483
1.5550,221.7545573,-6.447668142,1222.830642
1.5600,221.5172074,-6.138311901,1222.789559
1.5650,221.2727989,-5.827489704,1222.750055
1.5700,221.0212782,-5.514409481,1222.712299
1.5750,220.7619375,-5.199741277,1222.676266
1.5800,220.4948302,-4.881604925,1222.642329
1.5850,220.2204006,-4.562213675,1222.610138
1.5900,219.9394887,-4.240249122,1222.57984
1.5950,219.6506786,-3.916580549,1222.551498
1.6000,219.3550071,-3.591278208,1222.524877
1.6050,219.052552,-3.26490408,1222.500123
1.6100,218.7440406,-2.937949025,1222.47705
1.6150,218.4287656,-2.610484198,1222.455724
1.6200,218.1081015,-2.281871923,1222.436205
1.6250,217.7835968,-1.952466998,1222.418311
1.6300,217.4552788,-1.623126265,1222.401842
1.6350,217.1247391,-1.29311979,1222.386799
1.6400,216.7920872,-0.9618315262,1222.373258
1.6450,216.4574409,-0.6300594891,1222.361084
1.6500,216.1214892,-0.2981377883,1222.350169
1.6550,215.7862723,0.03475418361,1222.340525
1.6600,215.4514308,0.3691700321,1222.332191
1.6650,215.1189165,0.7044425472,1222.32489
1.6700,214.7892842,1.04065172,1222.318694
1.6750,214.4624012,1.378403626,1222.313635
1.6800,214.1395403,1.718905513,1222.309746
1.6850,213.8207343,2.06110891,1222.306916
1.6900,213.50612,2.405574649,1222.30538
1.6950,213.1951815,2.751941298,1222.305024
1.7000,212.8886304,3.100236197,1222.305872
1.7050,212.5874849,3.451563164,1222.308116
1.7100,212.2923776,3.804969222,1222.311478
1.7150,212.0017787,4.1598287,1222.315928
1.7200,211.7168431,4.515641089,1222.321244
1.7250,211.4357021,4.871103795,1222.327388
1.7300,211.1594061,5.226204641,1222.334102
1.7350,210.8862968,5.580252873,1222.341482
1.7400,210.6176187,5.933081353,1222.349225
1.7450,210.3539795,6.286239858,1222.357713
1.7500,210.0948867,6.63850637,1222.366662
1.7550,209.8401828,6.990733668,1222.376205
1.7600,209.5901284,7.342856575,1222.386256
1.7650,209.3444089,7.694750701,1222.396868
1.7700,209.1031538,8.045845576,1222.407945
1.7750,208.8668624,8.395923894,1222.419385
1.7800,208.6339257,8.745331671,1222.431406
1.7850,208.4039231,9.093992699,1222.444052
1.7900,208.1767359,9.440657633,1222.4571
1.7950,207.952263,9.785872221,1222.470659
1.8000,207.7295876,10.12946786,1222.484867
1.8050,207.5091241,10.47125088,1222.499601
1.8100,207.2898974,10.81061066,1222.514775
1.8150,207.0711423,11.14829032,1222.530593
1.8200,206.8517255,11.48462982,1222.547276
1.8250,206.6313528,11.81840463,1222.564588
1.8300,206.410526,12.15100248,1222.582835
1.8350,206.1878941,12.48165858,1222.601812
1.8400,205.963251,12.8086074,1222.621225
1.8450,205.7361524,13.1341471,1222.641633
1.8500,205.5068459,13.45718515,1222.662618
1.8550,205.2749024,13.77814084,1222.684343
1.8600,205.0398219,14.09581119,1222.706584
1.8650,204.7998538,14.41107565,1222.729681
1.8700,204.554895,14.72354528,1222.753489
1.8750,204.3056533,15.03356549,1222.778058
1.8800,204.0513005,15.33974561,1222.803077
1.8850,203.7917598,15.64440146,1222.829031
1.8900,203.5266396,15.94629964,1222.855755
1.8950,203.2565505,16.24630585,1222.883293
1.9000,202.9809421,16.5447569,1222.911926
1.9050,202.6994079,16.84249465,1222.941729
1.9100,202.4120698,17.13985821,1222.972786
1.9150,202.1195922,17.43773968,1223.005276
1.9200,201.8215016,17.73554421,1223.039037
1.9250,201.5180282,18.03406958,1223.074272
1.9300,201.2086872,18.33421361,1223.111215
1.9350,200.8939206,18.6347492,1223.149586
1.9400,200.5739134,18.93605374,1223.189437
1.9450,200.2496737,19.24008912,1223.231121
1.9500,199.9209118,19.54710805,1223.274714
1.9550,199.5873081,19.85676833,1223.320221
1.9600,199.2499987,20.17027812,1223.367882
1.9650,198.9074081,20.48809209,1223.41808
1.9700,198.5602538,20.80971259,1223.470652
1.9750,198.2085561,21.13504754,1223.525575
1.9800,197.8524054,21.4638936,1223.582885
1.9850,197.4932277,21.7957112,1223.642288
1.9900,197.1304721,22.1306661,1223.703837
1.9950,196.7647966,22.46740229,1223.767184
2.0000,196.3949251,22.80650948,1223.832548
2.0050,196.0202405,23.14616016,1223.89957
2.0100,195.6410275,23.48760602,1223.968536
2.0150,195.2565186,23.8300763,1224.039381
2.0200,194.8677423,24.17440719,1224.112205
2.0250,194.4750198,24.52104777,1224.187118
2.0300,194.0786179,24.86927173,1224.264036
2.0350,193.6795758,25.21965248,1224.342917
2.0400,193.2779953,25.57121011,1224.423659
2.0450,192.8728635,25.92326133,1224.506083
2.0500,192.4647843,26.27648885,1224.590423
2.0550,192.0550693,26.6309805,1224.676595
2.0600,191.6429816,26.98629326,1224.764568
2.0650,191.2295946,27.34246938,1224.854279
2.0700,190.8150021,27.69975821,1224.945716
2.0750,190.3994802,28.05876134,1225.038996
2.0800,189.9838465,28.41872884,1225.133836
2.0850,189.5692184,28.78073884,1225.230331
2.0900,189.1560132,29.14559658,1225.328672
2.0950,188.7437129,29.51322133,1225.428919
2.1000,188.333692,29.88424933,1225.531082
2.1050,187.9256381,30.25768655,1225.634903
2.1100,187.5198089,30.63292062,1225.740238
2.1150,187.1168146,31.00984006,1225.847002
2.1200,186.7169928,31.38726546,1225.954845
2.1250,186.3208287,31.76558169,1226.063749
2.1300,185.9271535,32.14348772,1226.17349
2.1350,185.5355518,32.52112034,1226.284145
2.1400,185.1469762,32.89785578,1226.395397
2.1450,184.7606207,33.27349019,1226.50721
2.1500,184.3760542,33.64767128,1226.619607
2.1550,183.9936247,34.02066655,1226.732593
2.1600,183.6124283,34.39235136,1226.846199
2.1650,183.2328987,34.76150788,1226.960126
2.1700,182.8558303,35.12897775,1227.074449
2.1750,182.480209,35.49395551,1227.189037
2.1800,182.1065569,35.85748586,1227.304038
2.1850,181.7353095,36.21891384,1227.419269
2.1900,181.3656124,36.57919173,1227.535074
2.1950,180.9983014,36.93839965,1227.65136
2.2000,180.6331878,37.29709754,1227.768246
2.2050,180.2701426,37.65428206,1227.885486
2.2100,179.9076778,38.01034762,1228.003449
2.2150,179.5459774,38.36410751,1228.121644
2.2200,179.1866829,38.71674582,1228.240186
2.2250,178.8285878,39.06776947,1228.359083
2.2300,178.4721356,39.41723273,1228.478377
2.2350,178.117096,39.76584873,1228.59816
2.2400,177.7623328,40.11400886,1228.718862
2.2450,177.4078997,40.46079272,1228.840163
2.2500,177.05377,40.80612041,1228.962077
2.2550,176.6996695,41.15064264,1229.084866
2.2600,176.3461235,41.49351817,1229.208189
2.2650,175.9932289,41.83449684,1229.331862
2.2700,175.640027,42.17412963,1229.456242
2.2750,175.2868432,42.51222683,1229.581278
2.2800,174.9334961,42.84952675,1229.707148
2.2850,174.5795586,43.18575517,1229.83385
2.2900,174.2250064,43.52218829,1229.961797
2.2950,173.8698989,43.85960098,1230.091222
2.3000,173.5155103,44.19740599,1230.22169
2.3050,173.1614804,44.53624907,1230.35346
2.3100,172.8073896,44.87589946,1230.486476
2.3150,172.453552,45.21701055,1230.620917
2.3200,172.0995625,45.55914769,1230.756711
2.3250,171.7456722,45.90285691,1230.894011
2.3300,171.3917087,46.24774605,1231.03275
2.3350,171.0378935,46.59313276,1231.17263
2.3400,170.6839368,46.94039202,1231.314138
2.3450,170.3310803,47.2892605,1231.457073
2.3500,169.97814,47.63886964,1231.601367
2.3550,169.6242797,47.98951415,1231.747211
2.3600,169.2706347,48.34091975,1231.894413
2.3650,168.9163873,48.69322643,1232.043133
2.3700,168.5607047,49.04505411,1232.193071
2.3750,168.2037959,49.39675009,1232.344361
2.3800,167.8455678,49.74820058,1232.496959
2.3850,167.4843108,50.09901738,1232.651119
2.3900,167.1205804,50.44910595,1232.806691
2.3950,166.755239,50.79752914,1232.963252
2.4000,166.387319,51.14461839,1233.121094
2.4050,166.0165172,51.4906434,1233.280404
2.4100,165.6421218,51.83653113,1233.441624
2.4150,165.2651284,52.18139955,1233.60423
2.4200,164.884903,52.52613471,1233.768594
2.4250,164.5019722,52.8704039,1233.934463
2.4300,164.1163996,53.21465585,1234.101945
2.4350,163.728303,53.55860065,1234.270957
2.4400,163.3365891,53.90396704,1234.442306
2.4450,162.9421475,54.24951637,1234.615371
2.4500,162.5441748,54.5956994,1234.790502
2.4550,162.1426944,54.94166408,1234.967454
2.4600,161.7382758,55.28799453,1235.146374
2.4650,161.3319295,55.63542955,1235.327258
2.4700,160.9220906,55.98307703,1235.510116
2.4750,160.5094769,56.33103843,1235.69486
2.4800,160.0933547,56.67894234,1235.88158
2.4850,159.6729941,57.02645667,1236.070279
2.4900,159.2487548,57.37329898,1236.260753
2.4950,158.8201084,57.71963415,1236.45318
2.5000,158.3865068,58.06542355,1236.647646
2.5050,157.9482858,58.41155075,1236.844377
2.5100,157.507217,58.75832655,1237.043092
2.5150,157.0630104,59.10623936,1237.244074
2.5200,156.6146775,59.45528853,1237.44758
2.5250,156.1639754,59.80632345,1237.653604
2.5300,155.7101671,60.15939275,1237.86223
2.5350,155.2544329,60.51501141,1238.073645
2.5400,154.7966346,60.87273915,1238.287596
2.5450,154.3373181,61.23266324,1238.504095
2.5500,153.8771454,61.5953423,1238.723322
2.5550,153.4162869,61.96061381,1238.945093
2.5600,152.9537176,62.32686955,1239.16909
2.5650,152.4911366,62.69452518,1239.395176
2.5700,152.0281309,63.0634573,1239.623364
2.5750,151.5645597,63.43338669,1239.853605
2.5800,151.1001365,63.8040208,1240.085871
2.5850,150.6347183,64.17458891,1240.319961
2.5900,150.1687678,64.54496186,1240.555707
2.5950,149.7019497,64.91479699,1240.793057
2.6000,149.2343813,65.28287579,1241.031555
2.6050,148.7650573,65.65046073,1241.271891
2.6100,148.2945927,66.01645663,1241.513483
2.6150,147.8230208,66.38040187,1241.756127
2.6200,147.3496542,66.74375195,1242.000493
2.6250,146.8744381,67.10606,1242.246393
2.6300,146.3978987,67.46743281,1242.493717
2.6350,145.9193981,67.82912186,1242.74317
2.6400,145.4397258,68.18939996,1242.99383
2.6450,144.9592138,68.54856993,1243.245688
2.6500,144.4784289,68.90680738,1243.498652
2.6550,143.9981075,69.26422972,1243.75264
2.6600,143.5175129,69.6213427,1244.008006
2.6650,143.037578,69.97824561,1244.264549
2.6700,142.5591737,70.33541132,1244.522251
2.6750,142.0807987,70.69210684,1244.781153
2.6800,141.603522,71.04807851,1245.040977
2.6850,141.1289543,71.40336781,1245.301229
2.6900,140.6562319,71.75673463,1245.561718
2.6950,140.1853084,72.10920694,1245.822787
2.7000,139.7164036,72.45954904,1246.083895
2.7050,139.2490948,72.80805885,1246.345207
2.7100,138.7842504,73.15414043,1246.606309
2.7150,138.3201537,73.49787395,1246.86769
2.7200,137.8583374,73.83894956,1247.128751
2.7250,137.3977321,74.17661963,1247.389556
2.7300,136.9397779,74.51153053,1247.649916
2.7350,136.4849794,74.8433848,1247.90956
2.7400,136.0338335,75.17091492,1248.167772
2.7450,135.5857099,75.494577,1248.424927
2.7500,135.1414936,75.81371552,1248.680456
2.7550,134.7023921,76.1304198,1248.934879
2.7600,134.2684606,76.44485904,1249.188217
2.7650,133.8402133,76.75725535,1249.440423
2.7700,133.4187419,77.06762978,1249.691225
2.7750,133.0053365,77.37647086,1249.940394
2.7800,132.5993326,77.68362833,1250.18797
2.7850,132.2009047,77.99071332,1250.434549
2.7900,131.810556,78.29636583,1250.679431
2.7950,131.4281523,78.60175731,1250.923119
2.8000,131.0539772,78.9064349,1251.165284
2.8050,130.6882325,79.21036214,1251.405861
2.8100,130.330138,79.51359242,1251.645104
2.8150,129.9794911,79.81593095,1251.882953
2.8200,129.6347023,80.11687619,1252.119614
2.8250,129.2939554,80.41613032,1252.355375
2.8300,128.9577642,80.71415328,1252.59036
2.8350,128.6241043,81.01019663,1252.824672
2.8400,128.2925909,81.30412936,1253.058447
2.8450,127.9620682,81.59613109,1253.291985
2.8500,127.6323508,81.88505714,1253.524802
2.8550,127.3031138,82.1709897,1253.757078
2.8600,126.974084,82.45496121,1253.98936
2.8650,126.6436908,82.73580537,1254.221589
2.8700,126.3129695,83.01461501,1254.453931
2.8750,125.9806806,83.29177755,1254.686918
2.8800,125.6470712,83.56628104,1254.920079
2.8850,125.3116551,83.83939,1255.154059
2.8900,124.9735525,84.1101127,1255.388671
2.8950,124.6321412,84.37867258,1255.624245
2.9000,124.2877892,84.64636902,1255.861266
2.9050,123.9413904,84.91268188,1256.099172
2.9100,123.5912189,85.17839953,1256.338923
2.9150,123.2388005,85.44402061,1256.580252
2.9200,122.883243,85.70829394,1256.82283
2.9250,122.5248221,85.97195832,1257.066964
2.9300,122.1629663,86.23466909,1257.312602
2.9350,121.7968343,86.49695416,1257.560206
2.9400,121.4266183,86.75937962,1257.810042
2.9450,121.0510443,87.02241632,1258.062759
2.9500,120.6700087,87.28608304,1258.318348
2.9550,120.2833644,87.54947472,1258.576446
2.9600,119.8903189,87.81336754,1258.837719
2.9650,119.4909969,88.07689344,1259.101724
2.9700,119.0858438,88.34049118,1259.368555
2.9750,118.6756222,88.60397038,1259.637937
2.9800,118.2592788,88.866758,1259.909889
2.9850,117.8371805,89.12926433,1260.184561
2.9900,117.4099353,89.39175294,1260.461902
2.9950,116.9772539,89.65404062,1260.741944
3.0000,116.5399763,89.91476868,1261.02373
3.0050,116.099371,90.17397578,1261.306943
3.0100,115.6548121,90.43122514,1261.591569
3.0150,115.2077391,90.68757829,1261.877663
3.0200,114.7574132,90.94236487,1262.165167
3.0250,114.3053902,91.19598335,1262.453795
3.0300,113.8502317,91.44775449,1262.743684
3.0350,113.3924031,91.69762497,1263.034654
3.0400,112.9326345,91.94658109,1263.326972
3.0450,112.4707199,92.19354356,1263.620191
3.0500,112.0075584,92.43959092,1263.914511
3.0550,111.5425032,92.68289522,1264.209246
3.0600,111.0765213,92.92447271,1264.504594
3.0650,110.6082972,93.16346166,1264.800522
3.0700,110.1395774,93.40104011,1265.096998
3.0750,109.6694827,93.6370953,1265.394333
3.0800,109.2004732,93.87218319,1265.691902
3.0850,108.7326082,94.10529098,1265.989198
3.0900,108.266158,94.3371951,1266.286457
3.0950,107.8015945,94.56646593,1266.582815
3.1000,107.3401847,94.79400252,1266.878234
3.1050,106.8822425,95.01987542,1267.172599
3.1100,106.4270618,95.24380421,1267.465982
3.1150,105.9754753,95.46554044,1267.757963
3.1200,105.5282687,95.68539567,1268.048331
3.1250,105.0869103,95.90293428,1268.33641
3.1300,104.6508226,96.11761451,1268.622028
3.1350,104.220556,96.32979104,1268.905151
3.1400,103.7968197,96.53923645,1269.185315
3.1450,103.3807058,96.74590115,1269.462097
3.1500,102.9715166,96.95081666,1269.736217
3.1550,102.5694482,97.15269497,1270.006901
3.1600,102.1736047,97.35139079,1270.274359
3.1650,101.7845578,97.54717594,1270.538448
3.1700,101.4019937,97.73901689,1270.798782
3.1750,101.027138,97.92697723,1271.054886
3.1800,100.6591609,98.11083112,1271.306903
3.1850,100.298038,98.2906833,1271.554903
3.1900,99.94418448,98.46616995,1271.798479
3.1950,99.59782501,98.63760389,1272.037671
3.2000,99.25737955,98.80479104,1272.272948
3.2050,98.92380324,98.96791212,1272.504023
3.2100,98.59755256,99.12675547,1272.730477
3.2150,98.2780443,99.28062593,1272.952103
3.2200,97.96478716,99.43027612,1273.169544
3.2250,97.65813735,99.57620734,1273.382869
3.2300,97.35736486,99.71888112,1273.592567
3.2350,97.06322,99.85839506,1273.798384
3.2400,96.77427011,99.99504861,1274.001037
3.2450,96.49140516,100.1282529,1274.199812
3.2500,96.2148626,100.2598361,1274.3956
3.2550,95.94484598,100.3903192,1274.588555
3.2600,95.68113379,100.5181119,1274.777843
3.2650,95.42372489,100.6449169,1274.964412
3.2700,95.17210085,100.7707468,1275.148463
3.2750,94.92540495,100.8961383,1275.330618
3.2800,94.68553559,101.0226414,1275.510922
3.2850,94.45031512,101.1478551,1275.688915
3.2900,94.22071382,101.273026,1275.864837
3.2950,93.99588824,101.3977286,1276.038762
3.3000,93.77485101,101.5232776,1276.21182
3.3050,93.55901161,101.6498617,1276.383518
3.3100,93.34783046,101.7773807,1276.553965
3.3150,93.14116112,101.9053492,1276.722908
3.3200,92.93916714,102.0329838,1276.889874
3.3250,92.74097502,102.1616299,1277.055849
3.3300,92.5470623,102.2898602,1277.219853
3.3350,92.35730319,102.4182552,1277.382266
3.3400,92.17043611,102.5459582,1277.543173
3.3450,91.98736518,102.6734985,1277.702411
3.3500,91.80700097,102.8007633,1277.860441
3.3550,91.62863077,102.9279375,1278.017636
3.3600,91.45273954,103.053931,1278.17321
3.3650,91.27980936,103.18013,1278.327774
3.3700,91.10839624,103.3055162,1278.481352
3.3750,90.93974138,103.4309573,1278.633897
3.3800,90.77213207,103.5553175,1278.785513
3.3850,90.60655539,103.6787241,1278.935893
3.3900,90.44240942,103.8019951,1279.085718
3.3950,90.27955953,103.9263316,1279.235703
3.4000,90.11619505,104.0504959,1279.386046
3.4050,89.95249068,104.1751731,1279.537008
3.4100,89.7890203,104.2999089,1279.688107
3.4150,89.62443783,104.4250671,1279.840123
3.4200,89.45950463,104.5500831,1279.99244
3.4250,89.29343644,104.6751671,1280.145473
3.4300,89.1270425,104.8004666,1280.298943
3.4350,88.96032586,104.9261606,1280.452947
3.4400,88.79340063,105.0518013,1280.607199
3.4450,88.62428916,105.1771089,1280.762393
3.4500,88.45263752,105.3014595,1280.91827
3.4550,88.27854051,105.4256596,1281.075283
3.4600,88.10291446,105.5493893,1281.232863
3.4650,87.92365555,105.6724749,1281.391859
3.4700,87.74150611,105.7952525,1281.552042
3.4750,87.55602734,105.9180036,1281.713854
3.4800,87.36859722,106.0402475,1281.87642
3.4850,87.17890826,106.1622534,1282.040011
3.4900,86.98605211,106.2836772,1282.204941
3.4950,86.79040735,106.4051628,1282.37139
3.5000,86.59248524,106.5264772,1282.538956
3.5050,86.39241581,106.6476515,1282.70768
3.5100,86.18978058,106.7691792,1282.878065
3.5150,85.98418237,106.8912123,1283.050401
3.5200,85.77614486,107.0139502,1283.22454
3.5250,85.56660237,107.1370369,1283.39984
3.5300,85.35393814,107.2597045,1283.576659
3.5350,85.13982544,107.3822287,1283.754384
3.5400,84.92621286,107.5055914,1283.932685
3.5450,84.71229467,107.629141,1284.111567
3.5500,84.49764218,107.7517775,1284.29057
3.5550,84.283123,107.8734625,1284.46929
3.5600,84.07092826,107.9944413,1284.646878
3.5650,83.86008562,108.1144594,1284.823693
3.5700,83.65162677,108.2332327,1284.999053
3.5750,83.44666912,108.3502499,1285.172168
3.5800,83.24486544,108.465042,1285.342896
3.5850,83.04793764,108.5788161,1285.511182
3.5900,82.85552259,108.6901831,1285.676425
3.5950,82.66849604,108.7997922,1285.838568
3.6000,82.4879018,108.9073116,1285.996993
3.6050,82.31144798,109.0114379,1286.151944
3.6100,82.14026694,109.1127101,1286.303254
3.6150,81.97434651,109.2111348,1286.450889
3.6200,81.81268425,109.3072269,1286.595633
3.6250,81.65487072,109.400155,1286.737174
3.6300,81.50100747,109.4905575,1286.875936
3.6350,81.35042116,109.5780584,1287.011989
3.6400,81.20296511,109.6630008,1287.145521
3.6450,81.05832082,109.745491,1287.276793
3.6500,80.91653548,109.8255679,1287.40581
3.6550,80.77733887,109.9031588,1287.532628
3.6600,80.63941657,109.9790921,1287.658248
3.6650,80.50127326,110.0522909,1287.782776
3.6700,80.36240544,110.1243328,1287.907367
3.6750,80.22037278,110.1953164,1288.033237
3.6800,80.07680747,110.2672108,1288.16077
3.6850,79.93023607,110.3404163,1288.290903
3.6900,79.78126968,110.4153209,1288.423611
3.6950,79.62983691,110.492322,1288.559137
3.7000,79.47578632,110.5718639,1288.697745
3.7050,79.31823515,110.6545579,1288.84023
3.7100,79.15623363,110.7417156,1288.987842
3.7150,78.98881396,110.8336564,1289.141179
3.7200,78.81481557,110.9318667,1289.301735
3.7250,78.63373487,111.0376868,1289.470478
3.7300,78.44460877,111.1515206,1289.648161
3.7350,78.24612544,111.2738292,1289.835615
3.7400,78.0381197,111.4056385,1290.03355
3.7450,77.82107052,111.5470812,1290.241785
3.7500,77.59584865,111.6984359,1290.460097
3.7550,77.36079114,111.8599228,1290.689406
3.7600,77.11585202,112.032261,1290.930243
3.7650,76.86267908,112.2158898,1291.182108
3.7700,76.59916045,112.4105117,1291.445942
3.7750,76.32635748,112.6143629,1291.72012
3.7800,76.04383566,112.8285877,1292.005654
3.7850,75.75165497,113.0514222,1292.301528
3.7900,75.45185866,113.2843739,1292.607651
3.7950,75.14500796,113.5254004,1292.922648
3.8000,74.83137476,113.7748493,1293.246726
3.8050,74.51193024,114.0313727,1293.578542
3.8100,74.18851464,114.2945295,1293.917037
3.8150,73.86240439,114.5644806,1294.261722
3.8200,73.53465509,114.8394278,1294.611063
3.8250,73.20607069,115.1189618,1294.964352
3.8300,72.87888175,115.4026912,1295.320314
3.8350,72.55424407,115.6896995,1295.677892
3.8400,72.23176118,115.9780754,1296.036082
3.8450,71.91263117,116.2665872,1296.393513
3.8500,71.5972069,116.553846,1296.749118
3.8550,71.28647569,116.8401453,1297.10263
3.8600,70.97962393,117.1239182,1297.453452
3.8650,70.67867954,117.404349,1297.799886
3.8700,70.38358803,117.6807873,1298.141597
3.8750,70.09481148,117.9520893,1298.477573
3.8800,69.8118946,118.2171367,1298.807347
3.8850,69.53585492,118.4753924,1299.129987
3.8900,69.26711064,118.7261543,1299.444723
3.8950,69.00541291,118.9674475,1299.750405
3.9000,68.7507379,119.1988844,1300.046698
3.9050,68.50364683,119.4196107,1300.332674
3.9100,68.26436833,119.6288326,1300.607657
3.9150,68.03195465,119.8247327,1300.870926
3.9200,67.80816521,120.0085918,1301.122335
3.9250,67.59321581,120.17901,1301.360845
3.9300,67.38756811,120.3361643,1301.586193
3.9350,67.18996918,120.4790157,1301.798316
3.9400,67.0005676,120.607756,1301.997248
3.9450,66.81951974,120.7228612,1302.183089
3.9500,66.64552184,120.8233994,1302.3558
3.9550,66.47803457,120.9106976,1302.516532
3.9600,66.31694633,120.9841361,1302.664963
3.9650,66.16385712,121.044751,1302.800821
3.9700,66.01885516,121.0922625,1302.923887
3.9750,65.88295347,121.1268657,1303.033707
3.9800,65.75434071,121.1486494,1303.131318
3.9850,65.63338329,121.1577659,1303.216523
3.9900,65.51943551,121.1556617,1303.290641
3.9950,65.41176848,121.1421338,1303.353921
4.0000,65.30990257,121.1194789,1303.408132
4.0050,65.21398858,121.0872837,1303.452914
4.0100,65.12291836,121.0458142,1303.489075
4.0150,65.03851246,120.9973856,1303.51719
4.0200,64.96019934,120.9415363,1303.537179
4.0250,64.88758851,120.8787114,1303.549662
4.0300,64.81955398,120.8099505,1303.555899
4.0350,64.7558808,120.7354701,1303.55622
4.0400,64.6946406,120.6554527,1303.551702
4.0450,64.63490542,120.5707775,1303.543533
4.0500,64.57574259,120.4825733,1303.532947
4.0550,64.51719152,120.3916229,1303.5204
4.0600,64.45736573,120.2968742,1303.506179
4.0650,64.39645257,120.1997539,1303.491055
4.0700,64.3346206,120.0999502,1303.474729
4.0750,64.2697371,119.9998138,1303.459918
4.0800,64.20193076,119.8988365,1303.446114
4.0850,64.13105635,119.7990545,1303.434723
4.0900,64.05646276,119.6998774,1303.425712
4.0950,63.97872623,119.6027066,1303.419535
4.1000,63.89724641,119.5079265,1303.416753
4.1050,63.81210503,119.4159401,1303.417578
4.1100,63.72340807,119.3272312,1303.422173
4.1150,63.63130692,119.2420151,1303.430588
4.1200,63.53498116,119.160718,1303.443456
4.1250,63.43524231,119.0831685,1303.460293
4.1300,63.33291204,119.0102841,1303.481156
4.1350,63.22764026,118.942245,1303.506211
4.1400,63.11968614,118.879015,1303.535311
4.1450,63.01012988,118.8218901,1303.568665
4.1500,62.89940076,118.7715538,1303.606443
4.1550,62.78747728,118.7265821,1303.647696
4.1600,62.67530892,118.6871963,1303.692005
4.1650,62.5622678,118.6531566,1303.739621
4.1700,62.44931577,118.6238737,1303.789523
4.1750,62.33751899,118.599658,1303.841295
4.1800,62.22662161,118.5793089,1303.894273
4.1850,62.11748893,118.5631344,1303.948109
4.1900,62.00953896,118.5501313,1304.002477
4.1950,61.90484889,118.5402085,1304.056129
4.2000,61.80227641,118.5318744,1304.108729
4.2050,61.70277207,118.5257564,1304.160217
4.2100,61.60706859,118.5212142,1304.209682
4.2150,61.51685699,118.5183663,1304.256271
4.2200,61.43078663,118.5149427,1304.299196
4.2250,61.3500923,118.5106534,1304.337578
4.2300,61.27451426,118.5051035,1304.371308
4.2350,61.20449247,118.4986343,1304.400321
4.2400,61.14067087,118.4902773,1304.423618
4.2450,61.08299268,118.4790981,1304.44059
4.2500,61.03171788,118.4653163,1304.451318
4.2550,60.98904974,118.4477404,1304.453839
4.2600,60.95453626,118.4261842,1304.448291
4.2650,60.92793321,118.4005145,1304.434718
4.2700,60.90957512,118.3709472,1304.413077
4.2750,60.89974026,118.336289,1304.38246
4.2800,60.89794789,118.2965925,1304.343135
4.2850,60.90431693,118.2516013,1304.294976
4.2900,60.91913771,118.2006251,1304.237363
4.2950,60.94258379,118.1435514,1304.170192
4.3000,60.97482041,118.0793783,1304.09278
4.3050,61.01613533,118.0085619,1304.005343
4.3100,61.06692947,117.9308741,1303.90752
4.3150,61.12681757,117.8444593,1303.798353
4.3200,61.19569246,117.7506386,1303.678865
4.3250,61.27365672,117.6488366,1303.548615
4.3300,61.36082668,117.5392485,1303.407762
4.3350,61.45689231,117.4224667,1303.256876
4.3400,61.56303542,117.2992044,1303.095921
4.3450,61.6797084,117.1702097,1302.925055
4.3500,61.80595104,117.0342696,1302.744182
4.3550,61.94180499,116.8920808,1302.553752
4.3600,62.08809639,116.7456901,1302.354672
4.3650,62.24403656,116.5951008,1302.147518
4.3700,62.40910746,116.4406627,1301.932807
4.3750,62.58455277,116.2827309,1301.71014
4.3800,62.76846735,116.1214127,1301.480713
4.3850,62.96148727,115.9566256,1301.244161
4.3900,63.16182621,115.7889647,1301.001856
4.3950,63.36799732,115.6184053,1300.754745
4.4000,63.58073202,115.4451969,1300.502574
4.4050,63.79887294,115.2693093,1300.246023
4.4100,64.02108241,115.0910295,1299.986113
4.4150,64.24782484,114.9101661,1299.722455
4.4200,64.47973746,114.7273577,1299.455157
4.4250,64.71507931,114.5428083,1299.185298
4.4300,64.95400205,114.3565038,1298.912859
4.4350,65.19581071,114.1676788,1298.637777
4.4400,65.44002337,113.9771076,1298.360833
4.4450,65.68593714,113.7840577,1298.082019
4.4500,65.93350085,113.5884601,1297.801395
4.4550,66.18177855,113.3909063,1297.519785
4.4600,66.43048468,113.1922682,1297.237965
4.4650,66.679345,112.9917258,1296.955545
4.4700,66.92751658,112.7887538,1296.67268
4.4750,67.17524949,112.5833553,1296.389258
4.4800,67.42229924,112.3760394,1296.105768
4.4850,67.66838678,112.1664809,1295.822187
4.4900,67.9144374,111.9552896,1295.538427
4.4950,68.15957648,111.7421986,1295.254838
4.5000,68.40492426,111.5276879,1294.971021
4.5050,68.65017299,111.3117832,1294.687186
4.5100,68.8941443,111.0934957,1294.40334
4.5150,69.13704099,110.8732189,1294.119593
4.5200,69.37967707,110.6512578,1293.835717
4.5250,69.62034874,110.4279513,1293.552783
4.5300,69.85952894,110.2025071,1293.270033
4.5350,70.09805282,109.9753078,1292.987311
4.5400,70.33673462,109.7469851,1292.70458
4.5450,70.57532661,109.5180307,1292.422348
4.5500,70.81424031,109.2889482,1292.140626
4.5550,71.05333591,109.059794,1291.85945
4.5600,71.29399159,108.8314514,1291.578639
4.5650,71.53629578,108.603675,1291.297993
4.5700,71.78011816,108.3766484,1291.017736
4.5750,72.02544858,108.1520419,1290.738797
4.5800,72.27290974,107.9287306,1290.46026
4.5850,72.52272925,107.7070507,1290.182132
4.5900,72.77410021,107.4882189,1289.905515
4.5950,73.02798289,107.2717428,1289.629647
4.6000,73.28441049,107.0577302,1289.354548
4.6050,73.54280003,106.8456836,1289.080222
4.6100,73.80494602,106.6375826,1288.806926
4.6150,74.06899787,106.432738,1288.53512
4.6200,74.33581482,106.2309355,1288.264303
4.6250,74.60530947,106.032657,1287.994715
4.6300,74.87882774,105.8373412,1287.725384
4.6350,75.15590139,105.6446492,1287.456404
4.6400,75.43589136,105.4535777,1287.187399
4.6450,75.71926612,105.2642735,1286.918284
4.6500,76.0055692,105.0773854,1286.649678
4.6550,76.29484284,104.8927955,1286.381466
4.6600,76.5870576,104.709786,1286.113387
4.6650,76.88218912,104.5279316,1285.84515
4.6700,77.18070565,104.3480805,1285.577087
4.6750,77.48089397,104.168262,1285.308937
4.6800,77.78423209,103.9892654,1285.040442
4.6850,78.08940004,103.8103495,1284.771928
4.6900,78.39645362,103.631091,1284.503141
4.6950,78.70649832,103.4520309,1284.233822
4.7000,79.01855243,103.2724438,1283.964103
4.7050,79.33272195,103.0928053,1283.694202
4.7100,79.64920505,102.9126241,1283.423688
4.7150,79.96618282,102.731911,1283.153488
4.7200,80.28367219,102.5503503,1282.883397
4.7250,80.60117155,102.3679484,1282.613655
4.7300,80.91891649,102.1844324,1282.343924
4.7350,81.23719038,102.0003467,1282.074478
4.7400,81.55685637,101.8158005,1281.804961
4.7450,81.87779743,101.6310098,1281.535564
4.7500,82.20028021,101.4460064,1281.266192
4.7550,82.52439307,101.2596772,1280.996217
4.7600,82.85040491,101.0720845,1280.725559
4.7650,83.1776794,100.8824983,1280.454088
4.7700,83.50639952,100.6930434,1280.182907
4.7750,83.83671877,100.5028411,1279.911454
4.7800,84.16843932,100.313079,1279.640402
4.7850,84.50130844,100.1224498,1279.369181
4.7900,84.83424578,99.93127244,1279.098381
4.7950,85.16815006,99.74043118,1278.828026
4.8000,85.50376602,99.54969007,1278.557743
4.8050,85.84141603,99.35921788,1278.287401
4.8100,86.18121767,99.16886406,1278.016958
4.8150,86.52273132,98.97760236,1277.746025
4.8200,86.86533557,98.78494473,1277.474624
4.8250,87.20974772,98.59115714,1277.202514
4.8300,87.55547335,98.3962451,1276.930001
4.8350,87.90293686,98.19985846,1276.656652
4.8400,88.25153636,98.00275782,1276.383212
4.8450,88.60359904,97.80585771,1276.109089
4.8500,88.95835387,97.60911724,1275.834669
4.8550,89.31618515,97.41315437,1275.560144
4.8600,89.67712451,97.21760355,1275.285254
4.8650,90.04154543,97.02360452,1275.010466
4.8700,90.40997498,96.83078813,1274.735309
4.8750,90.78267656,96.6387064,1274.459542
4.8800,91.16011263,96.44813102,1274.183345
4.8850,91.54200892,96.25957192,1273.90719
4.8900,91.92910728,96.07027193,1273.629387
4.8950,92.32079486,95.88201252,1273.351186
4.9000,92.71755458,95.69368474,1273.071877
4.9050,93.11910992,95.50545605,1272.791714
4.9100,93.52533216,95.31486706,1272.509527
4.9150,93.93679008,95.12327427,1272.225906
4.9200,94.3540611,94.93042528,1271.940372
4.9250,94.77586416,94.73564569,1271.653327
4.9300,95.20085198,94.53850392,1271.365055
4.9350,95.63052473,94.33927085,1271.075029
4.9400,96.06440932,94.13830193,1270.783749
4.9450,96.50197942,93.93508381,1270.491131
4.9500,96.94344251,93.72977568,1270.197182
4.9550,97.38848855,93.52116294,1269.901526
4.9600,97.83707597,93.30884533,1269.603846
4.9650,98.28747741,93.09162284,1269.304359
4.9700,98.7396408,92.86877059,1269.002675
4.9750,99.19459346,92.64128885,1268.698997
4.9800,99.65156438,92.40952669,1268.393897
4.9850,100.1119286,92.17406749,1268.087094
4.9900,100.5768881,91.93506977,1267.778282
4.9950,101.0465599,91.69167367,1267.467101
5.0000,101.5210044,91.44417176,1267.153596
5.0050,102.0003083,91.19314951,1266.838112
5.0100,102.4842194,90.93696052,1266.519985
5.0150,102.9737622,90.67638695,1266.199213
5.0200,103.4680119,90.4108147,1265.875928
5.0250,103.9673884,90.14026023,1265.550074
5.0300,104.4716588,89.8643105,1265.221704
5.0350,104.9790872,89.58267127,1264.891433
5.0400,105.490341,89.29554905,1264.559102
5.0450,106.0050976,89.00284006,1264.224828
5.0500,106.5237135,88.70361752,1263.887961
5.0550,107.0475008,88.39804868,1263.548209
5.0600,107.575863,88.08591682,1263.205711
5.0650,108.1089749,87.76835153,1262.861068
5.0700,108.6467126,87.4442976,1262.513927
5.0750,109.187898,87.11437754,1262.165005
5.0800,109.7339438,86.77800427,1261.81355
5.0850,110.2838148,86.43499379,1261.459892
5.0900,110.8383669,86.08636428,1261.104274
5.0950,111.3949898,85.73041422,1260.746843
5.1000,111.9542007,85.3695945,1260.38863
5.1050,112.5151179,85.00278477,1260.029479
5.1100,113.0799099,84.63220691,1259.669635
5.1150,113.6471017,84.25865485,1259.310138
5.1200,114.2180126,83.88253727,1258.9507
5.1250,114.7932696,83.50427144,1258.591417
5.1300,115.3717828,83.12288875,1258.232261
5.1350,115.953238,82.73846915,1257.873393
5.1400,116.5377329,82.35121288,1257.5149
5.1450,117.1227657,81.96041785,1257.157298
5.1500,117.7098918,81.56563301,1256.799812
5.1550,118.2990265,81.16742763,1256.442766
5.1600,118.8895123,80.76674375,1256.086849
5.1650,119.4802405,80.36275097,1255.732083
5.1700,120.0717487,79.95594196,1255.378491
5.1750,120.6636418,79.54589814,1255.025981
5.1800,121.2564178,79.13353697,1254.674857
5.1850,121.8507409,78.71943573,1254.325097
5.1900,122.4470958,78.30526873,1253.977247
5.1950,123.0456755,77.89028639,1253.630885
5.2000,123.6458761,77.47493276,1253.286321
5.2050,124.2492483,77.05936592,1252.943086
5.2100,124.8550636,76.64494085,1252.602043
5.2150,125.4635157,76.23079724,1252.262711
5.2200,126.0724039,75.81617465,1251.925656
5.2250,126.6834581,75.40115253,1251.590254
5.2300,127.2956436,74.98578891,1251.256978
5.2350,127.9085347,74.56886918,1250.925563
5.2400,128.5222242,74.1493846,1250.595577
5.2450,129.1366377,73.72699485,1250.26706
5.2500,129.7529664,73.3013915,1249.939573
5.2550,130.3715506,72.87253854,1249.612972
5.2600,130.9915726,72.44089163,1249.287857
5.2650,131.6141251,72.00627802,1248.963788
5.2700,132.2392635,71.56858247,1248.640738
5.2750,132.8665415,71.12708774,1248.318528
5.2800,133.4961656,70.68141324,1247.996874
5.2850,134.1278788,70.23095031,1247.675521
5.2900,134.7623689,69.77497562,1247.35395
5.2950,135.3986769,69.31442757,1247.03281
5.3000,136.0387245,68.84908019,1246.711597
5.3050,136.6815068,68.37746962,1246.389975
5.3100,137.3282073,67.90142557,1246.068458
5.3150,137.9787414,67.41917203,1245.746434
5.3200,138.6340987,66.93090303,1245.423719
5.3250,139.2942742,66.43627304,1245.100238
5.3300,139.9590598,65.9345585,1244.775678
5.3350,140.628467,65.42556861,1244.449976
5.3400,141.3006297,64.90812137,1244.123369
5.3450,141.9750783,64.3826279,1243.796145
5.3500,142.6504932,63.84966852,1243.469146
5.3550,143.3241154,63.31092577,1243.143773
5.3600,143.9938393,62.76604196,1242.820462
5.3650,144.6600408,62.21651585,1242.499647
5.3700,145.3229074,61.66279812,1242.18134
5.3750,145.9813083,61.10604144,1241.866298
5.3800,146.6340955,60.5472604,1241.555193
5.3850,147.2812803,59.98873983,1241.248794
5.3900,147.9217809,59.4313797,1240.9476
5.3950,148.555908,58.87631342,1240.651803
5.4000,149.182608,58.32356942,1240.361537
5.4050,149.8014529,57.77525419,1240.077409
5.4100,150.4115093,57.23133576,1239.799426
5.4150,151.0137383,56.6929848,1239.527533
5.4200,151.6072794,56.16180107,1239.262409
5.4250,152.1907475,55.63928192,1239.004681
5.4300,152.764676,55.12757854,1238.754743
5.4350,153.3294115,54.62827171,1238.512962
5.4400,153.8855192,54.1422023,1238.279217
5.4450,154.4333991,53.66967926,1238.053443
5.4500,154.9734749,53.21199196,1237.835857
5.4550,155.5051496,52.76945739,1237.626625
5.4600,156.0291123,52.34202525,1237.425587
5.4650,156.5454032,51.92897079,1237.232511
5.4700,157.053242,51.52983079,1237.04751
5.4750,157.5514694,51.14403498,1236.870617
5.4800,158.0395374,50.77044939,1236.701615
5.4850,158.5168152,50.40795855,1236.540246
5.4900,158.9826163,50.05561951,1236.386351
5.4950,159.4367984,49.71212923,1236.239587
5.5000,159.8793757,49.37702012,1236.099724
5.5050,160.3095137,49.05029583,1235.966903
5.5100,160.7266434,48.73037601,1235.840657
5.5150,161.1307902,48.41683854,1235.72076
5.5200,161.5247071,48.11057271,1235.606667
5.5250,161.9072476,47.81056466,1235.498237
5.5300,162.2802473,47.51631013,1235.394806
5.5350,162.6438727,47.22820618,1235.296279
5.5400,162.9989196,46.94671649,1235.202586
5.5450,163.3458494,46.67076341,1235.113142
5.5500,163.6837203,46.39872693,1235.027604
5.5550,164.0140371,46.13031959,1234.945652
5.5600,164.3370912,45.86258135,1234.866204
5.5650,164.6535544,45.59615189,1234.789384
5.5700,164.964519,45.33088083,1234.714999
5.5750,165.2704348,45.06624283,1234.642815
5.5800,165.5716778,44.80078734,1234.572418
5.5850,165.869105,44.53461346,1234.503746
5.5900,166.1619418,44.26702118,1234.436728
5.5950,166.451688,43.99647212,1234.370622
5.6000,166.7377696,43.72277813,1234.305456
5.6050,167.0217859,43.44490957,1234.240651
5.6100,167.3032592,43.16221657,1234.176018
5.6150,167.582276,42.87432144,1234.111553
5.6200,167.8571964,42.57991856,1234.047222
5.6250,168.1290401,42.2781616,1233.982553
5.6300,168.3964833,41.96899068,1233.917861
5.6350,168.6610467,41.6510686,1233.852523
5.6400,168.9219619,41.32576886,1233.786997
5.6450,169.1799201,40.99304351,1233.721149
5.6500,169.4365883,40.65278466,1233.654397
5.6550,169.6915415,40.30518348,1233.586745
5.6600,169.9459473,39.95057298,1233.517994
5.6650,170.1999399,39.5888994,1233.44802
5.6700,170.4530975,39.22088331,1233.377134
5.6750,170.7052432,38.84745268,1233.305439
5.6800,170.95731,38.46876316,1233.232802
5.6850,171.2084426,38.08622163,1233.159769
5.6900,171.4596326,37.69969751,1233.086051
5.6950,171.7125665,37.31218461,1233.012199
5.7000,171.9662621,36.92386157,1232.938528
5.7050,172.2217878,36.53537692,1232.865024
5.7100,172.478599,36.14872532,1232.792408
5.7150,172.7369681,35.76462048,1232.72075
5.7200,172.9962124,35.38405044,1232.65046
5.7250,173.2571113,35.00773005,1232.5816
5.7300,173.5203033,34.63790903,1232.514601
5.7350,173.7854967,34.27505944,1232.449626
5.7400,174.0517502,33.91952614,1232.386897
5.7450,174.3187657,33.57117927,1232.326437
5.7500,174.5862658,33.23177216,1232.268812
5.7550,174.8539729,32.90090355,1232.213968
5.7600,175.1214704,32.57880143,1232.161997
5.7650,175.3897116,32.26754599,1232.113309
5.7700,175.6582154,31.96664061,1232.067832
5.7750,175.9277857,31.67754893,1232.025813
5.7800,176.1985286,31.40014229,1231.987239
5.7850,176.4701016,31.13384921,1231.952103
5.7900,176.7421764,30.87963289,1231.920686
5.7950,177.0134727,30.63741545,1231.893127
5.8000,177.2842208,30.40709862,1231.869298
5.8050,177.5532951,30.18797227,1231.849171
5.8100,177.822082,29.98144899,1231.832761
5.8150,178.0902651,29.7870823,1231.820077
5.8200,178.3563916,29.60309028,1231.810872
5.8250,178.6211656,29.43058111,1231.805248
5.8300,178.8851935,29.2684482,1231.802792
5.8350,179.1470087,29.11606206,1231.803732
5.8400,179.4059921,28.97096653,1231.807579
5.8450,179.6614881,28.8324961,1231.814477
5.8500,179.9131907,28.6996778,1231.824222
5.8550,180.1587129,28.57059013,1231.836807
5.8600,180.3984424,28.44622963,1231.852455
5.8650,180.6322831,28.32405065,1231.870569
5.8700,180.8588119,28.20181394,1231.890719
5.8750,181.0785393,28.079789,1231.912796
5.8800,181.2921039,27.95659232,1231.936315
5.8850,181.4996501,27.83129556,1231.960931
5.8900,181.7010555,27.70360103,1231.986667
5.8950,181.8960753,27.57219485,1232.013122
5.9000,182.0842027,27.43629282,1232.040282
5.9050,182.2635219,27.29594114,1232.068454
5.9100,182.4346217,27.14973441,1232.097207
5.9150,182.5973669,26.99827723,1232.126553
5.9200,182.7533374,26.84093407,1232.15606
5.9250,182.9012519,26.67674741,1232.185676
5.9300,183.0423542,26.50629285,1232.215265
5.9350,183.1752117,26.32902071,1232.244821
5.9400,183.301755,26.14428789,1232.273744
5.9450,183.4224396,25.95139218,1232.301695
5.9500,183.5365631,25.75151408,1232.329219
5.9550,183.6443986,25.54396821,1232.356192
5.9600,183.7464952,25.33014011,1232.382925
5.9650,183.8420123,25.11014034,1232.409571
5.9700,183.9307751,24.88374154,1232.436059
5.9750,184.0130324,24.65128934,1232.462576
5.9800,184.0881546,24.41398674,1232.489386
5.9850,184.1574064,24.17192115,1232.516344
5.9900,184.2198241,23.92571375,1232.543826
5.9950,184.2753874,23.67488754,1232.571663
6.0000,184.3249579,23.4207179,1232.599866
6.0050,184.3683452,23.164753,1232.62904
6.0100,184.4047205,22.90564773,1232.658961
6.0150,184.434316,22.6452418,1232.690129
6.0200,184.4570423,22.38443636,1232.722603
6.0250,184.4733949,22.12453011,1232.756673
6.0300,184.4830217,21.86471023,1232.792196
6.0350,184.4866462,21.6058738,1232.82923
6.0400,184.4832603,21.34842361,1232.868059
6.0450,184.4731409,21.09433324,1232.909081
6.0500,184.4560836,20.84200458,1232.951832
6.0550,184.4323024,20.59373224,1232.996755
6.0600,184.4022302,20.34920379,1233.043674
6.0650,184.3660293,20.10863017,1233.092475
6.0700,184.3243952,19.87220489,1233.143065
6.0750,184.2780595,19.64069404,1233.195462
6.0800,184.2271909,19.41533851,1233.249742
6.0850,184.171858,19.19715434,1233.306122
6.0900,184.1132232,18.98562833,1233.364292
6.0950,184.0528817,18.78175448,1233.424081
6.1000,183.9907739,18.58675558,1233.485874
6.1050,183.9286464,18.40100533,1233.549417
6.1100,183.8653378,18.22287681,1233.614549
6.1150,183.8008074,18.05390402,1233.681595
6.1200,183.7357823,17.89299982,1233.750288
6.1250,183.6696425,17.73876439,1233.820496
6.1300,183.6016148,17.59175439,1233.892544
6.1350,183.5314825,17.45149441,1233.966431
6.1400,183.4596348,17.31796499,1234.042127
6.1450,183.3856763,17.19112007,1234.119723
6.1500,183.3099513,17.07031679,1234.199107
6.1550,183.2331796,16.95574819,1234.280033
6.1600,183.1558296,16.84647251,1234.362196
6.1650,183.0778462,16.74163597,1234.445274
6.1700,182.9997211,16.64242901,1234.529401
6.1750,182.9218208,16.54661884,1234.614123
6.1800,182.8442562,16.4550885,1234.699535
6.1850,182.7668696,16.36679604,1234.785415
6.1900,182.6898141,16.28225583,1234.871892
6.1950,182.6133397,16.20107698,1234.958847
6.2000,182.5387267,16.12406054,1235.046099
6.2050,182.4673515,16.05045426,1235.1332
6.2100,182.3986347,15.98087943,1235.220405
6.2150,182.3333994,15.9144898,1235.307423
6.2200,182.2721758,15.85190339,1235.394271
6.2250,182.2152826,15.79377025,1235.481028
6.2300,182.1636242,15.7392683,1235.567374
6.2350,182.1182372,15.68899362,1235.653147
6.2400,182.0795743,15.64200398,1235.73817
6.2450,182.0462885,15.5990977,1235.823021
6.2500,182.0177033,15.5595445,1235.907632
6.2550,181.9945708,15.52340319,1235.99192
6.2600,181.9766344,15.48952966,1236.075674
6.2650,181.9637394,15.45789082,1236.158982
6.2700,181.9547961,15.42819422,1236.242218
6.2750,181.9504099,15.39901535,1236.324816
6.2800,181.9502243,15.36964954,1236.406937
6.2850,181.9538541,15.33995385,1236.488536
6.2900,181.9624364,15.30953942,1236.569351
6.2950,181.9741904,15.27758889,1236.649563
6.3000,181.9898742,15.24355382,1236.72909
6.3050,182.0093355,15.20703048,1236.807593
6.3100,182.0336119,15.16967853,1236.885214
6.3150,182.0626762,15.13008782,1236.961517
6.3200,182.0977113,15.08899937,1237.036436
6.3250,182.1384124,15.0460044,1237.109834
6.3300,182.1855483,15.00192224,1237.181671
6.3350,182.2387838,14.95670831,1237.251994
6.3400,182.2997553,14.91063593,1237.320527
6.3450,182.3684458,14.86408985,1237.38735
6.3500,182.4435588,14.81675635,1237.452694
6.3550,182.5255987,14.76649487,1237.516061
6.3600,182.6141412,14.7139116,1237.577669
6.3650,182.7072537,14.6575704,1237.637606
6.3700,182.8047241,14.59862682,1237.696115
6.3750,182.9056167,14.5346693,1237.752893
6.3800,183.0091213,14.46489014,1237.80802
6.3850,183.1150168,14.38907371,1237.861381
6.3900,183.2209424,14.3072858,1237.913439
6.3950,183.3262222,14.21830817,1237.964096
6.4000,183.4305734,14.12199415,1238.013378
6.4050,183.5327973,14.01816974,1238.061386
6.4100,183.6330686,13.90671602,1238.108116
6.4150,183.7310417,13.78709056,1238.153406
6.4200,183.8256926,13.66019252,1238.197676
6.4250,183.9172068,13.52560708,1238.240822
6.4300,184.0046604,13.38323043,1238.282873
6.4350,184.0890677,13.23275913,1238.323551
6.4400,184.1699389,13.07476145,1238.362964
6.4450,184.2480387,12.90890987,1238.400841
6.4500,184.3240675,12.73547168,1238.437007
6.4550,184.3983361,12.55456281,1238.471418
6.4600,184.470653,12.36630968,1238.504213
6.4650,184.5409377,12.17181252,1238.535612
6.4700,184.6097643,11.96992786,1238.56534
6.4750,184.6772604,11.76217734,1238.593564
6.4800,184.7431217,11.54821136,1238.620393
6.4850,184.8063621,11.32794819,1238.64594
6.4900,184.8679955,11.10001864,1238.669724
6.4950,184.9273445,10.86537275,1238.691959
6.5000,184.9838007,10.62335704,1238.712644
6.5050,185.0368538,10.37445913,1238.731982
6.5100,185.0882089,10.11777924,1238.749429
6.5150,185.1370236,9.853700176,1238.765094
6.5200,185.1836883,9.58226772,1238.779002
6.5250,185.2278703,9.303420262,1238.791204
6.5300,185.2689695,9.018605709,1238.802087
6.5350,185.3072696,8.727763497,1238.811661
6.5400,185.3419713,8.431806755,1238.820185
6.5450,185.3741803,8.130401673,1238.827315
6.5500,185.4050197,7.82367338,1238.83287
6.5550,185.4337254,7.512493976,1238.837148
6.5600,185.4605257,7.196442979,1238.840088
6.5650,185.4863632,6.875519402,1238.84163
6.5700,185.5125848,6.549836793,1238.841503
6.5750,185.537156,6.218547107,1238.840095
6.5800,185.5607698,5.882609184,1238.837383
6.5850,185.5822461,5.541249982,1238.833588
6.5900,185.5999702,5.194628132,1238.828959
6.5950,185.6148248,4.843698492,1238.823702
6.6000,185.6260955,4.488320532,1238.817853
6.6050,185.6337387,4.128431928,1238.811517
6.6100,185.6365427,3.763912167,1238.804936
6.6150,185.6351061,3.396356693,1238.798332
6.6200,185.6291668,3.025897468,1238.791779
6.6250,185.6184207,2.653292152,1238.785418
6.6300,185.6031457,2.27916574,1238.779429
6.6350,185.5833185,1.903875799,1238.773854
6.6400,185.5578189,1.528091311,1238.76909
6.6450,185.5280381,1.151328843,1238.76474
6.6500,185.4948642,0.7750209494,1238.760885
6.6550,185.4580281,0.3995458302,1238.757688
6.6600,185.418145,0.02526823196,1238.755089
6.6650,185.3763086,-0.3469616285,1238.752978
6.6700,185.3333824,-0.7172334862,1238.751257
6.6750,185.28865,-1.083897113,1238.750415
6.6800,185.2435527,-1.447149712,1238.750072
6.6850,185.1981218,-1.806737401,1238.750375
6.6900,185.1528778,-2.162437785,1238.751314
6.6950,185.1068948,-2.513192299,1238.753274
6.7000,185.0591017,-2.859410341,1238.756506
6.7050,185.0093197,-3.200894301,1238.761143
6.7100,184.9570229,-3.535845212,1238.767564
6.7150,184.9031109,-3.865401924,1238.775589
6.7200,184.84684,-4.189700775,1238.785343
6.7250,184.78841,-4.506315379,1238.797154
6.7300,184.7278029,-4.816281033,1238.811011
6.7350,184.6649389,-5.118654266,1238.827098
6.7400,184.5993582,-5.414460905,1238.845356
6.7450,184.5307128,-5.702864503,1238.865981
6.7500,184.4587201,-5.983074833,1238.889196
6.7550,184.3840414,-6.255698261,1238.914732
6.7600,184.3068143,-6.520493076,1238.942583
6.7650,184.2275641,-6.777751329,1238.972624
6.7700,184.1466127,-7.026563737,1239.004867
6.7750,184.0638688,-7.267950565,1239.039151
6.7800,183.979639,-7.502212512,1239.075246
6.7850,183.8951925,-7.729508434,1239.112945
6.7900,183.8094443,-7.950379435,1239.152381
6.7950,183.7228015,-8.165796383,1239.193312
6.8000,183.6354742,-8.376296543,1239.235623
6.8050,183.5470873,-8.58248885,1239.279243
6.8100,183.4574155,-8.784592673,1239.324088
6.8150,183.3661548,-8.984350472,1239.36996
6.8200,183.2725936,-9.180683276,1239.417127
6.8250,183.1773314,-9.37528018,1239.465093
6.8300,183.0797183,-9.568591567,1239.513889
6.8350,182.9793474,-9.761905871,1239.563314
6.8400,182.8765147,-9.956035881,1239.613155
6.8450,182.7706639,-10.15142544,1239.66336
6.8500,182.6611481,-10.34896811,1239.713934
6.8550,182.549932,-10.55130119,1239.763996
6.8600,182.4369638,-10.75781068,1239.81353
6.8650,182.3226942,-10.96988696,1239.862169
6.8700,182.2064853,-11.18881552,1239.909714
6.8750,182.0906409,-11.41360165,1239.955778
6.8800,181.9750427,-11.64646244,1240.000007
6.8850,181.8595648,-11.88741034,1240.042429
6.8900,181.7451988,-12.13675341,1240.082779
6.8950,181.6312381,-12.39483826,1240.121065
6.9000,181.5178078,-12.66320756,1240.157035
6.9050,181.4041192,-12.94040396,1240.190982
6.9100,181.2932119,-13.22636097,1240.222186
6.9150,181.1833718,-13.52083623,1240.251077
6.9200,181.0749846,-13.82426581,1240.277493
6.9250,180.9690961,-14.1359821,1240.301343
6.9300,180.8649226,-14.45472708,1240.322871
6.9350,180.7637116,-14.77913499,1240.341973
6.9400,180.667238,-15.10870006,1240.358291
6.9450,180.5747179,-15.44262051,1240.37217
6.9500,180.4873841,-15.77946342,1240.383508
6.9550,180.405808,-16.11798547,1240.392301
6.9600,180.3305771,-16.45785623,1240.398461
6.9650,180.2634637,-16.79788553,1240.401845
6.9700,180.2033737,-17.13778553,1240.402756
6.9750,180.153278,-17.47688769,1240.400549
6.9800,180.112571,-17.81453498,1240.39558
6.9850,180.0816758,-18.1505616,1240.387773
6.9900,180.0613933,-18.4853417,1240.376953
6.9950,180.0519816,-18.81827579,1240.363302
7.0000,180.0547419,-19.14964365,1240.346406
7.0050,180.0685277,-19.47955674,1240.326679
7.0100,180.0927792,-19.80843157,1240.304313
7.0150,180.1262608,-20.1352032,1240.279716
7.0200,180.168698,-20.45970797,1240.253053
7.0250,180.2183573,-20.78332747,1240.224662
7.0300,180.274516,-21.10381189,1240.195015
7.0350,180.3367136,-21.42130989,1240.16419
7.0400,180.4036762,-21.73414844,1240.132791
7.0450,180.4754303,-22.0424169,1240.100867
7.0500,180.5506933,-22.34579221,1240.06879
7.0550,180.6283969,-22.6430648,1240.037052
7.0600,180.7074685,-22.93348301,1240.005944
7.0650,180.7881153,-23.21579507,1239.975573
7.0700,180.8694333,-23.48978802,1239.946129
7.0750,180.9517938,-23.75479894,1239.917611
7.0800,181.0340551,-24.01082683,1239.890285
7.0850,181.1166122,-24.25783246,1239.863983
7.0900,181.2003873,-24.49480122,1239.838558
7.0950,181.2859271,-24.72184574,1239.813886
7.1000,181.3722894,-24.93919374,1239.790052
7.1050,181.4614645,-25.14694665,1239.766535
7.1100,181.5511597,-25.34656852,1239.743633
7.1150,181.6430015,-25.53668966,1239.721127
7.1200,181.7361276,-25.71965816,1239.698817
7.1250,181.8309871,-25.89575542,1239.676569
7.1300,181.9280733,-26.06576849,1239.654156
7.1350,182.0266386,-26.22897535,1239.631713
7.1400,182.1259655,-26.3865953,1239.609214
7.1450,182.2264261,-26.53926332,1239.586512
7.1500,182.3279732,-26.68612368,1239.563625
7.1550,182.4299159,-26.82727066,1239.540723
7.1600,182.5309156,-26.96337199,1239.51799
7.1650,182.6310312,-27.09429049,1239.495364
7.1700,182.7303639,-27.21905119,1239.472868
7.1750,182.8270308,-27.33776167,1239.450773
7.1800,182.9219203,-27.45128413,1239.428825
7.1850,183.0146776,-27.55865851,1239.407053
7.1900,183.1064469,-27.66081483,1239.385125
7.1950,183.1979808,-27.7582627,1239.362832
7.2000,183.2895128,-27.84958421,1239.340123
7.2050,183.3818976,-27.93631657,1239.31669
7.2100,183.4742306,-28.01827246,1239.292717
7.2150,183.5670089,-28.09562551,1239.267933
7.2200,183.6608605,-28.16860287,1239.242067
7.2250,183.7567347,-28.23738634,1239.214904
7.2300,183.8555193,-28.30231122,1239.186128
7.2350,183.9577261,-28.36461218,1239.155454
7.2400,184.0634894,-28.42464368,1239.122786
7.2450,184.1735684,-28.48275344,1239.087809
7.2500,184.2886508,-28.53978694,1239.050264
7.2550,184.4096563,-28.59555313,1239.009958
7.2600,184.5358075,-28.65056787,1238.967048
7.2650,184.6675388,-28.70662845,1238.921218
7.2700,184.8055438,-28.76300425,1238.872297
7.2750,184.9490758,-28.82155505,1238.820326
7.2800,185.0981832,-28.88205372,1238.765316
7.2850,185.2521952,-28.9447672,1238.707367
7.2900,185.4110642,-29.00843282,1238.64663
7.2950,185.5744628,-29.07369704,1238.583051
7.3000,185.7421732,-29.14072543,1238.51686
7.3050,185.9132692,-29.20909581,1238.448186
7.3100,186.087728,-29.27928692,1238.37703
7.3150,186.264622,-29.35128706,1238.303656
7.3200,186.4434798,-29.42403522,1238.228229
7.3250,186.6231735,-29.49788987,1238.151058
7.3300,186.8027724,-29.57267452,1238.07229
7.3350,186.9811868,-29.64866883,1237.992175
7.3400,187.1588091,-29.72502574,1237.910766
7.3450,187.3347262,-29.80243242,1237.828141
7.3500,187.5068796,-29.87967918,1237.744758
7.3550,187.676626,-29.95626217,1237.660424
7.3600,187.8430359,-30.03186198,1237.575383
7.3650,188.0060491,-30.10703426,1237.48953
7.3700,188.1647343,-30.18101447,1237.403192
7.3750,188.3190826,-30.25394326,1237.316346
7.3800,188.4687019,-30.32554046,1237.229077
7.3850,188.6135855,-30.39445217,1237.141506
7.3900,188.753367,-30.46140155,1237.053668
7.3950,188.8870404,-30.52564695,1236.965868
7.4000,189.0148437,-30.58738626,1236.87802
7.4050,189.1354938,-30.64642128,1236.790431
7.4100,189.2500466,-30.70233909,1236.702961
7.4150,189.356898,-30.7549775,1236.615935
7.4200,189.4561863,-30.80350045,1236.529509
7.4250,189.5467367,-30.84619959,1236.443953
7.4300,189.6279345,-30.88480676,1236.359391
7.4350,189.7002822,-30.91861166,1236.275893
7.4400,189.7637632,-30.94645369,1236.193551
7.4450,189.818482,-30.9681459,1236.112326
7.4500,189.8639279,-30.98511019,1236.03222
7.4550,189.9007331,-30.99624905,1235.953211
7.4600,189.929045,-31.00054741,1235.875387
7.4650,189.949204,-30.99950132,1235.798597
7.4700,189.9615675,-30.99216746,1235.722809
7.4750,189.9666494,-30.98012015,1235.647963
7.4800,189.9649123,-30.96198885,1235.574045
7.4850,189.9580625,-30.93931369,1235.500534
7.4900,189.9447636,-30.91191694,1235.427745
7.4950,189.9266735,-30.87986597,1235.355303
7.5000,189.9049966,-30.84230823,1235.283002
7.5050,189.8803884,-30.80041127,1235.2107
7.5100,189.8528362,-30.75337811,1235.138422
7.5150,189.8244811,-30.70180092,1235.065757
7.5200,189.7952395,-30.64589767,1234.992809
7.5250,189.7646104,-30.58593123,1234.919561
7.5300,189.734504,-30.52245246,1234.84572
7.5350,189.7042429,-30.45523562,1234.771482
7.5400,189.6745767,-30.38446935,1234.696741
7.5450,189.6457666,-30.31080165,1234.621327
7.5500,189.6189625,-30.23389342,1234.54519
7.5550,189.5929982,-30.15552838,1234.468373
7.5600,189.5707633,-30.07461975,1234.390442
7.5650,189.5498646,-29.99111785,1234.311866
7.5700,189.5319451,-29.90663737,1234.232345
7.5750,189.516423,-29.82001008,1234.152149
7.5800,189.5030314,-29.73304463,1234.071125
7.5850,189.4932818,-29.6454009,1233.989135
7.5900,189.4866569,-29.55837097,1233.906107
7.5950,189.4830729,-29.47220664,1233.822184
7.6000,189.4824381,-29.38614495,1233.737319
7.6050,189.4847121,-29.30090918,1233.651669
7.6100,189.4907364,-29.2160326,1233.565036
7.6150,189.5004953,-29.13214328,1233.477448
7.6200,189.5138157,-29.04923093,1233.388936
7.6250,189.5301721,-28.96632942,1233.299629
7.6300,189.5505016,-28.88525335,1233.209302
7.6350,189.5743104,-28.80442872,1233.118236
7.6400,189.6024248,-28.72454223,1233.026179
7.6450,189.6332594,-28.64410233,1232.933671
7.6500,189.6682146,-28.56473841,1232.840371
7.6550,189.7053335,-28.48602644,1232.746679
7.6600,189.7456034,-28.40772249,1232.652389
7.6650,189.7877318,-28.32930956,1232.557925
7.6700,189.8328181,-28.25258681,1232.462907
7.6750,189.8792297,-28.17566121,1232.367848
7.6800,189.9282569,-28.098779,1232.272475
7.6850,189.9780248,-28.02266503,1232.177196
7.6900,190.0294054,-27.94663809,1232.08175
7.6950,190.0818698,-27.87115353,1231.986201
7.7000,190.1357334,-27.79607833,1231.890526
7.7050,190.1908141,-27.72175764,1231.794736
7.7100,190.2463451,-27.64659652,1231.699194
7.7150,190.3025522,-27.57129055,1231.603709
7.7200,190.3597531,-27.49557106,1231.50829
7.7250,190.4167567,-27.41930877,1231.413221
7.7300,190.4731074,-27.34217589,1231.318464
7.7350,190.5286636,-27.26392188,1231.224071
7.7400,190.583628,-27.18480116,1231.130023
7.7450,190.6361236,-27.10480536,1231.036675
7.7500,190.6864257,-27.02331033,1230.943998
7.7550,190.7331272,-26.93991563,1230.852345
7.7600,190.7776218,-26.85602792,1230.76127
7.7650,190.8178975,-26.77042771,1230.671194
7.7700,190.8537513,-26.68383179,1230.582105
7.7750,190.8849211,-26.59600904,1230.494058
7.7800,190.9111582,-26.50672067,1230.407048
7.7850,190.9312956,-26.41638659,1230.321321
7.7900,190.9470555,-26.32404747,1230.236579
7.7950,190.9578687,-26.22953435,1230.15291
7.8000,190.9617806,-26.13483173,1230.070507
7.8050,190.9602562,-26.03849787,1229.989179
7.8100,190.9534473,-25.94217965,1229.908702
7.8150,190.9403924,-25.84515841,1229.829335
7.8200,190.9221601,-25.74690292,1229.750825
7.8250,190.9001503,-25.64885679,1229.672819
7.8300,190.8726205,-25.54970418,1229.595702
7.8350,190.8418568,-25.45015885,1229.518931
7.8400,190.8071152,-25.35028602,1229.442628
7.8450,190.7696079,-25.24883515,1229.366864
7.8500,190.7279003,-25.14677387,1229.291717
7.8550,190.6829641,-25.04285718,1229.217164
7.8600,190.6329594,-24.93864279,1229.143382
7.8650,190.5800444,-24.83259335,1229.070211
7.8700,190.5218354,-24.72431546,1228.997962
7.8750,190.4608081,-24.61374042,1228.926352
7.8800,190.3968644,-24.49957401,1228.855412
7.8850,190.3286579,-24.38271394,1228.785349
7.8900,190.2567317,-24.26326509,1228.71617
7.8950,190.1809412,-24.14041296,1228.647799
7.9000,190.1013925,-24.01475029,1228.580214
7.9050,190.0197571,-23.88517676,1228.513256
7.9100,189.9346213,-23.75307848,1228.446984
7.9150,189.8474043,-23.61584342,1228.381389
7.9200,189.7584303,-23.475235,1228.316245
7.9250,189.6689079,-23.33030657,1228.251463
7.9300,189.5790647,-23.18042643,1228.187036
7.9350,189.4899578,-23.02685352,1228.122628
7.9400,189.401996,-22.86853051,1228.058223
7.9450,189.3157355,-22.70648823,1227.993572
7.9500,189.232231,-22.53933165,1227.9287
7.9550,189.151993,-22.36822515,1227.86334
7.9600,189.0753465,-22.19299357,1227.797488
7.9650,189.0033538,-22.01444188,1227.730876
7.9700,188.9363494,-21.83151837,1227.663511
7.9750,188.8751038,-21.64662074,1227.595061
7.9800,188.8198419,-21.45929897,1227.525584
7.9850,188.7709271,-21.26996764,1227.454919
7.9900,188.7276504,-21.07989119,1227.383255
7.9950,188.6901842,-20.88951578,1227.310516
8.0000,188.6582671,-20.69933537,1227.236771
8.0050,188.6318299,-20.50885334,1227.162087
8.0100,188.6111355,-20.31890041,1227.086244
8.0150,188.5951387,-20.13004937,1227.009417
8.0200,188.5831495,-19.94270933,1226.931708
8.0250,188.5759523,-19.75799676,1226.852852
8.0300,188.5730736,-19.5757254,1226.772979
8.0350,188.5741283,-19.3955084,1226.692156
8.0400,188.5785949,-19.21798166,1226.61047
8.0450,188.5868477,-19.0430546,1226.52779
8.0500,188.5988179,-18.87065644,1226.444165
8.0550,188.6148453,-18.70107793,1226.359469
8.0600,188.6336608,-18.53385264,1226.274096
8.0650,188.6568138,-18.36809878,1226.187858
8.0700,188.6827073,-18.20482237,1226.100937
8.0750,188.7125203,-18.04252485,1226.013225
8.0800,188.7449904,-17.88111036,1225.92506
8.0850,188.7805719,-17.72074553,1225.836428
8.0900,188.8185798,-17.5617031,1225.747419
8.0950,188.8579572,-17.40434953,1225.658098
8.1000,188.9000811,-17.24819652,1225.568349
8.1050,188.9439124,-17.09415906,1225.478307
8.1100,188.9893138,-16.94154561,1225.388046
8.1150,189.0355039,-16.79071742,1225.297597
8.1200,189.0828107,-16.64144885,1225.206962
8.1250,189.1293844,-16.49336825,1225.116523
8.1300,189.1765678,-16.34663762,1225.025938
8.1350,189.2215747,-16.20111352,1224.935652
8.1400,189.2652348,-16.05549643,1224.845667
8.1450,189.3069921,-15.91037072,1224.755991
8.1500,189.3465361,-15.76576368,1224.666489
8.1550,189.3839547,-15.62068615,1224.577347
8.1600,189.4183552,-15.47529273,1224.48861
8.1650,189.4497257,-15.33072625,1224.400229
8.1700,189.4782215,-15.18700934,1224.312138
8.1750,189.5019342,-15.04395039,1224.224615
8.1800,189.5209305,-14.90221838,1224.137683
8.1850,189.5353023,-14.76125602,1224.051341
8.1900,189.546021,-14.61998873,1223.965493
8.1950,189.5531168,-14.47948362,1223.880058
8.2000,189.5556892,-14.33897642,1223.795262
8.2050,189.5537648,-14.19946518,1223.710822
8.2100,189.5474955,-14.05958638,1223.627061
8.2150,189.5357164,-13.92111129,1223.543774
8.2200,189.5192169,-13.78196379,1223.46121
8.2250,189.4984434,-13.64321871,1223.379152
8.2300,189.473442,-13.50440811,1223.297631
8.2350,189.4443696,-13.36507525,1223.21668
8.2400,189.4108766,-13.22592056,1223.136272
8.2450,189.3738154,-13.08679716,1223.056326
8.2500,189.3339813,-12.94750013,1222.976641
8.2550,189.29116,-12.8074461,1222.897271
8.2600,189.2458181,-12.66745592,1222.818085
8.2650,189.1967981,-12.52562186,1222.739465
8.2700,189.1449529,-12.38269651,1222.661248
8.2750,189.0909687,-12.2369423,1222.583505
8.2800,189.0347136,-12.08985622,1222.506076
8.2850,188.9766202,-11.94051092,1222.42915
8.2900,188.9168711,-11.78828535,1222.3527
8.2950,188.8556992,-11.63332761,1222.276841
8.3000,188.7932978,-11.47629892,1222.201488
8.3050,188.7289277,-11.3169306,1222.126926
8.3100,188.6626285,-11.15587233,1222.053041
8.3150,188.59421,-10.99278479,1221.980115
8.3200,188.5226308,-10.82841291,1221.908117
8.3250,188.4480801,-10.66173995,1221.837239
8.3300,188.3701765,-10.49230345,1221.76772
8.3350,188.2893442,-10.32101544,1221.699389
8.3400,188.2050845,-10.14581777,1221.632644
8.3450,188.1177117,-9.966594091,1221.567604
8.3500,188.0272486,-9.783138114,1221.504337
8.3550,187.9332224,-9.594928253,1221.442959
8.3600,187.8362588,-9.401604049,1221.383444
8.3650,187.7351616,-9.20367364,1221.326015
8.3700,187.6312598,-9.000207187,1221.270634
8.3750,187.5234741,-8.792164722,1221.21741
8.3800,187.4109848,-8.580010127,1221.166402
8.3850,187.2945203,-8.363256499,1221.117436
8.3900,187.1736048,-8.141229738,1221.070725
8.3950,187.0488112,-7.914564264,1221.026205
8.4000,186.9203862,-7.681315356,1220.984105
8.4050,186.7877626,-7.440733328,1220.944608
8.4100,186.6503829,-7.192560692,1220.907999
8.4150,186.5105696,-6.936706508,1220.8739
8.4200,186.3668557,-6.672691507,1220.842825
8.4250,186.2213831,-6.399943285,1220.81453
8.4300,186.0723923,-6.11959925,1220.789207
8.4350,185.9210219,-5.83034735,1220.767
8.4400,185.7666825,-5.533698659,1220.747739
8.4450,185.6084346,-5.229183008,1220.731602
8.4500,185.447016,-4.916651938,1220.718645
8.4550,185.2828206,-4.597530859,1220.708508
8.4600,185.1159551,-4.270268095,1220.701441
8.4650,184.9458493,-3.935552212,1220.697242
8.4700,184.7738502,-3.591830428,1220.696118
8.4750,184.5995241,-3.240851255,1220.697664
8.4800,184.4239906,-2.881182969,1220.70198
8.4850,184.2477574,-2.513154309,1220.708909
8.4900,184.0692919,-2.138530692,1220.718411
8.4950,183.8895792,-1.758242644,1220.730194
8.5000,183.708946,-1.371722197,1220.744246
8.5050,183.5272957,-0.9797087998,1220.76046
8.5100,183.3445148,-0.583292929,1220.778628
8.5150,183.1612494,-0.183033746,1220.79859
8.5200,182.9770586,0.2199812569,1220.820163
8.5250,182.7919568,0.6252441087,1220.84326
8.5300,182.6048073,1.031688699,1220.867894
8.5350,182.4169076,1.440737179,1220.894186
8.5400,182.2275862,1.851553768,1220.922118
8.5450,182.0365295,2.264458076,1220.951793
8.5500,181.8420078,2.678542847,1220.983341
8.5550,181.6449535,3.093758653,1221.016764
8.5600,181.4449408,3.510041515,1221.052061
8.5650,181.2422344,3.926361765,1221.089088
8.5700,181.0368117,4.342730127,1221.12783
8.5750,180.826044,4.7590871,1221.168731
8.5800,180.6104354,5.175575273,1221.211738
8.5850,180.3898795,5.591290005,1221.256684
8.5900,180.1636887,6.006597077,1221.303723
8.5950,179.9308711,6.420972515,1221.352924
8.6000,179.6909584,6.834974332,1221.404416
8.6050,179.4426763,7.247996303,1221.45826
8.6100,179.1861562,7.661144005,1221.514768
8.6150,178.9210163,8.074501874,1221.574005
8.6200,178.6476483,8.488801042,1221.63616
8.6250,178.3668471,8.903289256,1221.701009
8.6300,178.0784334,9.318958803,1221.768787
8.6350,177.7816124,9.735844806,1221.839665
8.6400,177.4773081,10.15321964,1221.913427
8.6450,177.1644206,10.57156715,1221.990388
8.6500,176.8424255,10.98995825,1222.070437
8.6550,176.5111603,11.40808766,1222.153672
8.6600,176.1692122,11.82638803,1222.240478
8.6650,175.8168359,12.24421472,1222.330656
8.6700,175.4536613,12.66166859,1222.424414
8.6750,175.08011,13.0790812,1222.521789
8.6800,174.6969194,13.49790232,1222.622994
8.6850,174.3035671,13.91873712,1222.728421
8.6900,173.9003014,14.34145956,1222.838023
8.6950,173.4881017,14.76695758,1222.951882
8.7000,173.0663434,15.19552752,1223.070274
8.7050,172.6368144,15.62720804,1223.19293
8.7100,172.199607,16.06241612,1223.319904
8.7150,171.7545742,16.50159866,1223.451413
8.7200,171.3020878,16.94425636,1223.587089
8.7250,170.8412201,17.39169268,1223.727401
8.7300,170.3741508,17.84467119,1223.872198
8.7350,169.9010696,18.30219136,1224.021221
8.7400,169.4219595,18.7656537,1224.174863
8.7450,168.9381636,19.23520989,1224.332933
8.7500,168.4505353,19.71177356,1224.495509
8.7550,167.9599177,20.19627317,1224.662646
8.7600,167.467569,20.68747081,1224.833818
8.7650,166.9744474,21.18509706,1225.008845
8.7700,166.4815431,21.68768401,1225.187091
8.7750,165.9897266,22.19554865,1225.368503
8.7800,165.4979208,22.70633404,1225.552654
8.7850,165.0076039,23.21924829,1225.739084
8.7900,164.5187687,23.73435902,1225.927781
8.7950,164.0323551,24.2527593,1226.118741
8.8000,163.5495483,24.77197605,1226.311179
8.8050,163.071348,25.29268538,1226.505137
8.8100,162.5988365,25.81443882,1226.700179
8.8150,162.1323996,26.33627949,1226.895993
8.8200,161.6735157,26.8588242,1227.092394
8.8250,161.2232579,27.38066651,1227.288793
8.8300,160.7830872,27.90198932,1227.484831
8.8350,160.3534913,28.42171696,1227.680041
8.8400,159.9349866,28.94020319,1227.874351
8.8450,159.5293163,29.45654435,1228.067055
8.8500,159.1384865,29.97068763,1228.257728
8.8550,158.7615989,30.48131332,1228.446065
8.8600,158.3986509,30.98739292,1228.63173
8.8650,158.0492049,31.48862276,1228.814611
8.8700,157.7115982,31.9843801,1228.994882
8.8750,157.388874,32.47288146,1229.171358
8.8800,157.0792244,32.95448576,1229.344422
8.8850,156.7819905,33.42799858,1229.513811
8.8900,156.4966847,33.89215205,1229.679268
8.8950,156.2226789,34.34692965,1229.840745
8.9000,155.9585149,34.79110329,1229.998183
8.9050,155.7037468,35.22449596,1230.151588
8.9100,155.4566823,35.64628361,1230.300942
8.9150,155.2161175,36.05668388,1230.446479
8.9200,154.9813086,36.45544653,1230.588247
8.9250,154.7499028,36.84336804,1230.726916
8.9300,154.5218392,37.22101354,1230.862645
8.9350,154.2953141,37.58855813,1230.995918
8.9400,154.0696547,37.94804902,1231.127472
8.9450,153.8442816,38.2996617,1231.257451
8.9500,153.6188641,38.64458604,1231.386327
8.9550,153.3921316,38.98433985,1231.514799
8.9600,153.1639403,39.31916545,1231.642927
8.9650,152.9343125,39.65205274,1231.771665
8.9700,152.7028425,39.98313826,1231.901139
8.9750,152.4697926,40.31386627,1232.031731
8.9800,152.2343961,40.64444614,1232.163674
8.9850,151.996321,40.97652051,1232.297626
8.9900,151.7550051,41.3090599,1232.43335
8.9950,151.5100993,41.64358532,1232.571372
9.0000,151.2606496,41.9787091,1232.711446
9.0050,151.0053485,42.31585557,1232.854311
9.0100,150.744768,42.65590602,1233.000113
9.0150,150.4779384,42.99804281,1233.148949
9.0200,150.2044672,43.34270405,1233.301081
9.0250,149.9241012,43.68924337,1233.456413
9.0300,149.6357392,44.03735477,1233.615068
9.0350,149.3391287,44.38825043,1233.777562
9.0400,149.0342475,44.73976296,1233.943201
9.0450,148.7215438,45.09316334,1234.112308
9.0500,148.3993373,45.44793447,1234.285122
9.0550,148.066896,45.803723,1234.4617
9.0600,147.7245238,46.15967984,1234.64178
9.0650,147.3715526,46.51737153,1234.826058
9.0700,147.007389,46.87586721,1235.014451
9.0750,146.6316683,47.23529214,1235.207066
9.0800,146.2450552,47.59574251,1235.40386
9.0850,145.8471866,47.95721772,1235.604911
9.0900,145.4402201,48.31976084,1235.809731
9.0950,145.0240059,48.68233336,1236.018173
9.1000,144.5995877,49.04592549,1236.230372
9.1050,144.1672474,49.41073523,1236.446305
9.1100,143.7284448,49.77781235,1236.666081
9.1150,143.2847329,50.14611485,1236.889035
9.1200,142.8360859,50.51510452,1237.114986
9.1250,142.3825146,50.88516758,1237.344116
9.1300,141.9251805,51.25594857,1237.57605
9.1350,141.4626643,51.62654473,1237.810816
9.1400,140.9970703,51.99634431,1238.047684
9.1450,140.5283518,52.36614885,1238.286996
9.1500,140.055434,52.73525468,1238.528743
9.1550,139.5802166,53.10482827,1238.772877
9.1600,139.1034064,53.47491845,1239.019243
9.1650,138.6266509,53.84408084,1239.266902
9.1700,138.1503073,54.21380365,1239.516193
9.1750,137.6737313,54.58283655,1239.766819
9.1800,137.1970983,54.95171256,1240.018901
9.1850,136.720914,55.31983969,1240.272035
9.1900,136.2439079,55.68747925,1240.526585
9.1950,135.7677429,56.05432442,1240.781981
9.2000,135.2920276,56.42132727,1241.038629
9.2050,134.8180586,56.788661,1241.296191
9.2100,134.3448574,57.15548685,1241.554734
9.2150,133.8737805,57.52197777,1241.813931
9.2200,133.4053588,57.88961076,1242.07414
9.2250,132.9390063,58.25766577,1242.335284
9.2300,132.4761197,58.6265334,1242.597105
9.2350,132.0180888,58.99651987,1242.8593
9.2400,131.563505,59.36729235,1243.122102
9.2450,131.1131594,59.73876832,1243.38533
9.2500,130.6663968,60.1127445,1243.649813
9.2550,130.2243638,60.48859069,1243.914991
9.2600,129.7869126,60.86703868,1244.181195
9.2650,129.3529972,61.24764954,1244.448563
9.2700,128.9226164,61.63058972,1244.717118
9.2750,128.4948467,62.0165378,1244.98729
9.2800,128.071205,62.40496281,1245.258474
9.2850,127.6511794,62.7941023,1245.530023
9.2900,127.2339105,63.18533555,1245.802765
9.2950,126.8171949,63.5784956,1246.07724
9.3000,126.40167,63.97380571,1246.353393
9.3050,125.9867989,64.37075076,1246.631173
9.3100,125.5709904,64.76737732,1246.910337
9.3150,125.1539954,65.16484874,1247.19131
9.3200,124.7357474,65.56176749,1247.473719
9.3250,124.3160624,65.95890229,1247.757907
9.3300,123.8944181,66.35497252,1248.043584
9.3350,123.4710616,66.74926758,1248.330319
9.3400,123.0448986,67.14229731,1248.6187
9.3450,122.614961,67.53258896,1248.908419
9.3500,122.1828833,67.92043431,1249.199161
9.3550,121.7480649,68.30462478,1249.490765
9.3600,121.3092524,68.68591961,1249.783944
9.3650,120.8674229,69.06249735,1250.077693
9.3700,120.4235152,69.43495762,1250.371969
9.3750,119.9784545,69.80281191,1250.666409
9.3800,119.5340223,70.16637502,1250.960585
9.3850,119.0907967,70.52427979,1251.253766
9.3900,118.6476214,70.87587512,1251.546101
9.3950,118.2053154,71.22097183,1251.837224
9.4000,117.764251,71.5586536,1252.126552
9.4050,117.3248106,71.88781085,1252.413498
9.4100,116.8879511,72.20705765,1252.697084
9.4150,116.4523416,72.51712332,1252.977965
9.4200,116.0188422,72.81788714,1253.255764
9.4250,115.5883032,73.11016615,1253.530409
9.4300,115.1607201,73.39431348,1253.801977
9.4350,114.7375692,73.67077763,1254.070068
9.4400,114.3187136,73.93998991,1254.334959
9.4450,113.9045735,74.20173887,1254.59628
9.4500,113.4964796,74.45650984,1254.853744
9.4550,113.0944251,74.70312659,1255.106774
9.4600,112.6982618,74.94179765,1255.355445
9.4650,112.3089292,75.17451448,1255.600207
9.4700,111.926648,75.39901506,1255.840003
9.4750,111.5505479,75.61707916,1256.075822
9.4800,111.1818297,75.82796625,1256.306941
9.4850,110.8210304,76.03341914,1256.5339
9.4900,110.4690852,76.23319205,1256.75617
9.4950,110.1256306,76.42737374,1256.973841
9.5000,109.7914422,76.61605059,1257.186636
9.5050,109.4665276,76.79932233,1257.3945
9.5100,109.1512517,76.97771729,1257.597449
9.5150,108.8452428,77.15083241,1257.79535
9.5200,108.5478528,77.31868458,1257.988398
9.5250,108.2597512,77.48172794,1258.176523
9.5300,107.9797013,77.64003377,1258.360152
9.5350,107.7074418,77.79388727,1258.539499
9.5400,107.4432795,77.94333651,1258.714415
9.5450,107.1867342,78.08846359,1258.885032
9.5500,106.9391964,78.22900805,1259.050741
9.5550,106.698981,78.36568477,1259.212422
9.5600,106.4666523,78.49868778,1259.369923
9.5650,106.2418901,78.6274564,1259.523096
9.5700,106.0258562,78.75365225,1259.672282
9.5750,105.817616,78.87633552,1259.817361
9.5800,105.6153196,78.99524241,1259.958855
9.5850,105.4195586,79.11164735,1260.097166
9.5900,105.2303752,79.22548763,1260.232219
9.5950,105.0474489,79.33644755,1260.363986
9.6000,104.8707886,79.44532527,1260.492762
9.6050,104.7004918,79.55120129,1260.618113
9.6100,104.5361279,79.65501453,1260.74051
9.6150,104.376914,79.75594775,1260.859896
9.6200,104.2221106,79.85537464,1260.977042
9.6250,104.0702248,79.95206155,1261.091894
9.6300,103.9215522,80.04812618,1261.205262
9.6350,103.7745114,80.14202207,1261.317099
9.6400,103.6281689,80.23513314,1261.428295
9.6450,103.481364,80.32650344,1261.538824
9.6500,103.332418,80.4158271,1261.649204
9.6550,103.1818766,80.50472738,1261.759991
9.6600,103.0300054,80.59262406,1261.870781
9.6650,102.8770206,80.68086838,1261.982105
9.6700,102.7209844,80.76847274,1262.094177
9.6750,102.5610755,80.85607739,1262.207658
9.6800,102.3968346,80.94337679,1262.322549
9.6850,102.2281638,81.03312006,1262.440257
9.6900,102.055028,81.12451557,1262.560406
9.6950,101.8785589,81.21855219,1262.683125
9.7000,101.7002759,81.31645075,1262.808393
9.7050,101.5201656,81.41842674,1262.936374
9.7100,101.338964,81.52513491,1263.067132
9.7150,101.1576822,81.63654716,1263.200315
9.7200,100.9762968,81.75198285,1263.335657
9.7250,100.7950215,81.87145388,1263.473101
9.7300,100.6146504,81.99450386,1263.612089
9.7350,100.4360529,82.12134549,1263.752413
9.7400,100.260031,82.25198528,1263.893713
9.7450,100.0877553,82.38654392,1264.035649
9.7500,99.91934245,82.52497647,1264.178097
9.7550,99.75423837,82.66649118,1264.320903
9.7600,99.59190116,82.81104187,1264.464226
9.7650,99.43115867,82.95717257,1264.607803
9.7700,99.27306766,83.10635237,1264.75192
9.7750,99.11888079,83.25748493,1264.895619
9.7800,98.96853853,83.41173973,1265.039427
9.7850,98.82311532,83.568098,1265.182493
9.7900,98.68266645,83.72582961,1265.324501
9.7950,98.54798116,83.88580747,1265.465517
9.8000,98.4189126,84.04669824,1265.605017
9.8050,98.29503504,84.20844641,1265.743135
9.8100,98.17850025,84.37056611,1265.878731
9.8150,98.06997292,84.53399029,1266.01203
9.8200,97.97099358,84.69747123,1266.141784
9.8250,97.88410922,84.86268418,1266.267813
9.8300,97.81089263,85.02925956,1266.389255
9.8350,97.75065153,85.19603821,1266.505832
9.8400,97.70421628,85.36122073,1266.61627
9.8450,97.67214237,85.52587669,1266.720906
9.8500,97.65279854,85.68846127,1266.819591
9.8550,97.64754461,85.8480217,1266.911284
9.8600,97.65600907,86.00276984,1266.995265
9.8650,97.67832954,86.15308468,1267.071572
9.8700,97.7120347,86.29706558,1267.140165
9.8750,97.75740893,86.43438367,1267.200779
9.8800,97.81241259,86.56507553,1267.254151
9.8850,97.87583486,86.68934418,1267.300766
9.8900,97.94603858,86.80756808,1267.341424
9.8950,98.02200607,86.91854783,1267.375898
9.9000,98.10283875,87.0234999,1267.405095
9.9050,98.18624259,87.12294271,1267.430072
9.9100,98.27229603,87.21753651,1267.451226
9.9150,98.36084497,87.30903376,1267.469402
9.9200,98.45044541,87.39780164,1267.485395
9.9250,98.54045781,87.48544531,1267.500292
9.9300,98.62883833,87.57056565,1267.514198
9.9350,98.71549393,87.65441938,1267.527687
9.9400,98.80041237,87.73784853,1267.54124
9.9450,98.8829942,87.82084735,1267.555029
9.9500,98.9628973,87.90359094,1267.569271
9.9550,99.03911659,87.98591683,1267.584208
9.9600,99.11156596,88.06757648,1267.59978
9.9650,99.17890341,88.1481323,1267.61633
9.9700,99.2420306,88.22720729,1267.633373
9.9750,99.30138131,88.30411629,1267.650371
9.9800,99.35566297,88.37766653,1267.667264
9.9850,99.40339103,88.44609228,1267.683734
9.9900,99.4461419,88.50914525,1267.699126
9.9950,99.48281471,88.56572404,1267.713233
10.0000,99.5110339,88.61371276,1267.725991
10.0050,99.53143813,88.652248,1267.736655
10.0100,99.54281704,88.68029616,1267.745171
10.0150,99.54581571,88.69866172,1267.751712
10.0200,99.54112836,88.70745678,1267.756026
10.0250,99.53043879,88.70637287,1267.757321
10.0300,99.51367728,88.6954272,1267.755661
10.0350,99.49078989,88.67418692,1267.750845
10.0400,99.46150494,88.64258225,1267.742902
10.0450,99.42614065,88.60122201,1267.732013
10.0500,99.38508412,88.5499725,1267.718036
10.0550,99.34108652,88.49113905,1267.701043
10.0600,99.29519849,88.42454365,1267.680561
10.0650,99.24976394,88.35125101,1267.656203
10.0700,99.20458617,88.27109633,1267.627991
10.0750,99.16043598,88.18469587,1267.595861
10.0800,99.11887968,88.09198144,1267.559136
10.0850,99.07925832,87.99340577,1267.518179
10.0900,99.04334541,87.89010728,1267.472905
10.0950,99.01192719,87.78249638,1267.423236
10.1000,98.98838699,87.67247754,1267.368758
10.1050,98.97432634,87.56047615,1267.309112
10.1100,98.96981154,87.447282,1267.244674
10.1150,98.9770817,87.33279426,1267.174539
10.1200,98.9957813,87.2166784,1267.09874
10.1250,99.02551851,87.09790834,1267.016902
10.1300,99.06653702,86.97591625,1266.928671
10.1350,99.12115646,86.85161888,1266.833583
10.1400,99.18968498,86.72542178,1266.731838
10.1450,99.27330157,86.59734898,1266.622974
10.1500,99.37312825,86.46698142,1266.506292
10.1550,99.48775886,86.33404274,1266.382251
10.1600,99.61738092,86.19955817,1266.251338
10.1650,99.76185623,86.06207437,1266.112845
10.1700,99.92136197,85.92178484,1265.966897
10.1750,100.0951441,85.77947936,1265.814221
10.1800,100.2842735,85.63462437,1265.654187
10.1850,100.4886136,85.4863632,1265.486527
10.1900,100.7071049,85.33340781,1265.311117
10.1950,100.9393607,85.17750106,1265.129006
10.2000,101.183582,85.01644762,1264.939882
10.2050,101.4391261,84.85085748,1264.744471
10.2100,101.7041603,84.68067885,1264.543451
10.2150,101.9767278,84.50404797,1264.336694
10.2200,102.2556968,84.32092735,1264.124667
10.2250,102.5399695,84.12993708,1263.90714
10.2300,102.8301008,83.93284199,1263.684826
10.2350,103.1232709,83.72972344,1263.458876
10.2400,103.4211981,83.52102345,1263.228945
10.2450,103.7224057,83.30744835,1262.996065
10.2500,104.0265669,83.08909692,1262.760373
10.2550,104.3335217,82.86590888,1262.52201
10.2600,104.643313,82.63910138,1262.281637
10.2650,104.9548659,82.4083761,1262.039506
10.2700,105.2683303,82.17443701,1261.795976
10.2750,105.5829256,81.93674624,1261.551143
10.2800,105.8971545,81.69588055,1261.305799
10.2850,106.2118946,81.45068428,1261.059142
10.2900,106.5251169,81.20202176,1260.812264
10.2950,106.8369214,80.94965502,1260.565082
10.3000,107.1468299,80.69358891,1260.317724
10.3050,107.4552965,80.43374918,1260.070052
10.3100,107.761477,80.17094874,1259.822705
10.3150,108.0644403,79.90475101,1259.575777
10.3200,108.3636494,79.63530462,1259.329566
10.3250,108.6571856,79.36274229,1259.084816
10.3300,108.9463317,79.08803168,1258.841522
10.3350,109.2304204,78.81098141,1258.599856
10.3400,109.5092285,78.53256827,1258.360333
10.3450,109.782857,78.25293213,1258.122909
10.3500,110.0514652,77.97213159,1257.887558
10.3550,110.3135405,77.6903799,1257.654858
10.3600,110.5709638,77.40903817,1257.424804
10.3650,110.8231834,77.1284169,1257.197798
10.3700,111.0721556,76.84809533,1256.972904
10.3750,111.317787,76.56921444,1256.750643
10.3800,111.5594295,76.29035307,1256.530644
10.3850,111.7993044,76.01344253,1256.312989
10.3900,112.0384001,75.73917527,1256.097616
10.3950,112.2763735,75.466545,1255.884233
10.4000,112.5124198,75.19626593,1255.673365
10.4050,112.74699,74.92779161,1255.464559
10.4100,112.9809831,74.66266294,1255.25817
10.4150,113.2127572,74.39935828,1255.054047
10.4200,113.4427096,74.13870841,1254.852352
10.4250,113.6710374,73.87995978,1254.652627
10.4300,113.8974388,73.62356641,1254.455165
10.4350,114.120848,73.36862854,1254.259886
10.4400,114.3414281,73.11593566,1254.06696
10.4450,114.5589211,72.86408494,1253.875899
10.4500,114.7733334,72.6135049,1253.686881
10.4550,114.9857783,72.36379634,1253.499377
10.4600,115.1962447,72.11619661,1253.313809
10.4650,115.4044786,71.87021482,1253.130133
10.4700,115.6107922,71.62696691,1252.948689
10.4750,115.8152332,71.38562812,1252.76908
10.4800,116.019051,71.14702549,1252.591331
10.4850,116.2210405,70.91156435,1252.415925
10.4900,116.4227008,70.67956253,1252.242484
10.4950,116.6246027,70.45070709,1252.070709
10.5000,116.8279673,70.22580936,1251.90059
10.5050,117.0319589,70.00463915,1251.732188
10.5100,117.2375836,69.78740615,1251.565293
10.5150,117.4452199,69.57458439,1251.399964
10.5200,117.6555971,69.3668197,1251.236237
10.5250,117.8695437,69.16406456,1251.073847
10.5300,118.08482,68.96590261,1250.913329
10.5350,118.3028103,68.7721857,1250.754157
10.5400,118.5212134,68.58203778,1250.596679
10.5450,118.7412736,68.39472859,1250.440198
10.5500,118.9620659,68.21061745,1250.285167
10.5550,119.1832823,68.02865463,1250.131242
10.5600,119.403088,67.84847422,1249.978784
10.5650,119.6218529,67.66959345,1249.827491
10.5700,119.8400359,67.49238097,1249.677376
10.5750,120.0573039,67.31651649,1249.528352
10.5800,120.2750978,67.14140926,1249.379882
10.5850,120.4938253,66.96869511,1249.232455
10.5900,120.7139427,66.79806804,1249.085855
10.5950,120.9356702,66.62981117,1248.940017
10.6000,121.1593408,66.46432597,1248.795073
10.6050,121.3851663,66.30203693,1248.651022
10.6100,121.6128693,66.14242085,1248.507773
10.6150,121.8444159,65.98634381,1248.365095
10.6200,122.0793161,65.83322328,1248.222897
10.6250,122.3183754,65.68247517,1248.080701
10.6300,122.5607564,65.53376567,1247.938631
10.6350,122.8087368,65.38623452,1247.795657
10.6400,123.0617146,65.23835431,1247.651437
10.6450,123.3192535,65.08915505,1247.505792
10.6500,123.581349,64.93766463,1247.358306
10.6550,123.848086,64.78327352,1247.208839
10.6600,124.1190592,64.62542687,1247.057258
10.6650,124.3945211,64.46354039,1246.903242
10.6700,124.6741207,64.29953385,1246.74772
10.6750,124.9592946,64.13265146,1246.589996
10.6800,125.2508196,63.96396393,1246.430352
10.6850,125.5480647,63.7920317,1246.26848
10.6900,125.8503503,63.6169251,1246.104554
10.6950,126.1594009,63.43892609,1245.938192
10.7000,126.4754071,63.25690468,1245.769
10.7050,126.7994807,63.07141009,1245.596896
10.7100,127.1312732,62.8809286,1245.421452
10.7150,127.4721113,62.68622024,1245.242606
10.7200,127.8227282,62.4873618,1245.060235
10.7250,128.1828492,62.2833942,1244.874067
10.7300,128.5517759,62.07322063,1244.683965
10.7350,128.9306343,61.85795176,1244.489968
10.7400,129.3197812,61.63719293,1244.291926
10.7450,129.7186081,61.412373,1244.090583
10.7500,130.1271635,61.18426987,1243.88627
10.7550,130.5448722,60.95346614,1243.679331
10.7600,130.9720568,60.71863884,1243.46928
10.7650,131.408001,60.48134005,1243.256837
10.7700,131.8523531,60.2394784,1243.04134
10.7750,132.3040432,59.99416206,1242.823572
10.7800,132.7618105,59.74529755,1242.603866
10.7850,133.2266964,59.49412481,1242.382476
10.7900,133.6984459,59.24092164,1242.159676
10.7950,134.1768241,58.98742844,1241.936245
10.8000,134.6612484,58.73393342,1241.71244
10.8050,135.1518857,58.47983418,1241.488103
10.8100,135.6489791,58.22478896,1241.263039
10.8150,136.1519471,57.9703815,1241.038029
10.8200,136.6614384,57.71657696,1240.812889
10.8250,137.1760463,57.46431134,1240.588299
10.8300,137.697045,57.21344312,1240.363905
10.8350,138.2237904,56.96470482,1240.140072
10.8400,138.7560202,56.71830967,1239.916934
10.8450,139.2927921,56.47540187,1239.695074
10.8500,139.8344496,56.23466443,1239.473993
10.8550,140.3802005,55.99752103,1239.254396
10.8600,140.9301687,55.76370936,1239.036134
10.8650,141.4839571,55.53331186,1238.819411
10.8700,142.0389829,55.3042252,1238.604211
10.8750,142.5951842,55.07657509,1238.390691
10.8800,143.1512361,54.850862,1238.179315
10.8850,143.7060317,54.62532478,1237.969741
10.8900,144.2584839,54.39915452,1237.762072
10.8950,144.8073084,54.17203989,1237.556629
10.9000,145.3520332,53.94288977,1237.353059
10.9050,145.8907145,53.71325442,1237.152514
10.9100,146.4249801,53.48281656,1236.954457
10.9150,146.9541037,53.25131635,1236.758944
10.9200,147.4786421,53.01980296,1236.566221
10.9250,147.9990151,52.78926358,1236.376502
10.9300,148.5162087,52.55979773,1236.189601
10.9350,149.0293082,52.33237252,1236.006076
10.9400,149.5396268,52.10730805,1235.825634
10.9450,150.0467317,51.88469116,1235.648356
10.9500,150.551531,51.66478992,1235.474147
10.9550,151.0543397,51.44695549,1235.302681
10.9600,151.5554964,51.23120392,1235.133878
10.9650,152.0538746,51.01740071,1234.967947
10.9700,152.5507843,50.8045315,1234.804259
10.9750,153.0456555,50.59244208,1234.64288
10.9800,153.5390179,50.38115859,1234.483712
10.9850,154.0322418,50.17167693,1234.326747
10.9900,154.525353,49.96251379,1234.171631
10.9950,155.0182469,49.75499446,1234.018772
11.0000,155.5110696,49.54954315,1233.868281
11.0050,156.0030773,49.34518633,1233.719943
11.0100,156.4955719,49.14202606,1233.573598
11.0150,156.9881973,48.94005412,1233.429228
11.0200,157.4814923,48.73839967,1233.286407
11.0250,157.9749281,48.5378933,1233.145506
11.0300,158.469659,48.33870293,1233.006303
11.0350,158.9657327,48.13946071,1232.86843
11.0400,159.4627031,47.93972033,1232.731767
11.0450,159.960672,47.73859078,1232.59594
11.0500,160.4594307,47.53480947,1232.46057
11.0550,160.9590352,47.32852714,1232.325711
11.0600,161.4593644,47.11930506,1232.191243
11.0650,161.9605774,46.90724328,1232.057196
11.0700,162.4642141,46.69271596,1231.923388
11.0750,162.9715177,46.47596893,1231.789618
11.0800,163.4824263,46.25645339,1231.655644
11.0850,163.9961359,46.03174561,1231.520845
11.0900,164.5124132,45.803101,1231.385509
11.0950,165.0310026,45.56883969,1231.249152
11.1000,165.5504584,45.32924119,1231.112054
11.1050,166.0727713,45.08632862,1230.974433
11.1100,166.5965146,44.83973941,1230.836503
11.1150,167.121759,44.58990135,1230.698371
11.1200,167.6472402,44.33737212,1230.560433
11.1250,168.1736987,44.08144349,1230.422388
11.1300,168.7011706,43.823244,1230.284679
11.1350,169.2301945,43.56371449,1230.147631
11.1400,169.7621488,43.30239136,1230.01091
11.1450,170.2966267,43.03939712,1229.874863
11.1500,170.8342691,42.77597015,1229.739789
11.1550,171.3744786,42.51161045,1229.605666
11.1600,171.9178044,42.24637963,1229.47254
11.1650,172.464168,41.98115009,1229.340645
11.1700,173.0138135,41.71737211,1229.210316
11.1750,173.5669581,41.45588677,1229.081729
11.1800,174.1238891,41.19585358,1228.9546
11.1850,174.6836586,40.93842814,1228.829404
11.1900,175.2469635,40.68280358,1228.705756
11.1950,175.8129219,40.42988002,1228.58401
11.2000,176.3814404,40.17956191,1228.464173
11.2050,176.9527695,39.93017465,1228.34573
11.2100,177.5265607,39.6813759,1228.22872
11.2150,178.1015649,39.43223784,1228.113015
11.2200,178.677794,39.1821321,1227.998435
11.2250,179.2533964,38.9302888,1227.884988
11.2300,179.8272805,38.67591907,1227.772615
11.2350,180.398443,38.41777785,1227.661027
11.2400,180.9658893,38.15649062,1227.550552
11.2450,181.5290718,37.89090384,1227.44088
11.2500,182.0877316,37.6213455,1227.332066
11.2550,182.640587,37.34807136,1227.224263
11.2600,183.1868427,37.06940997,1227.117053
11.2650,183.7265708,36.78641411,1227.010696
11.2700,184.258769,36.49878786,1226.905247
11.2750,184.7843264,36.20737308,1226.800797
11.2800,185.3027946,35.91149662,1226.697139
11.2850,185.8126931,35.61087929,1226.594485
11.2900,186.3150474,35.3067268,1226.49292
11.2950,186.8104466,34.99825068,1226.39221
11.3000,187.2991429,34.68450716,1226.291915
11.3050,187.7817286,34.36615777,1226.192285
11.3100,188.2572445,34.04273582,1226.093135
11.3150,188.7255867,33.71414577,1225.994547
11.3200,189.1863653,33.38182244,1225.896875
11.3250,189.6391048,33.04477539,1225.799904
11.3300,190.084076,32.70360279,1225.703781
11.3350,190.5207459,32.35891578,1225.608672
11.3400,190.9508103,32.01115327,1225.514445
11.3450,191.3744929,31.65966236,1225.420907
11.3500,191.7930979,31.30661455,1225.328431
11.3550,192.2070416,30.95139121,1225.236792
11.3600,192.6161875,30.59507833,1225.146266
11.3650,193.0216599,30.23730206,1225.0566
11.3700,193.4222048,29.87928342,1224.968345
11.3750,193.8170764,29.52042939,1224.881495
11.3800,194.2063624,29.16114598,1224.796025
11.3850,194.5900436,28.80281968,1224.71228
11.3900,194.9674709,28.44515025,1224.630352
11.3950,195.3387294,28.08936441,1224.55048
11.4000,195.7040351,27.73625687,1224.472835
11.4050,196.0628484,27.38586867,1224.397459
11.4100,196.4158704,27.04046666,1224.324747
11.4150,196.7634761,26.69880288,1224.254353
11.4200,197.1064585,26.36150585,1224.186422
11.4250,197.445979,26.03033295,1224.12127
11.4300,197.7803115,25.70356952,1224.058695
11.4350,198.1097367,25.38171771,1223.998704
11.4400,198.4319045,25.0649471,1223.941647
11.4450,198.7478118,24.75279865,1223.887167
11.4500,199.0566859,24.44466895,1223.835143
11.4550,199.3581465,24.14006348,1223.785598
11.4600,199.6520262,23.83893713,1223.738404
11.4650,199.9384511,23.54164044,1223.693685
11.4700,200.2177547,23.2473005,1223.651133
11.4750,200.4906446,22.95636647,1223.610595
11.4800,200.757648,22.66989071,1223.572324
11.4850,201.0183165,22.38827345,1223.53652
11.4900,201.2736131,22.11321701,1223.503356
11.4950,201.5238928,21.84369383,1223.472602
11.5000,201.7695411,21.58134887,1223.444637
11.5050,202.0108509,21.32569503,1223.419189
11.5100,202.246145,21.07632431,1223.39642
11.5150,202.4769329,20.8339199,1223.37634
11.5200,202.7013924,20.59665912,1223.358629
11.5250,202.9211608,20.36414333,1223.343203
11.5300,203.1358568,20.13567704,1223.329917
11.5350,203.3450787,19.91186847,1223.318983
11.5400,203.5478636,19.69132349,1223.310169
11.5450,203.7452684,19.47430626,1223.30358
11.5500,203.9362433,19.26164471,1223.299484
11.5550,204.122154,19.05216453,1223.297495
11.5600,204.3027195,18.84777297,1223.298158
11.5650,204.4790604,18.64709273,1223.300991
11.5700,204.6513108,18.45003264,1223.305861
11.5750,204.8196703,18.25564054,1223.312508
11.5800,204.9844206,18.06467034,1223.321047
11.5850,205.1456455,17.87639117,1223.331224
11.5900,205.3033394,17.69067364,1223.343061
11.5950,205.4568073,17.50676254,1223.356374
11.6000,205.6062139,17.32541678,1223.371342
11.6050,205.7518569,17.14522251,1223.387591
11.6100,205.8941865,16.96691855,1223.40533
11.6150,206.0325949,16.78966469,1223.4244
11.6200,206.1667693,16.61200937,1223.444602
11.6250,206.2968768,16.43559639,1223.466291
11.6300,206.4223995,16.2589664,1223.489056
11.6350,206.5436036,16.08439787,1223.513409
11.6400,206.659412,15.91120012,1223.539321
11.6450,206.771356,15.74124532,1223.566991
11.6500,206.878536,15.57388625,1223.596362
11.6550,206.9818525,15.41086093,1223.627636
11.6600,207.0812625,15.25332423,1223.660967
11.6650,207.1762007,15.10110033,1223.696407
11.6700,207.2677376,14.9552537,1223.733992
11.6750,207.356082,14.81576823,1223.773693
11.6800,207.4412124,14.68282634,1223.815635
11.6850,207.5226294,14.55741638,1223.860055
11.6900,207.6015629,14.4393262,1223.906796
11.6950,207.6775008,14.32855283,1223.955924
11.7000,207.7518199,14.22414036,1224.007125
11.7050,207.8226731,14.12560842,1224.060422
11.7100,207.8909206,14.03262781,1224.115629
11.7150,207.955542,13.94653037,1224.17303
11.7200,208.0177466,13.86689898,1224.232342
11.7250,208.0762578,13.79283976,1224.293362
11.7300,208.1329128,13.72604279,1224.356084
11.7350,208.1862358,13.66619472,1224.420598
11.7400,208.238858,13.61315463,1224.486477
11.7450,208.2901018,13.56803798,1224.553947
11.7500,208.3404672,13.53122124,1224.623006
11.7550,208.3898744,13.50327055,1224.693627
11.7600,208.4381251,13.48233339,1224.76554
11.7650,208.4857886,13.46838065,1224.838687
11.7700,208.5321272,13.46212497,1224.913227
11.7750,208.5759506,13.46284414,1224.989215
11.7800,208.6177822,13.4708755,1225.066608
11.7850,208.6576701,13.48538211,1225.145266
11.7900,208.6955448,13.50676545,1225.225228
11.7950,208.7316734,13.53623648,1225.306658
11.8000,208.7660576,13.57169807,1225.38912
11.8050,208.8002413,13.6140158,1225.472622
11.8100,208.834218,13.66306892,1225.557057
11.8150,208.8671317,13.71779376,1225.642335
11.8200,208.8998401,13.77874057,1225.728511
11.8250,208.9316549,13.84397984,1225.815191
11.8300,208.9629383,13.91234431,1225.902131
11.8350,208.9935516,13.98256393,1225.989201
11.8400,209.0248648,14.05358633,1226.075952
11.8450,209.0557849,14.12348257,1226.162181
11.8500,209.086294,14.18860171,1226.247185
11.8550,209.1152839,14.24843141,1226.331166
11.8600,209.1415095,14.30112246,1226.413898
11.8650,209.1638963,14.34469825,1226.49528
11.8700,209.1832302,14.37728756,1226.575052
11.8750,209.1969751,14.39826522,1226.653461
11.8800,209.2056243,14.40647205,1226.730366
11.8850,209.2091897,14.40064414,1226.805568
11.8900,209.2059063,14.37989464,1226.879122
11.8950,209.1954518,14.34269215,1226.950895
11.9000,209.1772737,14.28961035,1227.021193
11.9050,209.1489112,14.2197286,1227.090096
11.9100,209.1104924,14.13272264,1227.157538
11.9150,209.0614238,14.03001662,1227.223907
11.9200,209.0011596,13.91099,1227.289152
11.9250,208.9300447,13.77622738,1227.353291
11.9300,208.8466742,13.62736241,1227.416962
11.9350,208.7507158,13.46427932,1227.480158
11.9400,208.6433963,13.28893776,1227.543131
11.9450,208.5229157,13.10178883,1227.606243
11.9500,208.3896761,12.90385734,1227.669636
11.9550,208.2446155,12.69554206,1227.733398
11.9600,208.0892136,12.47710193,1227.797461
11.9650,207.9245172,12.24982934,1227.862085
11.9700,207.7493174,12.01294151,1227.927239
11.9750,207.5649281,11.76884523,1227.993159
11.9800,207.372867,11.51936348,1228.060017
11.9850,207.1733914,11.26558155,1228.127994
11.9900,206.9665023,11.00797957,1228.197072
11.9950,206.7523076,10.74750764,1228.267397
12.0000,206.5306481,10.48669125,1228.339508
12.0050,206.3024668,10.22769844,1228.413817
12.0100,206.0683891,9.972616788,1228.490723
12.0150,205.8310882,9.722635302,1228.570121
12.0200,205.5907369,9.47902584,1228.652281
12.0250,205.3494133,9.243111189,1228.737225
12.0300,205.1088717,9.01508802,1228.824765
12.0350,204.8717159,8.795096705,1228.914475
12.0400,204.6388099,8.584042018,1229.00637
12.0450,204.4106385,8.38006247,1229.100019
12.0500,204.1881978,8.183946575,1229.195434
12.0550,203.9734813,7.994463792,1229.292036
12.0600,203.7670088,7.813653918,1229.389988
12.0650,203.569973,7.639772537,1229.488582
12.0700,203.3845999,7.473425095,1229.587691
12.0750,203.2128601,7.314267539,1229.686861
12.0800,203.0570183,7.162437391,1229.785571
12.0850,202.9199842,7.019042167,1229.883573
12.0900,202.8028259,6.88294953,1229.980477
12.0950,202.7075239,6.754635416,1230.075966
12.1000,202.635121,6.634329436,1230.169947
12.1050,202.5830148,6.521800563,1230.262709
12.1100,202.5501258,6.417026466,1230.354369
12.1150,202.5356244,6.319011549,1230.444713
12.1200,202.5368241,6.227560552,1230.534251
12.1250,202.5524143,6.14170855,1230.622832
12.1300,202.5791131,6.061608412,1230.710894
12.1350,202.613981,5.985745802,1230.798553
12.1400,202.6532378,5.912469791,1230.886074
12.1450,202.6943706,5.840519708,1230.973408
12.1500,202.7356247,5.769070865,1231.060726
12.1550,202.7745328,5.696458468,1231.147818
12.1600,202.8105037,5.618937732,1231.234174
12.1650,202.8416599,5.534956657,1231.3196
12.1700,202.8639591,5.443309458,1231.404281
12.1750,202.8772031,5.340348276,1231.487499
12.1800,202.8782794,5.222974373,1231.569076
12.1850,202.8669374,5.090198502,1231.648791
12.1900,202.8426306,4.939580075,1231.726253
12.1950,202.8040999,4.770977601,1231.801586
12.2000,202.7507962,4.582679662,1231.874514
12.2050,202.6836616,4.374500719,1231.944883
12.2100,202.6016954,4.146053922,1232.012849
12.2150,202.5055436,3.897034561,1232.078383
12.2200,202.3969709,3.629663478,1232.141555
12.2250,202.2763491,3.344449774,1232.20254
12.2300,202.1454841,3.043380984,1232.261538
12.2350,202.0046477,2.726351291,1232.318581
12.2400,201.8537206,2.395832921,1232.37417
12.2450,201.6932296,2.052453814,1232.428555
12.2500,201.5236537,1.697258418,1232.482016
12.2550,201.3440919,1.332667532,1232.535156
12.2600,201.1542243,0.9593485157,1232.588251
12.2650,200.9544443,0.5802495049,1232.641759
12.2700,200.7457191,0.1980265122,1232.695978
12.2750,200.5281639,-0.1882371047,1232.750874
12.2800,200.3014378,-0.5765509125,1232.806935
12.2850,200.0671068,-0.965076654,1232.864239
12.2900,199.8260124,-1.352698006,1232.922985
12.2950,199.5787225,-1.738651634,1232.983268
12.3000,199.3265157,-2.121698129,1233.04517
12.3050,199.0713078,-2.501022436,1233.108513
12.3100,198.8150141,-2.877737986,1233.172819
12.3150,198.5571089,-3.250876684,1233.238451
12.3200,198.2991284,-3.620229839,1233.305161
12.3250,198.0416626,-3.984750957,1233.373047
12.3300,197.7848617,-4.343686753,1233.442163
12.3350,197.5286509,-4.696940431,1233.5127
12.3400,197.2737544,-5.043985556,1233.58462
12.3450,197.0216311,-5.382866678,1233.65798
12.3500,196.7723966,-5.714683552,1233.732535
12.3550,196.5279867,-6.037849074,1233.808198
12.3600,196.2901566,-6.351024579,1233.884755
12.3650,196.0605981,-6.653066259,1233.962125
12.3700,195.8403835,-6.942884476,1234.040109
12.3750,195.6298804,-7.220664634,1234.118511
12.3800,195.4295628,-7.486220687,1234.197309
12.3850,195.2391557,-7.74143822,1234.276099
12.3900,195.0590897,-7.986765057,1234.354644
12.3950,194.8888195,-8.224252763,1234.432714
12.4000,194.728843,-8.453881805,1234.510098
12.4050,194.5804967,-8.677535708,1234.586185
12.4100,194.4460239,-8.895997913,1234.660395
12.4150,194.3251701,-9.110925184,1234.732612
12.4200,194.2194712,-9.324216558,1234.802043
12.4250,194.1282151,-9.536567756,1234.868796
12.4300,194.0527209,-9.748344689,1234.932515
12.4350,193.9934505,-9.960460348,1234.992849
12.4400,193.9519489,-10.17414424,1235.049489
12.4450,193.9289614,-10.38808233,1235.102357
12.4500,193.9245166,-10.60205311,1235.151407
12.4550,193.9410426,-10.81722791,1235.195973
12.4600,193.9782627,-11.03212441,1235.236249
12.4650,194.0362593,-11.2480994,1235.272017
12.4700,194.1168508,-11.46560221,1235.302922
12.4750,194.2197252,-11.6831281,1235.329212
12.4800,194.3445359,-11.90162901,1235.350814
12.4850,194.4904046,-12.12045537,1235.367997
12.4900,194.6584244,-12.33954391,1235.380597
12.4950,194.8478232,-12.5590839,1235.388672
12.5000,195.0579267,-12.77914013,1235.392407
12.5050,195.287068,-12.99876308,1235.392246
12.5100,195.5343612,-13.2180026,1235.388331
12.5150,195.7995632,-13.43562704,1235.380811
12.5200,196.079573,-13.65193118,1235.370429
12.5250,196.3738572,-13.86668763,1235.357265
12.5300,196.6802192,-14.0800915,1235.341717
12.5350,196.9979142,-14.2905459,1235.324171
12.5400,197.3238231,-14.49874931,1235.305207
12.5450,197.6573964,-14.7036443,1235.285047
12.5500,197.9955018,-14.90499913,1235.264233
12.5550,198.3358937,-15.1029149,1235.243242
12.5600,198.6759541,-15.29756543,1235.222541
12.5650,199.0124686,-15.48987939,1235.202612
12.5700,199.3428889,-15.67955329,1235.183964
12.5750,199.6646871,-15.86536211,1235.167273
12.5800,199.9760969,-16.04655158,1235.152816
12.5850,200.2750454,-16.22396653,1235.140862
12.5900,200.5607034,-16.39675807,1235.131677
12.5950,200.832578,-16.56379987,1235.125348
12.6000,201.0898044,-16.72460367,1235.122105
12.6050,201.3307644,-16.88083348,1235.121866
12.6100,201.5535407,-17.03131767,1235.125043
12.6150,201.7585068,-17.17617417,1235.131559
12.6200,201.9445009,-17.315299,1235.141458
12.6250,202.1110715,-17.44963681,1235.154744
12.6300,202.2580313,-17.57810497,1235.171406
12.6350,202.3863259,-17.70154403,1235.191148
12.6400,202.4941649,-17.82033387,1235.214116
12.6450,202.5816096,-17.93547689,1235.240084
12.6500,202.6488202,-18.04548529,1235.269157
12.6550,202.6941084,-18.15164388,1235.301332
12.6600,202.7180911,-18.25485264,1235.336423
12.6650,202.7195274,-18.3562013,1235.374409
12.6700,202.6987859,-18.45704563,1235.415022
12.6750,202.6563834,-18.55775394,1235.458254
12.6800,202.591337,-18.65955633,1235.503931
12.6850,202.5052542,-18.7610055,1235.55203
12.6900,202.3984701,-18.86261906,1235.602444
12.6950,202.2717923,-18.96478541,1235.655024
12.7000,202.1253039,-19.06724357,1235.709802
12.7050,201.9601743,-19.17058125,1235.766591
12.7100,201.7779649,-19.27574677,1235.825057
12.7150,201.5806409,-19.3805138,1235.885174
12.7200,201.3703015,-19.48470393,1235.94667
12.7250,201.1495538,-19.58700019,1236.00926
12.7300,200.919664,-19.68790821,1236.072763
12.7350,200.6845347,-19.78648607,1236.136728
12.7400,200.4474476,-19.88112434,1236.200746
12.7450,200.2109399,-19.97379507,1236.264201
12.7500,199.9781448,-20.06350115,1236.326645
12.7550,199.7511632,-20.15017107,1236.387676
12.7600,199.5327086,-20.23413881,1236.446713
12.7650,199.3259293,-20.314241,1236.503243
12.7700,199.1327461,-20.39119629,1236.556714
12.7750,198.9551921,-20.46679449,1236.606484
12.7800,198.7962529,-20.53986383,1236.651984
12.7850,198.6576443,-20.61238739,1236.69254
12.7900,198.5397038,-20.68463911,1236.727872
12.7950,198.4437172,-20.7573194,1236.757559
12.8000,198.369814,-20.83132672,1236.78139
12.8050,198.3186537,-20.90796087,1236.798956
12.8100,198.2908471,-20.98750819,1236.810069
12.8150,198.2853614,-21.07234068,1236.814657
12.8200,198.3012663,-21.16229419,1236.812781
12.8250,198.3363836,-21.25821443,1236.80477
12.8300,198.3895948,-21.36018243,1236.790803
12.8350,198.458854,-21.46931053,1236.771211
12.8400,198.5419318,-21.58553873,1236.746421
12.8450,198.6367722,-21.70954922,1236.716746
12.8500,198.7415373,-21.84046721,1236.682862
12.8550,198.8538684,-21.97918505,1236.645073
12.8600,198.9719447,-22.12402709,1236.604144
12.8650,199.0945907,-22.27497065,1236.560343
12.8700,199.2203876,-22.4315495,1236.514115
12.8750,199.3481949,-22.59218106,1236.465848
12.8800,199.476703,-22.75724234,1236.41587
12.8850,199.6064464,-22.92641517,1236.364184
12.8900,199.7361257,-23.09860574,1236.311155
12.8950,199.8652525,-23.27259133,1236.25703
12.9000,199.9938778,-23.45012113,1236.201578
12.9050,200.1233948,-23.62881712,1236.144869
12.9100,200.253144,-23.80811406,1236.087052
12.9150,200.3835523,-23.98783543,1236.027984
12.9200,200.5152203,-24.16686181,1235.967811
12.9250,200.6472712,-24.34521081,1235.90661
12.9300,200.7805984,-24.52342332,1235.844217
12.9350,200.9142544,-24.70020964,1235.780826
12.9400,201.048906,-24.87616333,1235.716272
12.9450,201.1845848,-25.05011832,1235.650588
12.9500,201.3209708,-25.22296618,1235.583866
12.9550,201.4579175,-25.39463331,1235.516128
12.9600,201.5954997,-25.56451272,1235.447396
12.9650,201.7324525,-25.73130195,1235.378049
12.9700,201.868408,-25.89552393,1235.308113
12.9750,202.0032836,-26.05676538,1235.237601
12.9800,202.1360518,-26.21428468,1235.166745
12.9850,202.2663754,-26.36976593,1235.09551
12.9900,202.3944293,-26.52179861,1235.023971
12.9950,202.5197375,-26.67019235,1234.952194
13.0000,202.6428513,-26.81513804,1234.88025
13.0050,202.7634552,-26.95644169,1234.808152
13.0100,202.8810111,-27.09333925,1234.736032
13.0150,202.9954315,-27.22766872,1234.663808
13.0200,203.1072906,-27.35852232,1234.59144
13.0250,203.2170025,-27.48620165,1234.518762
13.0300,203.3264138,-27.61173546,1234.44539
13.0350,203.435742,-27.73437292,1234.371329
13.0400,203.5437794,-27.85446577,1234.296531
13.0450,203.6524955,-27.97142649,1234.220812
13.0500,203.7613334,-28.08651441,1234.144043
13.0550,203.8705539,-28.19915683,1234.066289
13.0600,203.9811943,-28.30978673,1233.987247
13.0650,204.0926772,-28.41796589,1233.907127
13.0700,204.2053523,-28.52407095,1233.825728
13.0750,204.3192045,-28.62712788,1233.743195
13.0800,204.4343128,-28.72736872,1233.659467
13.0850,204.547883,-28.82511012,1233.574967
13.0900,204.6602786,-28.91973982,1233.489674
13.0950,204.771378,-29.01159172,1233.403631
13.1000,204.8803047,-29.10077347,1233.316819
13.1050,204.9870293,-29.18678054,1233.229293
13.1100,205.0910981,-29.26918713,1233.141086
13.1150,205.1916635,-29.34824368,1233.05221
13.1200,205.2901521,-29.42439381,1232.962498
13.1250,205.3861368,-29.49738792,1232.871941
13.1300,205.480107,-29.56782463,1232.780498
13.1350,205.5722249,-29.6356957,1232.68809
13.1400,205.6629297,-29.70172326,1232.594605
13.1450,205.7511723,-29.76574918,1232.500305
13.1500,205.8377233,-29.82883727,1232.404923
13.1550,205.9225626,-29.89072232,1232.308594
13.1600,206.0054877,-29.95156782,1232.211161
13.1650,206.086505,-30.01148098,1232.112643
13.1700,206.1656028,-30.07106089,1232.013072
13.1750,206.24413,-30.13111377,1231.912096
13.1800,206.3214628,-30.19115928,1231.809838
13.1850,206.3968681,-30.25070528,1231.706526
13.1900,206.4702782,-30.30969489,1231.602113
13.1950,206.5426974,-30.36839507,1231.496489
13.2000,206.6133128,-30.42521259,1231.389919
13.2050,206.6820515,-30.48055461,1231.282501
13.2100,206.7489997,-30.53379976,1231.174272
13.2150,206.8146893,-30.58473412,1231.065301
13.2200,206.8782659,-30.63346508,1230.955684
13.2250,206.9418047,-30.67918667,1230.845218
13.2300,207.0032653,-30.72265012,1230.73426
13.2350,207.064066,-30.76378903,1230.622724
13.2400,207.1242403,-30.8022285,1230.51071
13.2450,207.1847167,-30.83794867,1230.398294
13.2500,207.245692,-30.87210878,1230.285269
13.2550,207.3081704,-30.90328269,1230.171754
13.2600,207.3720625,-30.93377087,1230.057781
13.2650,207.4378895,-30.9636764,1229.9433
13.2700,207.5060675,-30.99271841,1229.828406
13.2750,207.5761209,-31.02066864,1229.71322
13.2800,207.6494137,-31.04804199,1229.597662
13.2850,207.7256613,-31.07456018,1229.481839
13.2900,207.8047216,-31.10088315,1229.365755
13.2950,207.8870995,-31.1269505,1229.249472
13.3000,207.9724435,-31.15233549,1229.13289
13.3050,208.0606948,-31.17644818,1229.016156
13.3100,208.1522698,-31.19865719,1228.899212
13.3150,208.2471786,-31.21922763,1228.781925
13.3200,208.34572,-31.23746318,1228.664314
13.3250,208.4475648,-31.25307693,1228.546438
13.3300,208.552771,-31.26532466,1228.42838
13.3350,208.6601325,-31.27512889,1228.310133
13.3400,208.7699161,-31.28165276,1228.191783
13.3450,208.8810059,-31.28539697,1228.073375
13.3500,208.9935789,-31.28619439,1227.954958
13.3550,209.1061933,-31.2836587,1227.836743
13.3600,209.2178893,-31.27739379,1227.718854
13.3650,209.3288399,-31.26743322,1227.601224
13.3700,209.4369657,-31.25313388,1227.484161
13.3750,209.5422741,-31.23447912,1227.367579
13.3800,209.6436433,-31.21179358,1227.251619
13.3850,209.7419565,-31.18552286,1227.136072
13.3900,209.8364066,-31.15521228,1227.021145
13.3950,209.9251503,-31.12063183,1226.906819
13.4000,210.0088622,-31.08159486,1226.793142
13.4050,210.0884079,-31.03786519,1226.680005
13.4100,210.1628865,-30.98941855,1226.567491
13.4150,210.2333943,-30.93491327,1226.455575
13.4200,210.2984467,-30.87487258,1226.344294
13.4250,210.3598584,-30.80827619,1226.233559
13.4300,210.4169378,-30.7355423,1226.123391
13.4350,210.4703934,-30.65633795,1226.013772
13.4400,210.5204316,-30.57037063,1225.904702
13.4450,210.567932,-30.4778131,1225.796082
13.4500,210.6131953,-30.37785444,1225.687989
13.4550,210.6565304,-30.27023679,1225.580358
13.4600,210.6993746,-30.15546815,1225.473166
13.4650,210.7419494,-30.03324234,1225.366371
13.4700,210.7858764,-29.90198487,1225.259963
13.4750,210.8313178,-29.76184222,1225.154052
13.4800,210.8783925,-29.61299343,1225.048723
13.4850,210.9269308,-29.45401424,1224.944031
13.4900,210.9777295,-29.28475186,1224.840056
13.4950,211.0299501,-29.10534758,1224.736911
13.5000,211.0842817,-28.91576942,1224.634718
13.5050,211.14056,-28.71461224,1224.533634
13.5100,211.1987438,-28.50256542,1224.433708
13.5150,211.257593,-28.27965564,1224.335171
13.5200,211.3175358,-28.04632264,1224.237997
13.5250,211.3771666,-27.80242671,1224.142403
13.5300,211.4376075,-27.54903999,1224.048293
13.5350,211.4975466,-27.28583,1223.955934
13.5400,211.5570763,-27.0138272,1223.865287
13.5450,211.61498,-26.73401752,1223.77647
13.5500,211.6723345,-26.44655959,1223.689437
13.5550,211.7274364,-26.1532406,1223.60415
13.5600,211.7803884,-25.85409124,1223.520649
13.5650,211.8319562,-25.55017293,1223.438678
13.5700,211.8804658,-25.24240549,1223.358361
13.5750,211.9271709,-24.93264957,1223.279366
13.5800,211.971033,-24.6221871,1223.201755
13.5850,212.0112138,-24.31095891,1223.125514
13.5900,212.0482329,-24.00069876,1223.050494
13.5950,212.0829441,-23.6913736,1222.976607
13.6000,212.1144065,-23.38405706,1222.903867
13.6050,212.1437452,-23.07941306,1222.831983
13.6100,212.1695444,-22.77732404,1222.761171
13.6150,212.1924542,-22.47771437,1222.691443
13.6200,212.2118455,-22.18212584,1222.622627
13.6250,212.2280363,-21.88920031,1222.55482
13.6300,212.2401715,-21.59929435,1222.487948
13.6350,212.2482949,-21.31206102,1222.422198
13.6400,212.251906,-21.02767356,1222.357521
13.6450,212.2512483,-20.74410788,1222.294147
13.6500,212.244603,-20.46110965,1222.232297
13.6550,212.2329274,-20.17860344,1222.1717
13.6600,212.2155577,-19.89671389,1222.112545
13.6650,212.1917078,-19.61553529,1222.054751
13.6700,212.1617457,-19.33457104,1221.998352
13.6750,212.1254612,-19.05384114,1221.943284
13.6800,212.0828619,-18.77344524,1221.88944
13.6850,212.0328214,-18.49145925,1221.837132
13.6900,211.9745213,-18.20914424,1221.786231
13.6950,211.9083122,-17.92604483,1221.736833
13.7000,211.8347576,-17.64273877,1221.688767
13.7050,211.7522862,-17.35919001,1221.64213
13.7100,211.6608087,-17.07425021,1221.597112
13.7150,211.5612433,-16.78977449,1221.553504
13.7200,211.4537675,-16.5036414,1221.511619
13.7250,211.3376802,-16.21757385,1221.47137
13.7300,211.2128896,-15.92980269,1221.43298
13.7350,211.0788285,-15.64180069,1221.39645
13.7400,210.9360303,-15.35280065,1221.361787
13.7450,210.7850077,-15.06305047,1221.329092
13.7500,210.6260195,-14.77252964,1221.298228
13.7550,210.4600137,-14.48139891,1221.269266
13.7600,210.287177,-14.18953037,1221.242197
13.7650,210.1080726,-13.89618786,1221.217139
13.7700,209.9227553,-13.60155978,1221.194069
13.7750,209.7299353,-13.30605817,1221.173143
13.7800,209.5306576,-13.0085997,1221.15442
13.7850,209.3256174,-12.71008128,1221.13779
13.7900,209.1135113,-12.41028411,1221.123437
13.7950,208.895889,-12.10882147,1221.111217
13.8000,208.6718035,-11.80573944,1221.101182
13.8050,208.4404867,-11.50155425,1221.09324
13.8100,208.2029613,-11.19595021,1221.087324
13.8150,207.9591586,-10.88771481,1221.083501
13.8200,207.7095921,-10.5770557,1221.081682
13.8250,207.4536336,-10.26327033,1221.082014
13.8300,207.1911483,-9.94556793,1221.084474
13.8350,206.9221659,-9.624122401,1221.089013
13.8400,206.6465584,-9.298502702,1221.095648
