type,name,time_units,begin_time,frequency,count,units
signal_3d,"Noraxon MyoMotion-Trajectories-Medial humeral epicondyle RT","s",0.0000,200,5108,"mm"

time,x,y,z
0.0000,170.7074074,-42.0114001,1234.699918
0.0050,170.6970323,-41.9918215,1234.703935
0.0100,170.6866559,-41.97224427,1234.707953
0.0150,170.6762782,-41.95266839,1234.711974
0.0200,170.6640475,-41.93139645,1234.716467
0.0250,170.6498471,-41.90852189,1234.72144
0.0300,170.6335881,-41.88416041,1234.726889
0.0350,170.6152164,-41.85844497,1234.73281
0.0400,170.5947226,-41.83152263,1234.739191
0.0450,170.5721496,-41.80355655,1234.746011
0.0500,170.5475934,-41.77472948,1234.753245
0.0550,170.5211916,-41.74524506,1234.760857
0.0600,170.4931066,-41.7153263,1234.768811
0.0650,170.4635151,-41.68520749,1234.777063
0.0700,170.4326079,-41.65512194,1234.785568
0.0750,170.4005923,-41.62529451,1234.794274
0.0800,170.3676926,-41.59594083,1234.803127
0.0850,170.3341477,-41.56726753,1234.812068
0.0900,170.3002088,-41.53946979,1234.821032
0.0950,170.2661387,-41.51272749,1234.829954
0.1000,170.2322059,-41.48719891,1234.838768
0.1050,170.1986757,-41.46301146,1234.847405
0.1100,170.1658025,-41.44025816,1234.855802
0.1150,170.1338277,-41.41900342,1234.8639
0.1200,170.1029797,-41.3992893,1234.87164
0.1250,170.073476,-41.38113847,1234.878969
0.1300,170.0455212,-41.36455599,1234.88584
0.1350,170.0192989,-41.3495293,1234.892212
0.1400,169.9949592,-41.33602622,1234.898052
0.1450,169.9726044,-41.32399221,1234.903341
0.1500,169.9522796,-41.31334779,1234.908069
0.1550,169.8914127,-41.28566649,1234.919902
0.1600,169.8320057,-41.25952807,1234.931217
0.1650,169.7730314,-41.23530618,1234.942028
0.1700,169.7142583,-41.21231517,1234.952434
0.1750,169.6565926,-41.19088418,1234.96234
0.1800,169.5986745,-41.17143623,1234.971897
0.1850,169.5418356,-41.15280047,1234.981105
0.1900,169.4848271,-41.13533615,1234.990014
0.1950,169.4274412,-41.11838963,1234.998725
0.2000,169.3713741,-41.10192438,1235.007083
0.2050,169.3154673,-41.08628885,1235.015197
0.2100,169.2599974,-41.07141274,1235.023074
0.2150,169.2024283,-41.0577682,1235.030973
0.2200,169.1442305,-41.04485199,1235.038825
0.2250,169.0857161,-41.03266294,1235.046586
0.2300,169.0265545,-41.02223079,1235.054177
0.2350,168.9677907,-41.01264048,1235.061618
0.2400,168.9079581,-41.00446582,1235.06905
0.2450,168.8476161,-40.99672429,1235.076435
0.2500,168.7873627,-40.99103125,1235.083623
0.2550,168.7268427,-40.98651994,1235.090741
0.2600,168.6659923,-40.98282143,1235.097783
0.2650,168.6044863,-40.9794748,1235.104887
0.2700,168.5432034,-40.97823052,1235.111731
0.2750,168.4812528,-40.97762782,1235.118581
0.2800,168.4199856,-40.97934229,1235.125159
0.2850,168.3590452,-40.98188061,1235.131614
0.2900,168.2985111,-40.98637707,1235.137912
0.2950,168.2393202,-40.9927874,1235.143939
0.3000,168.1809752,-41.00015262,1235.149889
0.3050,168.1225075,-41.00944299,1235.155752
0.3100,168.065021,-41.01969593,1235.161513
0.3150,168.0079965,-41.03132845,1235.167192
0.3200,167.9513995,-41.04383566,1235.172785
0.3250,167.8951884,-41.05770877,1235.178396
0.3300,167.8392949,-41.07384359,1235.183871
0.3350,167.7831931,-41.09072128,1235.189309
0.3400,167.727685,-41.10926333,1235.194665
0.3450,167.6722553,-41.12840388,1235.200011
0.3500,167.6173212,-41.14911355,1235.205163
0.3550,167.5617637,-41.17127707,1235.21027
0.3600,167.50714,-41.1937673,1235.215285
0.3650,167.4525008,-41.21690068,1235.22024
0.3700,167.3984105,-41.24107916,1235.225074
0.3750,167.3448167,-41.26612704,1235.229794
0.3800,167.2924418,-41.2909202,1235.234415
0.3850,167.2411888,-41.31572064,1235.238907
0.3900,167.1902833,-41.33992715,1235.243361
0.3950,167.1404351,-41.36432436,1235.247583
0.4000,167.0912631,-41.38879537,1235.251633
0.4050,167.0434155,-41.41289655,1235.255503
0.4100,166.9965632,-41.43595453,1235.259263
0.4150,166.9512002,-41.45851552,1235.262761
0.4200,166.9070256,-41.48049424,1235.266051
0.4250,166.8635872,-41.5024802,1235.269116
0.4300,166.8213348,-41.523502,1235.271992
0.4350,166.7806821,-41.54404972,1235.274667
0.4400,166.7410997,-41.56417229,1235.277208
0.4450,166.7024579,-41.58294694,1235.279693
0.4500,166.6651002,-41.60195549,1235.281918
0.4550,166.6283905,-41.6206839,1235.284052
0.4600,166.5925493,-41.63884031,1235.286074
0.4650,166.5570213,-41.65698664,1235.288065
0.4700,166.5222248,-41.67523463,1235.290046
0.4750,166.4869257,-41.69314831,1235.292092
0.4800,166.4521299,-41.70975363,1235.294231
0.4850,166.4161388,-41.72752277,1235.296405
0.4900,166.3793103,-41.74444538,1235.298839
0.4950,166.3419496,-41.76164778,1235.301446
0.5000,166.3029911,-41.7789558,1235.304351
0.5050,166.2631875,-41.7969656,1235.307509
0.5100,166.2223751,-41.81512272,1235.310902
0.5150,166.1819121,-41.83345821,1235.314398
0.5200,166.1405206,-41.85203188,1235.318104
0.5250,166.0977518,-41.87090513,1235.322121
0.5300,166.0544293,-41.8890709,1235.326426
0.5350,166.0093693,-41.90761199,1235.331059
0.5400,165.9641815,-41.92661166,1235.335818
0.5450,165.9188943,-41.94613044,1235.340722
0.5500,165.8725047,-41.96567428,1235.345894
0.5550,165.8256166,-41.98584998,1235.351219
0.5600,165.7788947,-42.00621653,1235.356634
0.5650,165.7309126,-42.02833895,1235.362189
0.5700,165.6818727,-42.05071358,1235.36796
0.5750,165.6323227,-42.07349474,1235.373891
0.5800,165.5816075,-42.09715176,1235.380047
0.5850,165.5312351,-42.1223466,1235.386129
0.5900,165.4798986,-42.14861816,1235.39243
0.5950,165.4278081,-42.17661705,1235.398757
0.6000,165.3741052,-42.2063081,1235.405237
0.6050,165.3209754,-42.23738791,1235.411624
0.6100,165.2670868,-42.26989084,1235.418083
0.6150,165.2145624,-42.30442585,1235.424382
0.6200,165.1630898,-42.34139946,1235.430427
0.6250,165.1125255,-42.37945699,1235.436382
0.6300,165.0633803,-42.41862862,1235.442198
0.6350,165.0154176,-42.45941283,1235.447947
0.6400,164.9688075,-42.50172993,1235.453522
0.6450,164.9241857,-42.54610536,1235.458831
0.6500,164.8805618,-42.59097371,1235.464128
0.6550,164.8394309,-42.63779119,1235.469129
0.6600,164.7997762,-42.68592546,1235.473946
0.6650,164.7610341,-42.73582216,1235.478703
0.6700,164.7238686,-42.78688691,1235.483206
0.6750,164.688126,-42.83909898,1235.487483
0.6800,164.6534729,-42.89324619,1235.491541
0.6850,164.6187223,-42.94777775,1235.495515
0.6900,164.5849859,-43.00360413,1235.499288
0.6950,164.5519133,-43.05927983,1235.502934
0.7000,164.5192907,-43.11513092,1235.506455
0.7050,164.4868881,-43.17210031,1235.509825
0.7100,164.4545159,-43.22970599,1235.513087
0.7150,164.4216503,-43.28882691,1235.516193
0.7200,164.3886616,-43.34802039,1235.519217
0.7250,164.3555802,-43.40721264,1235.522214
0.7300,164.3224161,-43.46735393,1235.525044
0.7350,164.2892288,-43.52743455,1235.527747
0.7400,164.2561205,-43.58785677,1235.530236
0.7450,164.2237263,-43.6486741,1235.532496
0.7500,164.1917045,-43.7092477,1235.534652
0.7550,164.160127,-43.76970129,1235.536672
0.7600,164.1287569,-43.83040402,1235.538572
0.7650,164.0991262,-43.89089996,1235.54013
0.7700,164.0704267,-43.95166092,1235.541474
0.7750,164.0418439,-44.01218131,1235.542701
0.7800,164.0144686,-44.07358009,1235.543681
0.7850,163.9884814,-44.13484514,1235.544454
0.7900,163.9644951,-44.19661471,1235.544835
0.7950,163.9416337,-44.25876907,1235.545039
0.8000,163.9204832,-44.32093554,1235.544887
0.8050,163.9007153,-44.38214927,1235.544529
0.8100,163.8818751,-44.44339854,1235.544002
0.8150,163.8644939,-44.50513458,1235.543267
0.8200,163.8487609,-44.5658627,1235.542399
0.8250,163.8345821,-44.62608622,1235.541284
0.8300,163.8215471,-44.68537906,1235.540065
0.8350,163.8097965,-44.74422524,1235.538694
0.8400,163.7981323,-44.80262453,1235.537318
0.8450,163.788174,-44.86053896,1235.535684
0.8500,163.7792996,-44.91807729,1235.53396
0.8550,163.7719899,-44.97472227,1235.53211
0.8600,163.765567,-45.03152191,1235.530124
0.8650,163.7613508,-45.08697325,1235.527954
0.8700,163.7583533,-45.14207759,1235.525712
0.8750,163.7564318,-45.1978306,1235.523345
0.8800,163.7553219,-45.25226049,1235.520938
0.8850,163.7544389,-45.30637843,1235.51857
0.8900,163.7536413,-45.36009203,1235.516156
0.8950,163.7526891,-45.41244084,1235.513942
0.9000,163.7530449,-45.46493758,1235.511611
0.9050,163.7526658,-45.51648686,1235.509447
0.9100,163.7523412,-45.56751568,1235.507384
0.9150,163.750563,-45.61750837,1235.505562
0.9200,163.7478629,-45.66589038,1235.504021
0.9250,163.7451215,-45.714005,1235.502522
0.9300,163.7424864,-45.76080242,1235.501173
0.9350,163.7389165,-45.80615603,1235.500053
0.9400,163.734993,-45.85005581,1235.49912
0.9450,163.7308153,-45.8928543,1235.498343
0.9500,163.7260369,-45.9344687,1235.497762
0.9550,163.7196967,-45.97376252,1235.497584
0.9600,163.7123786,-46.01173269,1235.497646
0.9650,163.7055259,-46.04788326,1235.497741
0.9700,163.6978338,-46.08260822,1235.498171
0.9750,163.6898269,-46.11545179,1235.498774
0.9800,163.6814099,-46.14591348,1235.499612
0.9850,163.6730807,-46.17510604,1235.500645
0.9900,163.6638016,-46.20305998,1235.501908
0.9950,163.6545144,-46.22978163,1235.503394
1.0000,163.6435638,-46.25486054,1235.505229
1.0050,163.6319314,-46.27883784,1235.507325
1.0100,163.6189181,-46.3013174,1235.509789
1.0150,163.6048015,-46.32189538,1235.512602
1.0200,163.5880459,-46.3415902,1235.51587
1.0250,163.5704888,-46.36042535,1235.51933
1.0300,163.5510566,-46.37797409,1235.523206
1.0350,163.5297142,-46.39460325,1235.527423
1.0400,163.5063569,-46.40992665,1235.532032
1.0450,163.4804019,-46.42436959,1235.537066
1.0500,163.4523465,-46.43737918,1235.542444
1.0550,163.4221153,-46.44902655,1235.548208
1.0600,163.3891117,-46.45930043,1235.55434
1.0650,163.3528908,-46.46868606,1235.560967
1.0700,163.3143716,-46.47621559,1235.56798
1.0750,163.2739224,-46.4824502,1235.575364
1.0800,163.2310985,-46.48778512,1235.583131
1.0850,163.1868322,-46.4918013,1235.59131
1.0900,163.1411694,-46.49434403,1235.59994
1.0950,163.0946344,-46.49590324,1235.608873
1.1000,163.0467932,-46.49628205,1235.618276
1.1050,162.9986936,-46.49586514,1235.627978
1.1100,162.949978,-46.49556565,1235.638025
1.1150,162.9011094,-46.49437439,1235.648338
1.1200,162.852142,-46.49370605,1235.658731
1.1250,162.8037105,-46.49306572,1235.669288
1.1300,162.75478,-46.49298011,1235.680027
1.1350,162.7060221,-46.492416,1235.690905
1.1400,162.6581251,-46.49187254,1235.70185
1.1450,162.6101378,-46.49148024,1235.713058
1.1500,162.5629266,-46.4916633,1235.724263
1.1550,162.5151063,-46.49196711,1235.735737
1.1600,162.467983,-46.49137336,1235.747536
1.1650,162.4205566,-46.49045117,1235.759756
1.1700,162.3739391,-46.48926462,1235.772379
1.1750,162.3276355,-46.48692972,1235.785633
1.1800,162.2825629,-46.48507787,1235.7994
1.1850,162.2386371,-46.48280139,1235.813963
1.1900,162.1972332,-46.48132307,1235.829131
1.1950,162.1588254,-46.48030983,1235.845003
1.2000,162.1228937,-46.47953021,1235.861792
1.2050,162.0903221,-46.4807364,1235.879385
1.2100,162.0616507,-46.4841748,1235.897703
1.2150,162.0381252,-46.48965429,1235.916654
1.2200,162.0195395,-46.49767345,1235.93621
1.2250,162.0061177,-46.50945068,1235.956218
1.2300,161.9964059,-46.52526789,1235.976724
1.2350,161.9914438,-46.54487175,1235.997561
1.2400,161.9915127,-46.56831954,1236.018567
1.2450,161.9957557,-46.59623611,1236.039794
1.2500,162.005297,-46.62803562,1236.06101
1.2550,162.0191166,-46.66373369,1236.082233
1.2600,162.0360573,-46.70311392,1236.103605
1.2650,162.0544419,-46.74534432,1236.125293
1.2700,162.0734254,-46.78967659,1236.147233
1.2750,162.0920917,-46.83627107,1236.169608
1.2800,162.1092502,-46.88532478,1236.192418
1.2850,162.1255262,-46.93644387,1236.215595
1.2900,162.1396026,-46.98987595,1236.239383
1.2950,162.1493086,-47.04595827,1236.263963
1.3000,162.1549938,-47.10504574,1236.28935
1.3050,162.1559903,-47.16610924,1236.315636
1.3100,162.1514542,-47.22912052,1236.342903
1.3150,162.141167,-47.29475436,1236.371186
1.3200,162.1273653,-47.36262364,1236.400359
1.3250,162.1083777,-47.4330369,1236.430572
1.3300,162.0847207,-47.50670626,1236.461673
1.3350,162.0559853,-47.5839143,1236.493708
1.3400,162.0226095,-47.66379404,1236.526673
1.3450,161.98485,-47.74796465,1236.560486
1.3500,161.9432559,-47.83514812,1236.595134
1.3550,161.8981913,-47.92524231,1236.630618
1.3600,161.8508086,-48.01836329,1236.666909
1.3650,161.800751,-48.11448112,1236.704013
1.3700,161.7476602,-48.21363768,1236.742065
1.3750,161.6928425,-48.31630381,1236.780985
1.3800,161.6359524,-48.42201374,1236.820911
1.3850,161.5762199,-48.53073206,1236.861887
1.3900,161.5133043,-48.64307129,1236.904061
1.3950,161.4480117,-48.75753893,1236.94752
1.4000,161.3795613,-48.87583239,1236.992285
1.4050,161.3087352,-48.99795605,1237.038367
1.4100,161.2358489,-49.12169719,1237.085874
1.4150,161.1605248,-49.24909803,1237.134856
1.4200,161.0831702,-49.37937798,1237.185517
1.4250,161.0037959,-49.51215961,1237.237928
1.4300,160.9236488,-49.64800454,1237.29194
1.4350,160.8432309,-49.78792412,1237.347493
1.4400,160.7631761,-49.93090079,1237.404632
1.4450,160.6836958,-50.07624934,1237.46327
1.4500,160.6073221,-50.22380143,1237.523285
1.4550,160.5338906,-50.37315338,1237.584751
1.4600,160.4630152,-50.52402755,1237.647711
1.4650,160.396609,-50.67673417,1237.71196
1.4700,160.3356766,-50.83142891,1237.777399
1.4750,160.280559,-50.98681914,1237.844024
1.4800,160.2315505,-51.14264219,1237.911931
1.4850,160.1892603,-51.29864428,1237.981003
1.4900,160.1528258,-51.45377283,1238.051559
1.4950,160.1214024,-51.6088881,1238.123607
1.5000,160.0952679,-51.76292295,1238.197249
1.5050,160.074374,-51.91647109,1238.272488
1.5100,160.0579386,-52.06827199,1238.349631
1.5150,160.0446998,-52.21995173,1238.428767
1.5200,160.0353527,-52.37105125,1238.509964
1.5250,160.0275205,-52.52136013,1238.593536
1.5300,160.0223288,-52.67049374,1238.679437
1.5350,160.0196365,-52.81971302,1238.767657
1.5400,160.0176924,-52.96822911,1238.85851
1.5450,160.0164177,-53.1151568,1238.951902
1.5500,160.0143622,-53.26162461,1239.047939
1.5550,160.0124184,-53.40715777,1239.146384
1.5600,160.0101099,-53.55222403,1239.247199
1.5650,160.0070394,-53.69677495,1239.350263
1.5700,160.0026448,-53.8412033,1239.455609
1.5750,159.9971316,-53.98479608,1239.563134
1.5800,159.9903141,-54.12742338,1239.6727
1.5850,159.9797704,-54.26836874,1239.784531
1.5900,159.9665396,-54.40637327,1239.898454
1.5950,159.9501428,-54.54120604,1240.014432
1.6000,159.9310226,-54.67230652,1240.132317
1.6050,159.9073292,-54.80001465,1240.252294
1.6100,159.8795814,-54.92379965,1240.374306
1.6150,159.8471762,-55.0435873,1240.498257
1.6200,159.8086774,-55.15943064,1240.624244
1.6250,159.76285,-55.2712561,1240.752404
1.6300,159.7101594,-55.37869289,1240.88264
1.6350,159.6508836,-55.48174672,1241.014928
1.6400,159.5843617,-55.58156104,1241.149215
1.6450,159.5108498,-55.67623112,1241.285451
1.6500,159.429407,-55.76830507,1241.42364
1.6550,159.3399315,-55.8574289,1241.563656
1.6600,159.24267,-55.94261635,1241.705377
1.6650,159.138297,-56.02400842,1241.848677
1.6700,159.0281901,-56.1015918,1241.99319
1.6750,158.9121979,-56.17530818,1242.138837
1.6800,158.7910829,-56.24466393,1242.285272
1.6850,158.6649397,-56.30960732,1242.432522
1.6900,158.5352011,-56.3704532,1242.580212
1.6950,158.4004211,-56.42820267,1242.728441
1.7000,158.2628779,-56.48220257,1242.876825
1.7050,158.121721,-56.53138195,1243.025484
1.7100,157.9788493,-56.57736915,1243.174034
1.7150,157.8341104,-56.61803118,1243.322572
1.7200,157.6879932,-56.65365172,1243.470907
1.7250,157.5413248,-56.68443889,1243.618912
1.7300,157.3953997,-56.70979484,1243.76638
1.7350,157.2505509,-56.72949522,1243.913263
1.7400,157.1071695,-56.74339691,1244.059437
1.7450,156.9659029,-56.75228815,1244.204808
1.7500,156.8261066,-56.75564785,1244.349417
1.7550,156.6899853,-56.75441932,1244.492856
1.7600,156.5587053,-56.74907859,1244.634815
1.7650,156.4315177,-56.73862802,1244.77547
1.7700,156.3085237,-56.72327085,1244.914632
1.7750,156.1903647,-56.70353268,1245.052167
1.7800,156.0772618,-56.68000356,1245.188034
1.7850,155.9689139,-56.65284184,1245.322197
1.7900,155.8670351,-56.62203993,1245.454407
1.7950,155.7716859,-56.58785615,1245.584694
1.8000,155.683125,-56.5515193,1245.712899
1.8050,155.6018806,-56.51133773,1245.839065
1.8100,155.5280835,-56.46918531,1245.963057
1.8150,155.462398,-56.42546251,1246.084838
1.8200,155.4038673,-56.3801835,1246.204527
1.8250,155.3543418,-56.33210087,1246.321945
1.8300,155.3136694,-56.28310896,1246.437076
1.8350,155.2814906,-56.23388619,1246.550061
1.8400,155.258403,-56.18507377,1246.660789
1.8450,155.2442077,-56.13623671,1246.769371
1.8500,155.2386321,-56.08800766,1246.875886
1.8550,155.2426532,-56.04030432,1246.980282
1.8600,155.2563193,-55.99265795,1247.082519
1.8650,155.2803659,-55.94598256,1247.182524
1.8700,155.315622,-55.89965921,1247.280188
1.8750,155.3608971,-55.85369788,1247.3756
1.8800,155.4170756,-55.80836471,1247.468805
1.8850,155.4844537,-55.76355567,1247.559673
1.8900,155.5624527,-55.71914487,1247.648279
1.8950,155.6512207,-55.67491473,1247.734574
1.9000,155.7490425,-55.63127574,1247.818818
1.9050,155.8567752,-55.58697813,1247.900852
1.9100,155.9728202,-55.5428833,1247.980867
1.9150,156.0964073,-55.49872609,1248.059116
1.9200,156.2278742,-55.45430531,1248.135522
1.9250,156.3665567,-55.41026719,1248.210191
1.9300,156.5114163,-55.36586937,1248.283365
1.9350,156.6614246,-55.32092354,1248.355214
1.9400,156.8165217,-55.27501217,1248.425892
1.9450,156.9752245,-55.22853151,1248.495617
1.9500,157.1380557,-55.18076965,1248.564402
1.9550,157.3047619,-55.13214264,1248.63229
1.9600,157.4743162,-55.08311424,1248.69939
1.9650,157.646675,-55.03401327,1248.765782
1.9700,157.8200899,-54.98441189,1248.831772
1.9750,157.9944573,-54.93490011,1248.897362
1.9800,158.1692668,-54.88402381,1248.962786
1.9850,158.3448724,-54.83285966,1249.027833
1.9900,158.5203602,-54.78104316,1249.092717
1.9950,158.6976904,-54.72854767,1249.157054
2.0000,158.8751171,-54.67461094,1249.221185
2.0050,159.0535395,-54.62013677,1249.28493
2.0100,159.2325451,-54.5639645,1249.348258
2.0150,159.4121629,-54.50760057,1249.411075
2.0200,159.5935227,-54.45052797,1249.473163
2.0250,159.7765833,-54.3928229,1249.534389
2.0300,159.9609164,-54.33495117,1249.594837
2.0350,160.1461222,-54.27693248,1249.65452
2.0400,160.3316091,-54.21922397,1249.713481
2.0450,160.5171446,-54.1608634,1249.771871
2.0500,160.7022755,-54.10281528,1249.829651
2.0550,160.8864647,-54.04465561,1249.88685
2.0600,161.069419,-53.98685171,1249.943527
2.0650,161.2511698,-53.92931718,1249.999714
2.0700,161.4310542,-53.87146765,1250.055687
2.0750,161.6091606,-53.81426959,1250.111342
2.0800,161.7849601,-53.75725142,1250.166773
2.0850,161.9591577,-53.70034663,1250.22198
2.0900,162.1315167,-53.64311932,1250.276903
2.0950,162.3030736,-53.58450861,1250.331393
2.1000,162.4740135,-53.52455216,1250.38554
2.1050,162.6437934,-53.46423484,1250.439278
2.1100,162.8135284,-53.4039569,1250.492489
2.1150,162.9827218,-53.34187468,1250.545287
2.1200,163.1516156,-53.27908139,1250.597649
2.1250,163.3200079,-53.21724507,1250.649483
2.1300,163.4878002,-53.15563089,1250.700864
2.1350,163.6547454,-53.09363313,1250.751751
2.1400,163.8219467,-53.03152483,1250.801839
2.1450,163.9886074,-52.97031037,1250.851232
2.1500,164.1563622,-52.90966355,1250.899586
2.1550,164.3239771,-52.84991997,1250.947148
2.1600,164.4914144,-52.79174498,1250.993983
2.1650,164.658614,-52.73542478,1251.040054
2.1700,164.8250272,-52.68066708,1251.085486
2.1750,164.9917085,-52.62811466,1251.130085
2.1800,165.1562068,-52.57660247,1251.174176
2.1850,165.3191125,-52.52721077,1251.217599
2.1900,165.479887,-52.47906388,1251.260392
2.1950,165.6385475,-52.43210663,1251.302567
2.2000,165.7964396,-52.38654088,1251.343917
2.2050,165.9515293,-52.34238689,1251.384727
2.2100,166.1056633,-52.29961289,1251.424875
2.2150,166.2590271,-52.25700321,1251.464355
2.2200,166.4104424,-52.21474826,1251.50345
2.2250,166.5606597,-52.17061229,1251.54205
2.2300,166.7090323,-52.12566651,1251.58039
2.2350,166.8554171,-52.07925302,1251.618478
2.2400,166.9997082,-52.03121994,1251.656326
2.2450,167.1421563,-51.98091333,1251.693984
2.2500,167.2818075,-51.92684538,1251.731552
2.2550,167.4188352,-51.86933085,1251.769045
2.2600,167.5536856,-51.80968011,1251.806467
2.2650,167.683816,-51.74609153,1251.844285
2.2700,167.8104196,-51.6799594,1251.882277
2.2750,167.9325563,-51.60986172,1251.920659
2.2800,168.0509359,-51.53671308,1251.959359
2.2850,168.1652381,-51.45962713,1251.998388
2.2900,168.2757911,-51.37861953,1252.03775
2.2950,168.3823467,-51.29365221,1252.077504
2.3000,168.4852162,-51.20423451,1252.117574
2.3050,168.5832618,-51.11004147,1252.158066
2.3100,168.6767807,-51.01235234,1252.198982
2.3150,168.7656052,-50.90970517,1252.240282
2.3200,168.8489029,-50.80300456,1252.282085
2.3250,168.9270451,-50.6912318,1252.324435
2.3300,169.0001471,-50.57478916,1252.367224
2.3350,169.0680117,-50.4526795,1252.410514
2.3400,169.1324376,-50.32466337,1252.454008
2.3450,169.1932836,-50.19064847,1252.497782
2.3500,169.2502868,-50.05005888,1252.541917
2.3550,169.3038134,-49.90178393,1252.586429
2.3600,169.3550791,-49.74508701,1252.631201
2.3650,169.4045791,-49.58079578,1252.676132
2.3700,169.4526308,-49.40874251,1252.721208
2.3750,169.4993742,-49.22721681,1252.766571
2.3800,169.545253,-49.03605498,1252.812196
2.3850,169.5901541,-48.83602899,1252.858102
2.3900,169.6334412,-48.62653612,1252.904512
2.3950,169.6746672,-48.40898154,1252.951477
2.4000,169.7147718,-48.18176479,1252.998898
2.4050,169.7541039,-47.94528422,1253.046748
2.4100,169.7925934,-47.69757779,1253.095106
2.4150,169.8303682,-47.43916218,1253.143907
2.4200,169.8679646,-47.17097375,1253.192979
2.4250,169.9037021,-46.8911836,1253.242688
2.4300,169.93929,-46.60165486,1253.292625
2.4350,169.9743997,-46.3018695,1253.342853
2.4400,170.0080793,-45.99230497,1253.393629
2.4450,170.0413194,-45.67378779,1253.444764
2.4500,170.0727601,-45.34580874,1253.496558
2.4550,170.1028246,-45.01023574,1253.548851
2.4600,170.1312985,-44.66564311,1253.601636
2.4650,170.1570535,-44.3118913,1253.655237
2.4700,170.1801844,-43.94989637,1253.709508
2.4750,170.198913,-43.57954649,1253.764831
2.4800,170.2144385,-43.20109087,1253.821014
2.4850,170.2262535,-42.81338275,1253.878273
2.4900,170.2342074,-42.41719939,1253.936651
2.4950,170.2378916,-42.01194388,1253.996337
2.5000,170.236709,-41.59765334,1254.057473
2.5050,170.2313802,-41.17510063,1254.119972
2.5100,170.2204018,-40.74310693,1254.184153
2.5150,170.2041701,-40.30220917,1254.249949
2.5200,170.1823863,-39.85344513,1254.317392
2.5250,170.1547535,-39.39761252,1254.386565
2.5300,170.1216011,-38.93413129,1254.457272
2.5350,170.081996,-38.46431925,1254.529657
2.5400,170.0364922,-37.98912377,1254.603503
2.5450,169.9850704,-37.50899988,1254.67882
2.5500,169.9272727,-37.02550378,1254.755632
2.5550,169.8629654,-36.53898049,1254.833883
2.5600,169.7918074,-36.04931316,1254.913549
2.5650,169.7148279,-35.55876129,1254.994248
2.5700,169.6319875,-35.06808153,1255.075971
2.5750,169.5441568,-34.57857244,1255.158381
2.5800,169.4487872,-34.0912684,1255.241743
2.5850,169.3465538,-33.60720594,1255.325951
2.5900,169.2367854,-33.12652365,1255.411037
2.5950,169.1190721,-32.64869015,1255.497156
2.6000,168.9946792,-32.17568031,1255.583912
2.6050,168.8637347,-31.7080953,1255.671161
2.6100,168.72633,-31.24402393,1255.759111
2.6150,168.5823531,-30.78521511,1255.847595
2.6200,168.4325769,-30.33050618,1255.936575
2.6250,168.2758713,-29.88021932,1256.026248
2.6300,168.1135307,-29.43300607,1256.116488
2.6350,167.9460012,-28.98947821,1256.207188
2.6400,167.7731594,-28.54889769,1256.298495
2.6450,167.5956436,-28.11184504,1256.390159
2.6500,167.4144238,-27.67755148,1256.482089
2.6550,167.2304936,-27.24633201,1256.57428
2.6600,167.0438666,-26.81799184,1256.666624
2.6650,166.8550536,-26.39164216,1256.759156
2.6700,166.6636061,-25.96747337,1256.85194
2.6750,166.4697894,-25.54514636,1256.94499
2.6800,166.2739508,-25.12529218,1257.038045
2.6850,166.0750795,-24.7066922,1257.131493
2.6900,165.8738901,-24.29031258,1257.225051
2.6950,165.6705935,-23.8752942,1257.318794
2.7000,165.4643814,-23.46273877,1257.412724
2.7050,165.2546266,-23.05140165,1257.507179
2.7100,165.041487,-22.64233855,1257.602024
2.7150,164.8248036,-22.23608516,1257.697281
2.7200,164.6044009,-21.8308869,1257.793216
2.7250,164.3819593,-21.42734154,1257.889454
2.7300,164.1565663,-21.02376492,1257.986452
2.7350,163.9288533,-20.62135558,1258.083998
2.7400,163.698264,-20.21870155,1258.182361
2.7450,163.4658441,-19.8142332,1258.28153
2.7500,163.2304669,-19.40944074,1258.381613
2.7550,162.9922595,-19.00294109,1258.482736
2.7600,162.7519464,-18.59457195,1258.584885
2.7650,162.5096182,-18.18541135,1258.687889
2.7700,162.2644214,-17.77511096,1258.792029
2.7750,162.0170609,-17.36370651,1258.897196
2.7800,161.7681212,-16.95189962,1259.00312
2.7850,161.517287,-16.54078802,1259.109792
2.7900,161.26347,-16.12977507,1259.217531
2.7950,161.0070614,-15.71964376,1259.326101
2.8000,160.7484184,-15.31013618,1259.435496
2.8050,160.4871094,-14.9011621,1259.545743
2.8100,160.2229375,-14.49448091,1259.656609
2.8150,159.9556665,-14.08982915,1259.768282
2.8200,159.6842765,-13.68728661,1259.880819
2.8250,159.4087072,-13.28651199,1259.994231
2.8300,159.1288303,-12.88804679,1260.108627
2.8350,158.8462887,-12.49181395,1260.22361
2.8400,158.5597386,-12.09777592,1260.339642
2.8450,158.2686958,-11.70564225,1260.456714
2.8500,157.973278,-11.31519808,1260.574902
2.8550,157.6743967,-10.92768089,1260.693761
2.8600,157.3715326,-10.54208746,1260.813608
2.8650,157.0648861,-10.15878162,1260.934265
2.8700,156.7531525,-9.777294387,1261.05619
2.8750,156.4363396,-9.39808471,1261.17927
2.8800,156.1151774,-9.021829267,1261.303319
2.8850,155.7890344,-8.648955732,1261.428464
2.8900,155.4586007,-8.279029227,1261.554574
2.8950,155.1227338,-7.913956631,1261.681628
2.9000,154.7820899,-7.553273483,1261.809616
2.9050,154.435847,-7.195776415,1261.9389
2.9100,154.0837871,-6.842368405,1262.069404
2.9150,153.7266468,-6.491345019,1262.20117
2.9200,153.3648305,-6.143652587,1262.333897
2.9250,152.999,-5.799714724,1262.467332
2.9300,152.6281881,-5.459129943,1262.60174
2.9350,152.2546166,-5.12174382,1262.73659
2.9400,151.8771789,-4.787096582,1262.87231
2.9450,151.4975567,-4.455591332,1263.008333
2.9500,151.1150325,-4.127232033,1263.144923
2.9550,150.7297506,-3.802272417,1263.281897
2.9600,150.3415074,-3.481545588,1263.419358
2.9650,149.9504357,-3.165047057,1263.55727
2.9700,149.5578993,-2.851876133,1263.695452
2.9750,149.1640614,-2.543655342,1263.833524
2.9800,148.768794,-2.239398469,1263.971787
2.9850,148.3746891,-1.939026147,1264.109534
2.9900,147.98159,-1.643281921,1264.246672
2.9950,147.5895543,-1.352459215,1264.383194
3.0000,147.1985872,-1.065786883,1264.519244
3.0050,146.8095212,-0.7845533815,1264.654387
3.0100,146.4219422,-0.5083294773,1264.788802
3.0150,146.0361648,-0.2369158024,1264.922428
3.0200,145.65187,0.02977650016,1265.055419
3.0250,145.268649,0.2904444058,1265.187571
3.0300,144.8862865,0.5462590964,1265.319144
3.0350,144.5036711,0.7975752482,1265.450609
3.0400,144.1225474,1.043278731,1265.581142
3.0450,143.7422035,1.283574615,1265.710962
3.0500,143.3635932,1.519318785,1265.83997
3.0550,142.9870849,1.751610628,1265.968195
3.0600,142.6126952,1.979334621,1266.095294
3.0650,142.2412768,2.204389993,1266.221397
3.0700,141.8738363,2.426772997,1266.346235
3.0750,141.5108146,2.64649374,1266.469595
3.0800,141.1514813,2.863249283,1266.591752
3.0850,140.7969187,3.078368144,1266.712512
3.0900,140.4473573,3.289500484,1266.831426
3.0950,140.1021861,3.496455056,1266.948663
3.1000,139.7598726,3.698812188,1267.064547
3.1050,139.4206733,3.895548341,1267.178896
3.1100,139.0849019,4.086910621,1267.291604
3.1150,138.7504588,4.27158708,1267.403027
3.1200,138.418417,4.449690429,1267.512884
3.1250,138.0873572,4.619331457,1267.62139
3.1300,137.7571285,4.781441331,1267.728621
3.1350,137.4262062,4.936514691,1267.835174
3.1400,137.0944619,5.085150605,1267.94112
3.1450,136.7629267,5.226212632,1268.045926
3.1500,136.4306378,5.360906582,1268.150024
3.1550,136.0979814,5.490725576,1268.253671
3.1600,135.7647134,5.61610194,1268.357049
3.1650,135.4317271,5.737509773,1268.460058
3.1700,135.0995307,5.855940019,1268.562567
3.1750,134.7681017,5.973628026,1268.665243
3.1800,134.4398246,6.092018428,1268.767482
3.1850,134.1151302,6.212563184,1268.869402
3.1900,133.794239,6.335868145,1268.971181
3.1950,133.4796894,6.463812886,1269.072353
3.2000,133.1702838,6.597605415,1269.17363
3.2050,132.8687962,6.738335991,1269.274374
3.2100,132.574693,6.886100481,1269.37474
3.2150,132.2883241,7.040794639,1269.474676
3.2200,132.0091691,7.204689112,1269.574863
3.2250,131.7385159,7.378247499,1269.674946
3.2300,131.477084,7.561424625,1269.774781
3.2350,131.2232865,7.755174848,1269.875098
3.2400,130.9778203,7.958948387,1269.975479
3.2450,130.7403947,8.174141609,1270.076368
3.2500,130.5116497,8.400675766,1270.177563
3.2550,130.2915661,8.638640799,1270.279025
3.2600,130.0789183,8.888818146,1270.381299
3.2650,129.8737408,9.151164428,1270.48439
3.2700,129.6756058,9.424067375,1270.588068
3.2750,129.4843467,9.70771283,1270.692461
3.2800,129.2995871,10.00140851,1270.797508
3.2850,129.1207732,10.30396634,1270.903107
3.2900,128.9473271,10.61552026,1271.009488
3.2950,128.7799159,10.93497,1271.116091
3.3000,128.6177606,11.26080904,1271.222873
3.3050,128.4605237,11.59229158,1271.329768
3.3100,128.3086606,11.92817694,1271.436314
3.3150,128.1619012,12.26789775,1271.542526
3.3200,128.020357,12.60957276,1271.647818
3.3250,127.8838385,12.95247672,1271.75224
3.3300,127.7507907,13.29540726,1271.855986
3.3350,127.622997,13.6375889,1271.95811
3.3400,127.4985185,13.97820893,1272.059175
3.3450,127.3773098,14.31579262,1272.158774
3.3500,127.2595692,14.64932433,1272.256528
3.3550,127.1434043,14.97777448,1272.352888
3.3600,127.0283481,15.3005631,1272.447881
3.3650,126.9143755,15.61662052,1272.541206
3.3700,126.8005838,15.92566721,1272.632979
3.3750,126.6862865,16.22698938,1272.723329
3.3800,126.5725837,16.52036338,1272.811638
3.3850,126.4581165,16.80466421,1272.89814
3.3900,126.3432795,17.08127269,1272.982919
3.3950,126.2276758,17.34964182,1273.065907
3.4000,126.1116251,17.60925431,1273.146942
3.4050,125.9945605,17.86179386,1273.226495
3.4100,125.8762948,18.10584169,1273.304287
3.4150,125.7583456,18.34278319,1273.379968
3.4200,125.6399909,18.57276949,1273.453905
3.4250,125.522233,18.79674704,1273.525794
3.4300,125.4037099,19.01403842,1273.596064
3.4350,125.2848443,19.22555756,1273.664771
3.4400,125.1665629,19.43234416,1273.731778
3.4450,125.0475826,19.63647067,1273.7982
3.4500,124.9306081,19.83807538,1273.863122
3.4550,124.8133488,20.03810351,1273.927745
3.4600,124.6955693,20.23737116,1273.992467
3.4650,124.5769388,20.43747411,1274.057732
3.4700,124.4573235,20.63912088,1274.123917
3.4750,124.3371355,20.84285744,1274.19106
3.4800,124.2152392,21.04976191,1274.259871
3.4850,124.0912052,21.26079229,1274.330913
3.4900,123.965318,21.47610919,1274.404138
3.4950,123.8365757,21.69653725,1274.480198
3.5000,123.7040358,21.92376945,1274.559893
3.5050,123.5676181,22.15652784,1274.643041
3.5100,123.4266279,22.39688821,1274.730565
3.5150,123.2816563,22.64515384,1274.822374
3.5200,123.1326094,22.90130463,1274.91851
3.5250,122.9790446,23.16497018,1275.019118
3.5300,122.8204875,23.4360841,1275.124348
3.5350,122.657756,23.71431169,1275.233792
3.5400,122.4906965,23.99992862,1275.347542
3.5450,122.318929,24.29217156,1275.465633
3.5500,122.1428494,24.59083189,1275.58786
3.5550,121.961223,24.89465105,1275.71442
3.5600,121.7747528,25.20331047,1275.844974
3.5650,121.5831644,25.51665208,1275.979479
3.5700,121.3868588,25.83581129,1276.118096
3.5750,121.184356,26.15941194,1276.261094
3.5800,120.9772013,26.48775988,1276.407962
3.5850,120.7648492,26.82034787,1276.55882
3.5900,120.5481924,27.15680883,1276.713157
3.5950,120.3255784,27.49589114,1276.87133
3.6000,120.0974724,27.83699815,1277.032956
3.6050,119.8638353,28.17953098,1277.197934
3.6100,119.6236319,28.52231034,1277.366451
3.6150,119.3771947,28.86395793,1277.537987
3.6200,119.123763,29.2043,1277.712889
3.6250,118.8619788,29.54272351,1277.891436
3.6300,118.5923445,29.87787179,1278.073103
3.6350,118.3129295,30.20921021,1278.258554
3.6400,118.0239079,30.53683527,1278.447678
3.6450,117.723836,30.86009573,1278.640816
3.6500,117.4121563,31.17866185,1278.838126
3.6550,117.089397,31.49133652,1279.038939
3.6600,116.7560198,31.79757273,1279.242943
3.6650,116.4110347,32.09641524,1279.450154
3.6700,116.0546017,32.38822426,1279.660593
3.6750,115.6865151,32.67214869,1279.874143
3.6800,115.306689,32.94808768,1280.090782
3.6850,114.914953,33.2160949,1280.310555
3.6900,114.5124855,33.47498536,1280.532533
3.6950,114.098823,33.7256444,1280.757293
3.7000,113.6750471,33.96809682,1280.984304
3.7050,113.2410053,34.20119276,1281.213276
3.7100,112.7968608,34.42687362,1281.444755
3.7150,112.3417873,34.64425983,1281.678871
3.7200,111.8748262,34.85443126,1281.9164
3.7250,111.3964635,35.05756068,1282.157338
3.7300,110.9072553,35.25528502,1282.402022
3.7350,110.4066927,35.44779531,1282.650731
3.7400,109.8930669,35.63545643,1282.904629
3.7450,109.3666181,35.81979046,1283.164211
3.7500,108.8254039,36.00298798,1283.431206
3.7550,108.2700876,36.18637145,1283.705733
3.7600,107.7016574,36.37216387,1283.988225
3.7650,107.119371,36.56226228,1284.279857
3.7700,106.524375,36.75774027,1284.580609
3.7750,105.9157482,36.96037313,1284.891634
3.7800,105.2928334,37.17102772,1285.213814
3.7850,104.6572963,37.3909076,1285.546978
3.7900,104.0089056,37.62182095,1285.891962
3.7950,103.3484127,37.86368606,1286.248574
3.8000,102.6779238,38.11618309,1286.615916
3.8050,101.9987079,38.38111896,1286.994062
3.8100,101.3124249,38.6580984,1287.382235
3.8150,100.6210048,38.94752909,1287.779701
3.8200,99.92656852,39.24855306,1288.185336
3.8250,99.22948871,39.56157404,1288.599216
3.8300,98.53189784,39.88622331,1289.020327
3.8350,97.83432252,40.22145801,1289.448204
3.8400,97.1379761,40.5664364,1289.882158
3.8450,96.44317387,40.92029371,1290.321765
3.8500,95.75159811,41.2818368,1290.765821
3.8550,95.06555289,41.65135371,1291.213238
3.8600,94.38618771,42.02893176,1291.663464
3.8650,93.71480813,42.41232896,1292.115137
3.8700,93.05280168,42.8007406,1292.567157
3.8750,92.40192298,43.19406571,1293.018506
3.8800,91.76130711,43.5895275,1293.46874
3.8850,91.1313753,43.98618822,1293.917188
3.8900,90.5116203,44.38336031,1294.363973
3.8950,89.90356457,44.77923108,1294.807438
3.9000,89.30748226,45.17314896,1295.247252
3.9050,88.72325845,45.56394508,1295.682799
3.9100,88.15032234,45.94951852,1296.113487
3.9150,87.58803222,46.32797544,1296.538825
3.9200,87.03696932,46.69837466,1296.957823
3.9250,86.49728566,47.05869119,1297.369563
3.9300,85.96849804,47.40787996,1297.773657
3.9350,85.45073717,47.74427087,1298.16926
3.9400,84.94357061,48.06638018,1298.555906
3.9450,84.44695211,48.3735364,1298.93328
3.9500,83.96146656,48.66446232,1299.300285
3.9550,83.48666387,48.93922943,1299.657068
3.9600,83.02154332,49.19783877,1300.004038
3.9650,82.5672667,49.44012798,1300.340282
3.9700,82.12443964,49.66522976,1300.665036
3.9750,81.69326449,49.87326504,1300.977848
3.9800,81.27273249,50.06433512,1301.279332
3.9850,80.86333993,50.23806163,1301.569011
3.9900,80.46375276,50.39529533,1301.847888
3.9950,80.07465148,50.53612593,1302.115397
4.0000,79.69510889,50.66078167,1302.372059
4.0050,79.32573804,50.76966983,1302.617726
4.0100,78.96636731,50.86281213,1302.85236
4.0150,78.61666952,50.94126478,1303.076544
4.0200,78.27794521,51.00476731,1303.289346
4.0250,77.9483465,51.05419669,1303.492168
4.0300,77.62794564,51.09011195,1303.685057
4.0350,77.31748361,51.1133211,1303.868002
4.0400,77.01688386,51.12503107,1304.041366
4.0450,76.7262481,51.12564503,1304.205181
4.0500,76.44625013,51.11432544,1304.358666
4.0550,76.17628138,51.09345933,1304.503188
4.0600,75.91574533,51.06288678,1304.638979
4.0650,75.66454161,51.0238459,1304.76659
4.0700,75.42257531,50.97745408,1304.886447
4.0750,75.18980145,50.92397176,1304.998623
4.0800,74.96730897,50.86530693,1305.103227
4.0850,74.75415627,50.80179472,1305.200864
4.0900,74.55072751,50.73427246,1305.291649
4.0950,74.35666459,50.6641235,1305.376326
4.1000,74.17236762,50.59214418,1305.454954
4.1050,73.99726536,50.51908051,1305.528283
4.1100,73.83135563,50.44442415,1305.595942
4.1150,73.67416167,50.36926848,1305.658821
4.1200,73.52455705,50.29434541,1305.71793
4.1250,73.38363933,50.2190855,1305.772359
4.1300,73.24965234,50.14454191,1305.82356
4.1350,73.12375475,50.0707968,1305.870733
4.1400,73.00525232,49.99789559,1305.914284
4.1450,72.89475529,49.92586697,1305.953878
4.1500,72.79080944,49.85391912,1305.990089
4.1550,72.69348389,49.78254438,1306.023028
4.1600,72.60205504,49.71022325,1306.052422
4.1650,72.51640581,49.63796396,1306.078723
4.1700,72.43601226,49.56505494,1306.102107
4.1750,72.36130007,49.49167544,1306.122339
4.1800,72.29199002,49.41907803,1306.13993
4.1850,72.22768346,49.34750296,1306.155259
4.1900,72.1691266,49.27745508,1306.167984
4.1950,72.11617352,49.20984766,1306.178503
4.2000,72.06774547,49.14315963,1306.186955
4.2050,72.02380526,49.07798105,1306.193545
4.2100,71.98458776,49.01443482,1306.198195
4.2150,71.94992549,48.95330239,1306.201245
4.2200,71.91869621,48.89211934,1306.202583
4.2250,71.89084608,48.831887,1306.202505
4.2300,71.8652502,48.77220852,1306.201637
4.2350,71.84245196,48.71336324,1306.199635
4.2400,71.82153012,48.65441721,1306.196706
4.2450,71.80298427,48.59489224,1306.192356
4.2500,71.7855743,48.53567395,1306.187585
4.2550,71.76944534,48.47582676,1306.181964
4.2600,71.75398423,48.41526116,1306.175751
4.2650,71.73902553,48.35362074,1306.168937
4.2700,71.72327187,48.29038427,1306.162047
4.2750,71.7072196,48.22607433,1306.155005
4.2800,71.69106654,48.16094307,1306.147748
4.2850,71.67419363,48.09439942,1306.140362
4.2900,71.65719143,48.0272349,1306.132799
4.2950,71.64073714,47.95910544,1306.124511
4.3000,71.62439285,47.8902353,1306.115863
4.3050,71.60860092,47.82134603,1306.106698
4.3100,71.59332765,47.75188532,1306.096929
4.3150,71.57857642,47.68223071,1306.086817
4.3200,71.56424749,47.61312441,1306.07655
4.3250,71.55108363,47.54457645,1306.065616
4.3300,71.53863679,47.47563694,1306.054113
4.3350,71.52684514,47.40639268,1306.042003
4.3400,71.51593878,47.336418,1306.029079
4.3450,71.50593541,47.26573135,1306.015229
4.3500,71.49578928,47.19444267,1306.001267
4.3550,71.48546853,47.1216851,1305.986858
4.3600,71.47518422,47.04694262,1305.971689
4.3650,71.46415515,46.97033188,1305.956277
4.3700,71.45267248,46.89106442,1305.940093
4.3750,71.44067365,46.80940693,1305.923358
4.3800,71.42848491,46.72429107,1305.905352
4.3850,71.41608517,46.63631839,1305.886363
4.3900,71.40373314,46.54460926,1305.865825
4.3950,71.39118998,46.44930232,1305.843995
4.4000,71.37867608,46.35045652,1305.820688
4.4050,71.36520832,46.24788698,1305.796504
4.4100,71.35140913,46.14244513,1305.77146
4.4150,71.33674841,46.03309359,1305.745408
4.4200,71.32165372,45.91999973,1305.718107
4.4250,71.30614862,45.80463186,1305.690041
4.4300,71.29136548,45.68568906,1305.660059
4.4350,71.2765093,45.56460288,1305.629233
4.4400,71.26212244,45.44143316,1305.597286
4.4450,71.24826332,45.31663671,1305.564347
4.4500,71.23525617,45.1918902,1305.530802
4.4550,71.22159307,45.06674198,1305.497496
4.4600,71.20810087,44.9415824,1305.464183
4.4650,71.19448873,44.81769222,1305.431511
4.4700,71.18060716,44.69447527,1305.39934
4.4750,71.16587159,44.57180802,1305.368042
4.4800,71.15104601,44.45060026,1305.337419
4.4850,71.13622535,44.33009737,1305.307146
4.4900,71.12068506,44.21025821,1305.27761
4.4950,71.10482451,44.09148307,1305.248863
4.5000,71.08881998,43.97395085,1305.220701
4.5050,71.07319148,43.85745854,1305.192856
4.5100,71.05755094,43.74154113,1305.165244
4.5150,71.04249949,43.6264994,1305.137623
4.5200,71.02839603,43.51308881,1305.110093
4.5250,71.01419241,43.39950454,1305.082659
4.5300,71.00156475,43.28590142,1305.054258
4.5350,70.98954225,43.17123147,1305.025117
4.5400,70.97869476,43.05613833,1304.995121
4.5450,70.96880329,42.94031609,1304.964198
4.5500,70.95980378,42.82259291,1304.932052
4.5550,70.95204753,42.7037855,1304.898697
4.5600,70.94631881,42.58361404,1304.863606
4.5650,70.94163464,42.46276932,1304.827614
4.5700,70.93899944,42.3409555,1304.790061
4.5750,70.93807813,42.21739061,1304.750871
4.5800,70.93876215,42.09160435,1304.70993
4.5850,70.94193964,41.96469093,1304.667107
4.5900,70.94762741,41.8355025,1304.621978
4.5950,70.95507829,41.70373622,1304.574847
4.6000,70.96535331,41.56989884,1304.52529
4.6050,70.97876269,41.43389089,1304.473165
4.6100,70.99405032,41.29570358,1304.419204
4.6150,71.01273857,41.1545609,1304.361985
4.6200,71.03465678,41.01084695,1304.301913
4.6250,71.06008929,40.86357281,1304.238464
4.6300,71.08999379,40.71313182,1304.17117
4.6350,71.12345393,40.55940058,1304.100532
4.6400,71.16142677,40.40275754,1304.026106
4.6450,71.20319265,40.2423292,1303.948092
4.6500,71.2492803,40.07746475,1303.865943
4.6550,71.2990912,39.90783543,1303.779886
4.6600,71.3521079,39.73247104,1303.68996
4.6650,71.40936622,39.55160072,1303.595489
4.6700,71.46969408,39.36533514,1303.497372
4.6750,71.53366397,39.17346459,1303.395093
4.6800,71.59992592,38.9758586,1303.289476
4.6850,71.66893576,38.77210203,1303.179978
4.6900,71.74022509,38.56289249,1303.06722
4.6950,71.81422751,38.34843144,1302.95104
4.7000,71.89014878,38.12876086,1302.831988
4.7050,71.96853675,37.90394996,1302.709664
4.7100,72.0494129,37.67465153,1302.584328
4.7150,72.13187075,37.44155973,1302.456897
4.7200,72.21620534,37.20503725,1302.327346
4.7250,72.30216151,36.9652124,1302.195926
4.7300,72.389526,36.72290272,1302.063017
4.7350,72.47863231,36.47872653,1301.92877
4.7400,72.56947001,36.23233037,1301.792923
4.7450,72.66102748,35.98557923,1301.656804
4.7500,72.75418884,35.73782168,1301.519584
4.7550,72.849434,35.49058032,1301.38159
4.7600,72.94650173,35.24462368,1301.243179
4.7650,73.04535618,34.99970829,1301.104316
4.7700,73.14549255,34.75697071,1300.965688
4.7750,73.24816595,34.51697057,1300.826691
4.7800,73.35278384,34.27961897,1300.687712
4.7850,73.45908239,34.04639757,1300.549464
4.7900,73.56710385,33.81627924,1300.411542
4.7950,73.67607097,33.59025777,1300.274756
4.8000,73.78686839,33.36902685,1300.138755
4.8050,73.89888121,33.1526865,1300.00395
4.8100,74.01307549,32.94153209,1299.869859
4.8150,74.12883178,32.73508339,1299.736823
4.8200,74.24578981,32.53340318,1299.604932
4.8250,74.36509772,32.33822507,1299.474104
4.8300,74.4864243,32.14924404,1299.344567
4.8350,74.61034138,31.96641874,1299.215905
4.8400,74.73633138,31.78989065,1299.088481
4.8450,74.86474749,31.61951688,1298.962139
4.8500,74.99571507,31.45573349,1298.83695
4.8550,75.12822728,31.29804436,1298.713386
4.8600,75.26288497,31.14579649,1298.590862
4.8650,75.39961707,30.99840546,1298.469285
4.8700,75.53761766,30.85611864,1298.349162
4.8750,75.67660615,30.71863624,1298.23058
4.8800,75.81694687,30.58587804,1298.113279
4.8850,75.95843185,30.45735868,1297.997228
4.8900,76.10048986,30.3334247,1297.882813
4.8950,76.24331711,30.21355189,1297.769799
4.9000,76.38732609,30.0974644,1297.657726
4.9050,76.53068989,29.98411287,1297.547445
4.9100,76.67487636,29.87374865,1297.438072
4.9150,76.81809295,29.76528797,1297.330499
4.9200,76.96055166,29.65777047,1297.224299
4.9250,77.10161607,29.55225936,1297.120107
4.9300,77.24079022,29.44849869,1297.018168
4.9350,77.37839253,29.34569272,1296.918032
4.9400,77.51359707,29.24329957,1296.81989
4.9450,77.6475657,29.14030325,1296.722819
4.9500,77.77987082,29.03753362,1296.627234
4.9550,77.9106286,28.93460105,1296.533027
4.9600,78.04045864,28.83316573,1296.440256
4.9650,78.16991286,28.73131425,1296.34811
4.9700,78.29882933,28.63025317,1296.257068
4.9750,78.42690253,28.52895523,1296.167093
4.9800,78.55535687,28.4268077,1296.077211
4.9850,78.68327777,28.32431006,1295.9883
4.9900,78.81090809,28.22030117,1295.899846
4.9950,78.93792752,28.11480262,1295.81206
5.0000,79.06461408,28.00806085,1295.724859
5.0050,79.19119458,27.89946682,1295.63795
5.0100,79.31674089,27.78771755,1295.551499
5.0150,79.44291262,27.67320939,1295.464581
5.0200,79.56834948,27.55624398,1295.378198
5.0250,79.69256957,27.43651924,1295.292468
5.0300,79.81660579,27.31377444,1295.206795
5.0350,79.94011246,27.18826478,1295.121428
5.0400,80.06361019,27.06086937,1295.036436
5.0450,80.18822445,26.93027695,1294.950717
5.0500,80.31408894,26.79708504,1294.864457
5.0550,80.44087227,26.66057259,1294.777645
5.0600,80.56868857,26.5215813,1294.69049
5.0650,80.69816078,26.37916298,1294.602425
5.0700,80.82990175,26.23447373,1294.513401
5.0750,80.96334312,26.08744138,1294.423733
5.0800,81.09979319,25.93734384,1294.332457
5.0850,81.23932503,25.78446556,1294.239526
5.0900,81.38247022,25.62898877,1294.144718
5.0950,81.52971551,25.47142431,1294.047864
5.1000,81.68089331,25.31111278,1293.948978
5.1050,81.83726955,25.14788204,1293.847275
5.1100,81.99886368,24.98189971,1293.742849
5.1150,82.16609438,24.8127484,1293.63524
5.1200,82.33957007,24.64058379,1293.524277
5.1250,82.51956135,24.4644166,1293.409554
5.1300,82.70570861,24.28310187,1293.290958
5.1350,82.89819265,24.09786829,1293.168704
5.1400,83.09722326,23.90796717,1293.04246
5.1450,83.30298818,23.71421268,1292.912314
5.1500,83.51574816,23.51569921,1292.77776
5.1550,83.73592159,23.31258261,1292.638679
5.1600,83.96200555,23.10516013,1292.495999
5.1650,84.19322524,22.89296825,1292.349978
5.1700,84.43058348,22.676172,1292.200132
5.1750,84.67404281,22.45519381,1292.046659
5.1800,84.9226851,22.23017368,1291.890075
5.1850,85.17788984,22.00116371,1291.729679
5.1900,85.43958071,21.76822626,1291.565594
5.1950,85.70756833,21.53127409,1291.397923
5.2000,85.98083845,21.28983926,1291.227202
5.2050,86.26052078,21.043539,1291.052595
5.2100,86.54488009,20.79230425,1290.875185
5.2150,86.83470502,20.53613057,1290.694481
5.2200,87.1284148,20.27452778,1290.511183
5.2250,87.42638366,20.00745645,1290.325055
5.2300,87.72849737,19.73424426,1290.135926
5.2350,88.03295024,19.45550593,1289.944958
5.2400,88.34047445,19.1715916,1289.751829
5.2450,88.64844327,18.8833517,1289.558204
5.2500,88.95830825,18.59111743,1289.363476
5.2550,89.27039386,18.29425377,1289.167302
5.2600,89.58412979,17.99239934,1288.969845
5.2650,89.89892785,17.68686714,1288.77179
5.2700,90.21424969,17.37682991,1288.573161
5.2750,90.53106047,17.06285933,1288.373437
5.2800,90.84830434,16.74591823,1288.173514
5.2850,91.16646717,16.42482654,1287.972772
5.2900,91.48447202,16.10118237,1287.772172
5.2950,91.80323123,15.77488964,1287.57114
5.3000,92.12243736,15.44558107,1287.36977
5.3050,92.44177164,15.11378418,1287.168366
5.3100,92.76130646,14.78039783,1286.967146
5.3150,93.08109116,14.44533468,1286.76612
5.3200,93.40280013,14.10712124,1286.56396
5.3250,93.72738366,13.76680946,1286.360748
5.3300,94.05500305,13.4244902,1286.156351
5.3350,94.38634815,13.07976321,1285.950366
5.3400,94.72187695,12.73143378,1285.742399
5.3450,95.06200121,12.37987071,1285.532315
5.3500,95.40641681,12.02461467,1285.320264
5.3550,95.75661519,11.66578274,1285.105431
5.3600,96.11288778,11.30231789,1284.887469
5.3650,96.47514118,10.93650856,1284.666976
5.3700,96.84274682,10.56640619,1284.443858
5.3750,97.21651806,10.19212609,1284.217712
5.3800,97.59686674,9.814453821,1283.988609
5.3850,97.98435734,9.433699884,1283.756301
5.3900,98.37915375,9.050117452,1283.520886
5.3950,98.78152822,8.66322579,1283.282079
5.4000,99.19227042,8.27409549,1283.039762
5.4050,99.61097196,7.88201736,1282.793919
5.4100,100.036955,7.488300825,1282.54519
5.4150,100.4697594,7.092816636,1282.293836
5.4200,100.9096353,6.696113599,1282.039813
5.4250,101.3562469,6.298389789,1281.783314
5.4300,101.8089285,5.900685338,1281.524851
5.4350,102.2671984,5.502430346,1281.264704
5.4400,102.7294878,5.104552476,1281.003858
5.4450,103.1948205,4.706491588,1280.742762
5.4500,103.6623874,4.30986416,1280.482271
5.4550,104.1316512,3.914608661,1280.222636
5.4600,104.6027112,3.520802491,1279.963871
5.4650,105.0757783,3.129231485,1279.706182
5.4700,105.5502041,2.739905818,1279.4499
5.4750,106.0244967,2.353039502,1279.195704
5.4800,106.498325,1.967441597,1278.943583
5.4850,106.9695855,1.582638287,1278.69426
5.4900,107.4374523,1.197306017,1278.447793
5.4950,107.9005164,0.8128904538,1278.205037
5.5000,108.3575324,0.428568102,1277.966286
5.5050,108.8074175,0.04468163415,1277.732048
5.5100,109.2501955,-0.3390576791,1277.502111
5.5150,109.6845947,-0.7219562733,1277.277118
5.5200,110.1111132,-1.103768435,1277.056752
5.5250,110.5299043,-1.484475729,1276.840973
5.5300,110.9408653,-1.863180137,1276.629935
5.5350,111.3444547,-2.240134571,1276.42328
5.5400,111.740041,-2.615202242,1276.221317
5.5450,112.1287039,-2.989284777,1276.023228
5.5500,112.5079251,-3.361591415,1275.830071
5.5550,112.8775025,-3.732018801,1275.64183
5.5600,113.2368855,-4.099874484,1275.458755
5.5650,113.5858369,-4.465417526,1275.280789
5.5700,113.9254381,-4.828351207,1275.107502
5.5750,114.2542539,-5.188607202,1274.939443
5.5800,114.572332,-5.545570055,1274.77662
5.5850,114.8793421,-5.898791136,1274.619172
5.5900,115.1770048,-6.248305664,1274.466335
5.5950,115.4649589,-6.594640749,1274.318081
5.6000,115.7437282,-6.936431038,1274.174438
5.6050,116.0137957,-7.273471495,1274.035137
5.6100,116.276811,-7.606459603,1273.899404
5.6150,116.5331438,-7.935099575,1273.767089
5.6200,116.7826691,-8.258866233,1273.63837
5.6250,117.0256477,-8.578532285,1273.512799
5.6300,117.2618273,-8.894737719,1273.390382
5.6350,117.492605,-9.207406261,1273.270634
5.6400,117.7169722,-9.51595325,1273.153944
5.6450,117.9364202,-9.821148041,1273.039596
5.6500,118.1523573,-10.12360622,1272.926909
5.6550,118.3643546,-10.42333974,1272.816069
5.6600,118.5736969,-10.71988016,1272.706563
5.6650,118.7816237,-11.01555433,1272.597536
5.6700,118.9886143,-11.30910775,1272.488924
5.6750,119.1955497,-11.60048385,1272.380467
5.6800,119.4021063,-11.88949204,1272.272158
5.6850,119.6090836,-12.17699885,1272.163701
5.6900,119.8166098,-12.46407179,1272.054906
5.6950,120.0245673,-12.75145341,1271.945766
5.7000,120.2327721,-13.04014627,1271.836181
5.7050,120.4394308,-13.3303153,1271.726866
5.7100,120.6448782,-13.62277947,1271.617625
5.7150,120.8498394,-13.91804997,1271.508064
5.7200,121.0532965,-14.2162713,1271.398639
5.7250,121.2545233,-14.51686192,1271.289668
5.7300,121.4534157,-14.82041478,1271.181141
5.7350,121.6491454,-15.12684017,1271.073304
5.7400,121.8435379,-15.43584653,1270.965556
5.7450,122.0360929,-15.74629106,1270.858126
5.7500,122.2268022,-16.05846084,1270.75109
5.7550,122.4158151,-16.37231992,1270.644401
5.7600,122.6048358,-16.68652883,1270.537675
5.7650,122.7938642,-17.00234287,1270.430754
5.7700,122.9826936,-17.31802587,1270.324037
5.7750,123.172879,-17.63456201,1270.216891
5.7800,123.3642924,-17.94995107,1270.109636
5.7850,123.5576645,-18.26379413,1270.002233
5.7900,123.7530704,-18.57562826,1269.894724
5.7950,123.9514397,-18.88572278,1269.786645
5.8000,124.1539988,-19.19309242,1269.677712
5.8050,124.3610481,-19.49812636,1269.56776
5.8100,124.5726372,-19.79969998,1269.456957
5.8150,124.7888277,-20.09843873,1269.34517
5.8200,125.0086822,-20.39453819,1269.23268
5.8250,125.2302821,-20.68842032,1269.120015
5.8300,125.4533869,-20.98090701,1269.007147
5.8350,125.6784696,-21.27223558,1268.893908
5.8400,125.9047031,-21.56271775,1268.780564
5.8450,126.1315987,-21.85112809,1268.667523
5.8500,126.3590245,-22.13960025,1268.554567
5.8550,126.5865495,-22.42706802,1268.442008
5.8600,126.8136553,-22.7140597,1268.330071
5.8650,127.0403329,-23.00142339,1268.218629
5.8700,127.2655602,-23.28820781,1268.108156
5.8750,127.4892221,-23.57454429,1267.998667
5.8800,127.7113878,-23.86019047,1267.890279
5.8850,127.931753,-24.14559565,1267.782986
5.8900,128.1493762,-24.43046706,1267.677165
5.8950,128.3648141,-24.71463433,1267.572669
5.9000,128.577167,-24.99876719,1267.46973
5.9050,128.7867608,-25.28237739,1267.368375
5.9100,128.9928073,-25.56515341,1267.268861
5.9150,129.1952789,-25.84748627,1267.171147
5.9200,129.3945079,-26.12911522,1267.075173
5.9250,129.5910169,-26.41027427,1266.980713
5.9300,129.7847992,-26.68985332,1266.887875
5.9350,129.9748647,-26.96915619,1266.796712
5.9400,130.1634259,-27.24672831,1266.706696
5.9450,130.349193,-27.52192462,1266.618198
5.9500,130.5317815,-27.7940585,1266.531356
5.9550,130.7119873,-28.06384385,1266.445757
5.9600,130.8894976,-28.33089327,1266.361605
5.9650,131.0645028,-28.59492532,1266.278758
5.9700,131.2367553,-28.85624248,1266.197249
5.9750,131.405952,-29.1142347,1266.1171
5.9800,131.572257,-29.37000321,1266.038287
5.9850,131.7359267,-29.62391841,1265.960555
5.9900,131.8989487,-29.87387135,1265.883408
5.9950,132.0613939,-30.12085464,1265.806711
6.0000,132.2229656,-30.36344938,1265.730631
6.0050,132.3857031,-30.6013624,1265.654592
6.0100,132.5491341,-30.8357555,1265.578539
6.0150,132.71305,-31.0657249,1265.502669
6.0200,132.8779513,-31.29196031,1265.426698
6.0250,133.0442304,-31.51419713,1265.350498
6.0300,133.2123941,-31.73216373,1265.273852
6.0350,133.3834671,-31.94545469,1265.19654
6.0400,133.5561405,-32.15497422,1265.118774
6.0450,133.7316031,-32.36107822,1265.040286
6.0500,133.9088538,-32.56407605,1264.961238
6.0550,134.0887204,-32.76268692,1264.881533
6.0600,134.2698905,-32.95725027,1264.801397
6.0650,134.4530054,-33.1467799,1264.720777
6.0700,134.6388254,-33.33272359,1264.639186
6.0750,134.8252454,-33.51368955,1264.557438
6.0800,135.0138872,-33.69076233,1264.474937
6.0850,135.2024186,-33.86405523,1264.392309
6.0900,135.391183,-34.03293096,1264.309567
6.0950,135.5804809,-34.19833323,1264.226577
6.1000,135.7683474,-34.35987324,1264.143941
6.1050,135.9550322,-34.51654797,1264.061738
6.1100,136.1401787,-34.66952413,1263.979947
6.1150,136.3248,-34.8179275,1263.898382
6.1200,136.5098539,-34.96117898,1263.816951
6.1250,136.6959476,-35.09927997,1263.735496
6.1300,136.882017,-35.23194707,1263.654299
6.1350,137.0680854,-35.35822733,1263.573469
6.1400,137.2547331,-35.47826837,1263.4928
6.1450,137.4418192,-35.59264033,1263.412265
6.1500,137.6296007,-35.70010007,1263.331848
6.1550,137.8180533,-35.80134005,1263.251498
6.1600,138.0087082,-35.89671115,1263.170672
6.1650,138.200306,-35.98531414,1263.089732
6.1700,138.3929724,-36.06859347,1263.008545
6.1750,138.5877502,-36.14669168,1262.926869
6.1800,138.7840552,-36.22047137,1262.844749
6.1850,138.9818947,-36.28939775,1262.762236
6.1900,139.1818711,-36.35442908,1262.679111
6.1950,139.3809959,-36.41590752,1262.596182
6.2000,139.5808362,-36.47571356,1262.512979
6.2050,139.7802296,-36.53426654,1262.429763
6.2100,139.9785613,-36.59297327,1262.346571
6.2150,140.174825,-36.65192241,1262.263588
6.2200,140.3681529,-36.71252987,1262.180906
6.2250,140.5563239,-36.77558868,1262.099134
6.2300,140.7395537,-36.84133154,1262.018134
6.2350,140.9163511,-36.91096887,1261.938195
6.2400,141.0861197,-36.98501922,1261.859475
6.2450,141.2490652,-37.06485052,1261.781807
6.2500,141.4038075,-37.14988009,1261.70561
6.2550,141.5494924,-37.24083665,1261.631123
6.2600,141.6858036,-37.33793199,1261.558409
6.2650,141.8126337,-37.44094588,1261.487505
6.2700,141.9312831,-37.54882782,1261.418199
6.2750,142.0413568,-37.66310853,1261.350432
6.2800,142.1429572,-37.7829599,1261.284132
6.2850,142.2346208,-37.90857194,1261.219588
6.2900,142.3145495,-38.04155013,1261.157093
6.2950,142.382838,-38.18091579,1261.096636
6.3000,142.4407456,-38.32705896,1261.037767
6.3050,142.4861975,-38.48000347,1260.981031
6.3100,142.5218801,-38.63836592,1260.925741
6.3150,142.5474678,-38.80199341,1260.87192
6.3200,142.5643141,-38.96995528,1260.819346
6.3250,142.5730342,-39.1422252,1260.767873
6.3300,142.5753206,-39.31816696,1260.71722
6.3350,142.5710169,-39.49839,1260.667306
6.3400,142.5618275,-39.68164439,1260.617948
6.3450,142.5483353,-39.86710318,1260.568989
6.3500,142.532077,-40.05314622,1260.520182
6.3550,142.512747,-40.24116548,1260.47139
6.3600,142.4907488,-40.43069656,1260.422529
6.3650,142.4664648,-40.61987196,1260.373606
6.3700,142.4400366,-40.80872955,1260.324518
6.3750,142.4142935,-40.99723894,1260.274461
6.3800,142.3885454,-41.18470768,1260.223543
6.3850,142.366535,-41.36986029,1260.170918
6.3900,142.3489198,-41.55211578,1260.116401
6.3950,142.3367656,-41.73092849,1260.059924
6.4000,142.3322534,-41.90596277,1260.001029
6.4050,142.3357999,-42.0769048,1259.939585
6.4100,142.3486581,-42.24231856,1259.875431
6.4150,142.3701304,-42.40208171,1259.808816
6.4200,142.3999134,-42.55609942,1259.739718
6.4250,142.4389889,-42.70376098,1259.66808
6.4300,142.4887085,-42.84455116,1259.593595
6.4350,142.5483493,-42.97873114,1259.516483
6.4400,142.6173873,-43.10598029,1259.436824
6.4450,142.6955296,-43.22604276,1259.354754
6.4500,142.7824115,-43.33914896,1259.270404
6.4550,142.8780457,-43.44544587,1259.183835
6.4600,142.9804736,-43.54354649,1259.095695
6.4650,143.0903614,-43.63431834,1259.005843
6.4700,143.2067529,-43.71741895,1258.914647
6.4750,143.3271561,-43.79242942,1258.82278
6.4800,143.4508112,-43.86010168,1258.730477
6.4850,143.5760183,-43.92061755,1258.638194
6.4900,143.7009906,-43.97422372,1258.546437
6.4950,143.8266748,-44.02115867,1258.454924
6.5000,143.9500709,-44.0619969,1258.364306
6.5050,144.0707468,-44.09865262,1258.274532
6.5100,144.1876685,-44.1304983,1258.185925
6.5150,144.298517,-44.16098261,1258.098891
6.5200,144.4023715,-44.19011705,1258.013658
6.5250,144.4989441,-44.21952355,1257.93018
6.5300,144.5864457,-44.25046689,1257.848913
6.5350,144.6656425,-44.28252349,1257.769683
6.5400,144.7349869,-44.31723928,1257.692761
6.5450,144.7938601,-44.35447972,1257.618439
6.5500,144.8428413,-44.39452549,1257.546608
6.5550,144.8829251,-44.43803502,1257.476935
6.5600,144.9142024,-44.48487977,1257.409326
6.5650,144.9360513,-44.53626217,1257.343792
6.5700,144.9484754,-44.59273145,1257.280272
6.5750,144.9520144,-44.65291012,1257.218685
6.5800,144.9463441,-44.71822818,1257.158912
6.5850,144.9318311,-44.78804605,1257.100826
6.5900,144.9093387,-44.86162079,1257.044203
6.5950,144.8798103,-44.93862388,1256.988657
6.6000,144.8435498,-45.01908649,1256.934227
6.6050,144.8020759,-45.1024677,1256.880471
6.6100,144.7542603,-45.18899506,1256.827648
6.6150,144.7009127,-45.27857019,1256.775597
6.6200,144.6423018,-45.37037031,1256.724268
6.6250,144.5787877,-45.46501442,1256.67361
6.6300,144.5096437,-45.56253363,1256.62377
6.6350,144.4352033,-45.66240514,1256.574761
6.6400,144.3567905,-45.76459899,1256.526331
6.6450,144.2738034,-45.86946426,1256.478491
6.6500,144.1874775,-45.97811516,1256.430936
6.6550,144.0986471,-46.08939158,1256.383597
6.6600,144.0081191,-46.20341842,1256.336447
6.6650,143.9167471,-46.32232405,1256.289009
6.6700,143.824932,-46.44537879,1256.241304
6.6750,143.7330311,-46.57180146,1256.19333
6.6800,143.6423827,-46.7010031,1256.144839
6.6850,143.5528544,-46.83355682,1256.095839
6.6900,143.464738,-46.96942476,1256.046286
6.6950,143.3784288,-47.10723838,1255.995985
6.7000,143.2940516,-47.24738972,1255.944866
6.7050,143.2110249,-47.3892547,1255.893133
6.7100,143.1301491,-47.53304263,1255.84048
6.7150,143.0513896,-47.67823175,1255.786853
6.7200,142.9747886,-47.82436906,1255.732249
6.7250,142.8990331,-47.9708243,1255.676901
6.7300,142.822335,-48.11749662,1255.621066
6.7350,142.7447633,-48.26332315,1255.564753
6.7400,142.6651003,-48.40838049,1255.508216
6.7450,142.5826612,-48.5509857,1255.451614
6.7500,142.4970414,-48.69057419,1255.395065
6.7550,142.4076188,-48.8258761,1255.338761
6.7600,142.3137154,-48.95717575,1255.282846
6.7650,142.2139137,-49.08320225,1255.227776
6.7700,142.1086258,-49.20341449,1255.173371
6.7750,141.9978548,-49.31789888,1255.119739
6.7800,141.8814143,-49.42615792,1255.06686
6.7850,141.7588564,-49.5285606,1255.014802
6.7900,141.6311306,-49.6250589,1254.963362
6.7950,141.496129,-49.71482811,1254.913065
6.8000,141.3544575,-49.79800167,1254.863765
6.8050,141.2046881,-49.87472669,1254.815785
6.8100,141.0478167,-49.94522061,1254.768911
6.8150,140.8850003,-50.00811572,1254.72302
6.8200,140.7172712,-50.06408616,1254.677792
6.8250,140.5450085,-50.11214229,1254.633232
6.8300,140.3688585,-50.15283008,1254.589115
6.8350,140.1879971,-50.18573549,1254.545744
6.8400,140.0040075,-50.21201351,1254.502684
6.8450,139.8165281,-50.23110822,1254.460052
6.8500,139.6264447,-50.24479567,1254.417578
6.8550,139.4338062,-50.25269392,1254.375322
6.8600,139.2389744,-50.25634648,1254.3332
6.8650,139.043074,-50.2553806,1254.291073
6.8700,138.8461579,-50.25165625,1254.248819
6.8750,138.6494718,-50.24688715,1254.206156
6.8800,138.4542804,-50.24080546,1254.162979
6.8850,138.2624181,-50.23465059,1254.118947
6.8900,138.0758628,-50.22855911,1254.073748
6.8950,137.8952468,-50.22355145,1254.027418
6.9000,137.7218922,-50.22004406,1253.979579
6.9050,137.557164,-50.21899737,1253.929923
6.9100,137.4018541,-50.22106503,1253.878355
6.9150,137.2578554,-50.22724277,1253.824389
6.9200,137.1240875,-50.23915428,1253.768164
6.9250,137.0012921,-50.25728655,1253.709443
6.9300,136.8885134,-50.28209763,1253.648287
6.9350,136.7862288,-50.31496266,1253.584574
6.9400,136.6927141,-50.35707571,1253.518526
6.9450,136.6084163,-50.40946801,1253.450085
6.9500,136.5323687,-50.47195988,1253.379449
6.9550,136.4640006,-50.54632857,1253.30678
6.9600,136.4016699,-50.63263679,1253.232438
6.9650,136.3449644,-50.7305067,1253.156762
6.9700,136.292994,-50.84003531,1253.080064
6.9750,136.2458589,-50.96099654,1253.00248
6.9800,136.2025987,-51.09433396,1252.924266
6.9850,136.1633135,-51.23956986,1252.845534
6.9900,136.1276228,-51.3954124,1252.766571
6.9950,136.0954452,-51.56307209,1252.687502
7.0000,136.0667425,-51.74084096,1252.608388
7.0050,136.0422587,-51.92884159,1252.529032
7.0100,136.0212324,-52.1263022,1252.449709
7.0150,136.0038384,-52.33129773,1252.370454
7.0200,135.9893088,-52.54426613,1252.29142
7.0250,135.9767608,-52.76365229,1252.212863
7.0300,135.9659381,-52.98765851,1252.134863
7.0350,135.9557892,-53.21643955,1252.057576
7.0400,135.9456492,-53.44901991,1251.98114
7.0450,135.9335934,-53.68424711,1251.906005
7.0500,135.9184922,-53.92106719,1251.832359
7.0550,135.8981696,-54.15889763,1251.760558
7.0600,135.8700617,-54.39614264,1251.691091
7.0650,135.8335347,-54.63214959,1251.623929
7.0700,135.7858766,-54.8667037,1251.559665
7.0750,135.7266136,-55.0992169,1251.498217
7.0800,135.653986,-55.3286162,1251.439921
7.0850,135.5675146,-55.55371449,1251.384816
7.0900,135.4649035,-55.77459189,1251.333165
7.0950,135.3483177,-55.99145191,1251.284588
7.1000,135.2159904,-56.20275145,1251.239335
7.1050,135.069659,-56.40788427,1251.196998
7.1100,134.9090852,-56.6056552,1251.157592
7.1150,134.7342716,-56.79459751,1251.121247
7.1200,134.5452248,-56.97411785,1251.087955
7.1250,134.3435076,-57.14268194,1251.057441
7.1300,134.1304575,-57.30050967,1251.029359
7.1350,133.9082673,-57.44613564,1251.003268
7.1400,133.6767717,-57.57936093,1250.979234
7.1450,133.437528,-57.70076356,1250.956786
7.1500,133.1913595,-57.80943786,1250.935816
7.1550,132.9394964,-57.90596233,1250.915933
7.1600,132.6819258,-57.99063604,1250.897138
7.1650,132.4199493,-58.06334492,1250.87905
7.1700,132.1542415,-58.12503078,1250.861574
7.1750,131.8845769,-58.17593986,1250.844732
7.1800,131.6117517,-58.21620107,1250.828325
7.1850,131.3371667,-58.24548032,1250.812031
7.1900,131.0604395,-58.26571106,1250.795932
7.1950,130.7830279,-58.27715787,1250.779722
7.2000,130.5052262,-58.28102219,1250.763411
7.2050,130.2284734,-58.27827,1250.74673
7.2100,129.953709,-58.26873361,1250.729492
7.2150,129.6824303,-58.25373866,1250.711531
7.2200,129.4151452,-58.23376627,1250.692757
7.2250,129.1533201,-58.20872041,1250.672903
7.2300,128.8989313,-58.18076828,1250.651609
7.2350,128.6540438,-58.14961164,1250.628408
7.2400,128.4195715,-58.11624816,1250.603088
7.2450,128.1962703,-58.08050372,1250.575534
7.2500,127.984779,-58.04352911,1250.545545
7.2550,127.786176,-58.00460996,1250.512901
7.2600,127.6012308,-57.96482225,1250.477279
7.2650,127.4297431,-57.92395143,1250.438664
7.2700,127.2715816,-57.88218258,1250.397025
7.2750,127.1258711,-57.84033749,1250.352538
7.2800,126.9928688,-57.79841368,1250.305114
7.2850,126.870575,-57.75558193,1250.255071
7.2900,126.7586678,-57.71351103,1250.202483
7.2950,126.6558215,-57.67193113,1250.147557
7.3000,126.5603117,-57.63186833,1250.0908
7.3050,126.4715806,-57.59329446,1250.032286
7.3100,126.3882065,-57.55707962,1249.97235
7.3150,126.3097011,-57.52412631,1249.911149
7.3200,126.2358519,-57.49372304,1249.848763
7.3250,126.1675889,-57.46687858,1249.785042
7.3300,126.1042898,-57.44348471,1249.72021
7.3350,126.0455839,-57.42341482,1249.654404
7.3400,125.9915818,-57.40666824,1249.58767
7.3450,125.9434609,-57.39344783,1249.519791
7.3500,125.9012913,-57.38380224,1249.450803
7.3550,125.865454,-57.37720908,1249.38068
7.3600,125.8378116,-57.37441816,1249.308946
7.3650,125.8176311,-57.37537081,1249.235959
7.3700,125.8056435,-57.37965207,1249.16139
7.3750,125.8015152,-57.38683688,1249.085294
7.3800,125.8061245,-57.39733898,1249.007577
7.3850,125.8181052,-57.41117069,1248.92854
7.3900,125.8374365,-57.4273542,1248.848289
7.3950,125.8631098,-57.44660382,1248.766863
7.4000,125.8953,-57.46790505,1248.68443
7.4050,125.9328932,-57.49100747,1248.601271
7.4100,125.9743932,-57.51640627,1248.517781
7.4150,126.0191798,-57.54393591,1248.433954
7.4200,126.0660823,-57.5736816,1248.350139
7.4250,126.1144092,-57.60598004,1248.266425
7.4300,126.1625399,-57.64003314,1248.183249
7.4350,126.2096818,-57.67738926,1248.100737
7.4400,126.2553404,-57.71652547,1248.018996
7.4450,126.2987282,-57.75861718,1247.938268
7.4500,126.3393925,-57.80328657,1247.858567
7.4550,126.3769697,-57.84989179,1247.780077
7.4600,126.4113585,-57.89801731,1247.702763
7.4650,126.4419242,-57.94868685,1247.626758
7.4700,126.4697166,-58.0012356,1247.551833
7.4750,126.4941156,-58.05457665,1247.47823
7.4800,126.5156541,-58.10968306,1247.405733
7.4850,126.533299,-58.16686088,1247.334679
7.4900,126.5479735,-58.22545613,1247.264789
7.4950,126.5600105,-58.28570952,1247.196082
7.5000,126.5690776,-58.34704771,1247.128637
7.5050,126.5764383,-58.40864914,1247.062192
7.5100,126.5815573,-58.47192511,1246.996835
7.5150,126.583859,-58.53591228,1246.932597
7.5200,126.5853761,-58.60044548,1246.869045
7.5250,126.5857283,-58.66600997,1246.80623
7.5300,126.5855561,-58.73161798,1246.744009
7.5350,126.5841248,-58.79673742,1246.682605
7.5400,126.5827064,-58.86150718,1246.621739
7.5450,126.5811382,-58.92582557,1246.561453
7.5500,126.5794952,-58.98972492,1246.50175
7.5550,126.5777975,-59.0531662,1246.442709
7.5600,126.5757522,-59.11616011,1246.384501
7.5650,126.5745187,-59.17774494,1246.326882
7.5700,126.5745061,-59.23987547,1246.269819
7.5750,126.5765536,-59.30162855,1246.213082
7.5800,126.580358,-59.36265832,1246.156864
7.5850,126.5872806,-59.42454938,1246.100886
7.5900,126.5982278,-59.48693326,1246.044891
7.5950,126.613402,-59.54939395,1245.9889
7.6000,126.634123,-59.61237206,1245.932506
7.6050,126.6604677,-59.67517963,1245.875779
7.6100,126.6940799,-59.73838799,1245.818378
7.6150,126.7345244,-59.80161559,1245.760377
7.6200,126.7828294,-59.86502187,1245.701512
7.6250,126.8386965,-59.92890572,1245.641846
7.6300,126.903369,-59.99353736,1245.581124
7.6350,126.9770638,-60.05763583,1245.519449
7.6400,127.0597457,-60.12197306,1245.456827
7.6450,127.1513125,-60.18562239,1245.393269
7.6500,127.251678,-60.24904782,1245.32881
7.6550,127.3610033,-60.31226651,1245.263508
7.6600,127.4779685,-60.37578397,1245.197597
7.6650,127.6016149,-60.43933953,1245.131277
7.6700,127.7317751,-60.50333249,1245.064701
7.6750,127.867332,-60.56778659,1244.998223
7.6800,128.0067609,-60.63173181,1244.932098
7.6850,128.1511385,-60.69621295,1244.86617
7.6900,128.298534,-60.76153614,1244.800829
7.6950,128.4473006,-60.82672995,1244.736592
7.7000,128.5965644,-60.89236598,1244.67357
7.7050,128.7450593,-60.95742348,1244.612063
7.7100,128.8923983,-61.02220238,1244.552154
7.7150,129.0381301,-61.08717447,1244.494059
7.7200,129.1811203,-61.15172334,1244.438055
7.7250,129.3204479,-61.2158146,1244.384365
7.7300,129.4558429,-61.27936593,1244.33308
7.7350,129.5868399,-61.34173871,1244.284261
7.7400,129.7121382,-61.40406482,1244.238228
7.7450,129.8320339,-61.46429988,1244.194899
7.7500,129.9450758,-61.52349894,1244.154612
7.7550,130.0510559,-61.58181327,1244.117497
7.7600,130.1507459,-61.63971016,1244.083365
7.7650,130.2440108,-61.69559192,1244.052368
7.7700,130.3301311,-61.75022385,1244.024621
7.7750,130.4099738,-61.80454197,1243.999856
7.7800,130.4837884,-61.85749757,1243.978138
7.7850,130.551849,-61.91038513,1243.959405
7.7900,130.6142732,-61.96311725,1243.943626
7.7950,130.6706174,-62.01453577,1243.930925
7.8000,130.7222781,-62.06543358,1243.920936
7.8050,130.7682517,-62.11561798,1243.913913
7.8100,130.8098701,-62.16487994,1243.909632
7.8150,130.8469389,-62.21335127,1243.90817
7.8200,130.8793805,-62.26073609,1243.909535
7.8250,130.9080598,-62.3070209,1243.913572
7.8300,130.9326684,-62.35159815,1243.92037
7.8350,130.9534469,-62.395893,1243.929863
7.8400,130.9703434,-62.43854261,1243.942105
7.8450,130.9831496,-62.48055743,1243.957085
7.8500,130.9924917,-62.5207223,1243.974817
7.8550,130.9992245,-62.55997883,1243.994944
7.8600,131.0041012,-62.59738091,1244.017421
7.8650,131.0067175,-62.63394136,1244.042281
7.8700,131.0082339,-62.66772943,1244.069258
7.8750,131.0080684,-62.70079511,1244.098481
7.8800,131.0073495,-62.73271271,1244.129777
7.8850,131.006179,-62.76258921,1244.163091
7.8900,131.0048346,-62.79151284,1244.198332
7.8950,131.0029885,-62.81954912,1244.235604
7.9000,131.001415,-62.84651482,1244.274832
7.9050,130.9999087,-62.87402197,1244.316043
7.9100,130.998105,-62.90042469,1244.359238
7.9150,130.9978837,-62.92772611,1244.404036
7.9200,130.9986243,-62.95464233,1244.45066
7.9250,131.0012239,-62.98177332,1244.498874
7.9300,131.0050903,-63.00876027,1244.548876
7.9350,131.011051,-63.03602481,1244.600404
7.9400,131.0199531,-63.06317665,1244.653313
7.9450,131.0314831,-63.09086197,1244.707709
7.9500,131.0456127,-63.11914894,1244.763554
7.9550,131.0624555,-63.14850326,1244.820778
7.9600,131.0820883,-63.17816293,1244.879423
7.9650,131.1055315,-63.20894511,1244.939245
7.9700,131.1320047,-63.2410698,1245.000317
7.9750,131.1612634,-63.27445494,1245.062691
7.9800,131.1931186,-63.30996676,1245.126431
7.9850,131.2267466,-63.34608104,1245.191721
7.9900,131.2628116,-63.38309727,1245.258398
7.9950,131.3014638,-63.42057564,1245.326326
8.0000,131.3432292,-63.45857472,1245.395495
8.0050,131.387463,-63.49865474,1245.46597
8.0100,131.4327391,-63.53938378,1245.538016
8.0150,131.4796895,-63.58113258,1245.611356
8.0200,131.528378,-63.62336616,1245.68592
8.0250,131.5773455,-63.66761411,1245.762028
8.0300,131.6272564,-63.71221104,1245.839513
8.0350,131.6765808,-63.75775871,1245.918702
8.0400,131.7272854,-63.80447836,1245.99908
8.0450,131.7781685,-63.85199098,1246.080938
8.0500,131.8305135,-63.9006136,1246.163931
8.0550,131.8842596,-63.9493793,1246.248044
8.0600,131.9398164,-63.99863372,1246.33319
8.0650,131.9978252,-64.04910646,1246.419222
8.0700,132.0590099,-64.10031059,1246.505933
8.0750,132.1233433,-64.15247166,1246.593384
8.0800,132.191656,-64.20629129,1246.681342
8.0850,132.2635251,-64.26095614,1246.769867
8.0900,132.3399506,-64.31627121,1246.858866
8.0950,132.4221553,-64.37435829,1246.947989
8.1000,132.5095288,-64.43410446,1247.037372
8.1050,132.6023746,-64.49616674,1247.127026
8.1100,132.7010834,-64.56065929,1247.216754
8.1150,132.8051956,-64.62677744,1247.306625
8.1200,132.9148955,-64.69570118,1247.396609
8.1250,133.0301275,-64.76693152,1247.486705
8.1300,133.1507387,-64.83995314,1247.576913
8.1350,133.2760518,-64.91436627,1247.667267
8.1400,133.4050333,-64.9898248,1247.757978
8.1450,133.5384061,-65.06621163,1247.848872
8.1500,133.6756337,-65.14359104,1247.939865
8.1550,133.8146546,-65.22146963,1248.031424
8.1600,133.9558279,-65.30021436,1248.1233
8.1650,134.0987259,-65.37957171,1248.215632
8.1700,134.2415556,-65.45948471,1248.308657
8.1750,134.3836305,-65.53925244,1248.402485
8.1800,134.5242646,-65.61922734,1248.497027
8.1850,134.6630439,-65.69910122,1248.592474
8.1900,134.7991292,-65.77818306,1248.688871
8.1950,134.9325401,-65.85690463,1248.786128
8.2000,135.062155,-65.93501481,1248.884383
8.2050,135.1888799,-66.01113978,1248.983349
8.2100,135.3123899,-66.08595631,1249.083146
8.2150,135.4312438,-66.1589075,1249.183938
8.2200,135.5460962,-66.2302632,1249.285499
8.2250,135.6556656,-66.29930841,1249.388046
8.2300,135.7613284,-66.36610718,1249.491274
8.2350,135.8614756,-66.43117548,1249.595415
8.2400,135.9564839,-66.49323427,1249.700304
8.2450,136.0462466,-66.5535498,1249.8058
8.2500,136.1307011,-66.61040574,1249.911965
8.2550,136.2094843,-66.66321462,1250.018856
8.2600,136.2836932,-66.71259636,1250.126134
8.2650,136.3524698,-66.75811419,1250.233935
8.2700,136.4158902,-66.7986491,1250.342229
8.2750,136.4745522,-66.83473957,1250.450777
8.2800,136.5287679,-66.86560579,1250.559511
8.2850,136.5782965,-66.89216442,1250.668485
8.2900,136.6237714,-66.9141585,1250.777558
8.2950,136.6640694,-66.93135576,1250.886998
8.3000,136.699973,-66.94405068,1250.996536
8.3050,136.7306207,-66.95192891,1251.106422
8.3100,136.7578492,-66.95552783,1251.216272
8.3150,136.781442,-66.95413529,1251.326112
8.3200,136.8012696,-66.94897176,1251.436024
8.3250,136.818491,-66.9390663,1251.545736
8.3300,136.8335262,-66.92550588,1251.655184
8.3350,136.8473242,-66.9092786,1251.764141
8.3400,136.8586102,-66.88907688,1251.872959
8.3450,136.869212,-66.86518238,1251.98117
8.3500,136.8795402,-66.8380893,1252.088746
8.3550,136.8903125,-66.80813078,1252.195478
8.3600,136.9014281,-66.77588346,1252.301317
8.3650,136.9131111,-66.74106902,1252.406229
8.3700,136.9264705,-66.70289383,1252.509984
8.3750,136.94262,-66.66158909,1252.612277
8.3800,136.960789,-66.6168865,1252.713401
8.3850,136.9834609,-66.56787806,1252.812793
8.3900,137.0098337,-66.51572537,1252.910607
8.3950,137.0391134,-66.45769075,1253.007051
8.4000,137.0720553,-66.39536652,1253.101984
8.4050,137.1085304,-66.32805809,1253.195378
8.4100,137.1479693,-66.25556732,1253.287454
8.4150,137.1914667,-66.17855002,1253.377932
8.4200,137.2382096,-66.09640566,1253.467038
8.4250,137.2882797,-66.00956987,1253.554691
8.4300,137.3417186,-65.91807545,1253.640981
8.4350,137.3980318,-65.82250502,1253.72604
8.4400,137.4583925,-65.72337844,1253.809559
8.4450,137.5223267,-65.62010473,1253.891732
8.4500,137.5895931,-65.51450434,1253.972617
8.4550,137.6608631,-65.40603805,1254.052071
8.4600,137.7355308,-65.29667517,1254.130202
8.4650,137.8136166,-65.18568123,1254.206908
8.4700,137.8964358,-65.07438408,1254.281915
8.4750,137.984604,-64.96329374,1254.355062
8.4800,138.0784864,-64.85247681,1254.426323
8.4850,138.1770893,-64.74293285,1254.495777
8.4900,138.2811191,-64.63462487,1254.563301
8.4950,138.3910992,-64.52774774,1254.628845
8.5000,138.5080852,-64.4226225,1254.692027
8.5050,138.6302553,-64.32005791,1254.753362
8.5100,138.7578144,-64.22072852,1254.812634
8.5150,138.890481,-64.12364751,1254.870003
8.5200,139.0270125,-64.0293272,1254.925776
8.5250,139.1668631,-63.93734995,1254.980005
8.5300,139.3089328,-63.84836694,1255.032832
8.5350,139.4535723,-63.76146439,1255.084281
8.5400,139.5997033,-63.67671131,1255.134532
8.5450,139.7472496,-63.59343438,1255.183701
8.5500,139.8959053,-63.51191071,1255.23175
8.5550,140.0445456,-63.43248558,1255.278972
8.5600,140.1916975,-63.3541314,1255.325748
8.5650,140.3381563,-63.27706678,1255.371869
8.5700,140.4826013,-63.2020577,1255.417686
8.5750,140.6246018,-63.12790759,1255.463317
8.5800,140.7640631,-63.05546154,1255.508711
8.5850,140.9002336,-62.98411632,1255.554067
8.5900,141.0334058,-62.91408719,1255.599278
8.5950,141.1643054,-62.845667,1255.644186
8.6000,141.2914831,-62.77859037,1255.6892
8.6050,141.4158192,-62.7126464,1255.734058
8.6100,141.5364314,-62.64819945,1255.778973
8.6150,141.6534034,-62.58448632,1255.824025
8.6200,141.7677882,-62.52108996,1255.868998
8.6250,141.8795818,-62.45756192,1255.913821
8.6300,141.9876546,-62.39374995,1255.958827
8.6350,142.0932401,-62.32802383,1256.00373
8.6400,142.1967298,-62.26081932,1256.048397
8.6450,142.2985274,-62.1929711,1256.092726
8.6500,142.3986295,-62.1224867,1256.136755
8.6550,142.4976294,-62.0496441,1256.180344
8.6600,142.5960193,-61.97329052,1256.223529
8.6650,142.694385,-61.89377641,1256.266151
8.6700,142.7919259,-61.81173053,1256.308418
8.6750,142.8885117,-61.72658331,1256.350449
8.6800,142.9845461,-61.63841826,1256.392094
8.6850,143.0801265,-61.54722463,1256.433359
8.6900,143.1763845,-61.453003,1256.473992
8.6950,143.2735663,-61.35681401,1256.513923
8.7000,143.3723984,-61.25772482,1256.553006
8.7050,143.4729203,-61.15623747,1256.591247
8.7100,143.5747858,-61.05216361,1256.628648
8.7150,143.6795692,-60.94530385,1256.664839
8.7200,143.7872134,-60.8357798,1256.699823
8.7250,143.8961836,-60.72323058,1256.734
8.7300,144.0083975,-60.60791111,1256.766845
8.7350,144.1240169,-60.48919821,1256.798379
8.7400,144.2424354,-60.36663817,1256.828748
8.7450,144.3632853,-60.24141301,1256.857993
8.7500,144.4867643,-60.11194878,1256.886157
8.7550,144.6128965,-59.97945446,1256.913114
8.7600,144.7412417,-59.84193447,1256.939092
8.7650,144.8717225,-59.70080783,1256.964053
8.7700,145.0030554,-59.5552091,1256.988345
8.7750,145.1348803,-59.4052594,1257.01204
8.7800,145.2672339,-59.25198885,1257.035036
8.7850,145.4002933,-59.09507056,1257.057411
8.7900,145.5331235,-58.9337568,1257.079503
8.7950,145.6646382,-58.76933013,1257.101443
8.8000,145.7942902,-58.60161557,1257.123463
8.8050,145.922284,-58.43083829,1257.145497
8.8100,146.0482666,-58.25686955,1257.167712
8.8150,146.1708681,-58.08103274,1257.190387
8.8200,146.2910468,-57.90343687,1257.21332
8.8250,146.4081864,-57.72425852,1257.236746
8.8300,146.5225227,-57.54360219,1257.260578
8.8350,146.6333335,-57.36229433,1257.284895
8.8400,146.7399958,-57.1803678,1257.309906
8.8450,146.8423645,-56.99737728,1257.335626
8.8500,146.9404421,-56.81300864,1257.361998
8.8550,147.0342223,-56.62815452,1257.388985
8.8600,147.1233359,-56.4424001,1257.416711
8.8650,147.2078739,-56.25615532,1257.445099
8.8700,147.2872211,-56.06807228,1257.474316
8.8750,147.3610275,-55.87870707,1257.504422
8.8800,147.4289441,-55.68802438,1257.535482
8.8850,147.4929529,-55.49589937,1257.566984
8.8900,147.5513276,-55.30241313,1257.599319
8.8950,147.6033597,-55.10805459,1257.632709
8.9000,147.6505753,-54.91318936,1257.666694
8.9050,147.6942495,-54.71658025,1257.70108
8.9100,147.7341265,-54.5186605,1257.735898
8.9150,147.7700756,-54.319924,1257.771239
8.9200,147.8008679,-54.12000829,1257.807362
8.9250,147.8278549,-53.91912954,1257.84399
8.9300,147.8507434,-53.71778453,1257.881199
8.9350,147.8690215,-53.51644516,1257.919145
8.9400,147.8841405,-53.31449066,1257.957494
8.9450,147.8957877,-53.11197235,1257.996419
8.9500,147.9036436,-52.90947932,1258.035943
8.9550,147.9076298,-52.70612473,1258.07611
8.9600,147.9071438,-52.50251627,1258.11699
8.9650,147.9028602,-52.29913143,1258.158484
8.9700,147.8955452,-52.09489462,1258.200445
8.9750,147.8854249,-51.89000191,1258.242758
8.9800,147.872425,-51.68441616,1258.285478
8.9850,147.8564403,-51.4782885,1258.328573
8.9900,147.8361047,-51.27036516,1258.372465
8.9950,147.8128569,-51.06151536,1258.416826
9.0000,147.7858425,-50.85207153,1258.461737
9.0050,147.7563462,-50.64149548,1258.50695
9.0100,147.724259,-50.42986991,1258.552497
9.0150,147.687568,-50.21659027,1258.59895
9.0200,147.6471265,-50.00278277,1258.645939
9.0250,147.6040373,-49.78877775,1258.693275
9.0300,147.5564513,-49.57540609,1258.741312
9.0350,147.5053841,-49.36156549,1258.789937
9.0400,147.4500215,-49.14826285,1258.839279
9.0450,147.3914976,-48.93541432,1258.889095
9.0500,147.3298578,-48.72236776,1258.939377
9.0550,147.2641885,-48.50915247,1258.990343
9.0600,147.1957239,-48.29545634,1259.041684
9.0650,147.1247545,-48.08039507,1259.093461
9.0700,147.052423,-47.86415446,1259.145368
9.0750,146.9788561,-47.6459115,1259.197383
9.0800,146.9037426,-47.4247999,1259.249799
9.0850,146.8283518,-47.20044313,1259.302232
9.0900,146.7526294,-46.97339096,1259.354716
9.0950,146.6757965,-46.74314464,1259.407461
9.1000,146.5981748,-46.50925495,1259.460512
9.1050,146.5199761,-46.27211427,1259.513738
9.1100,146.4406383,-46.03107955,1259.567367
9.1150,146.3620294,-45.78527233,1259.621001
9.1200,146.2829543,-45.53486639,1259.674899
9.1250,146.2052127,-45.27956801,1259.72871
9.1300,146.1266155,-45.01918432,1259.782946
9.1350,146.0486303,-44.75308307,1259.837304
9.1400,145.9696548,-44.48206707,1259.892093
9.1450,145.8902256,-44.20711865,1259.947196
9.1500,145.8095493,-43.92831457,1260.002902
9.1550,145.7277509,-43.64512406,1260.059074
9.1600,145.6448323,-43.35862676,1260.115616
9.1650,145.5597972,-43.06765986,1260.172969
9.1700,145.4736751,-42.77322704,1260.230769
9.1750,145.3858595,-42.4760547,1260.289077
9.1800,145.2963417,-42.17556512,1260.348062
9.1850,145.2049488,-41.87274455,1260.407629
9.1900,145.1117694,-41.56668055,1260.467782
9.1950,145.0173225,-41.25721284,1260.528398
9.2000,144.9205561,-40.94396171,1260.589764
9.2050,144.8200432,-40.62745699,1260.65228
9.2100,144.7165435,-40.30674513,1260.71575
9.2150,144.6100169,-39.98210533,1260.780162
9.2200,144.5020272,-39.65334088,1260.845199
9.2250,144.391967,-39.31984939,1260.911125
9.2300,144.2805696,-38.98132129,1260.977633
9.2350,144.1675984,-38.63773962,1261.044819
9.2400,144.0511251,-38.28972596,1261.113194
9.2450,143.9315127,-37.93730367,1261.1826
9.2500,143.8101026,-37.5798114,1261.252753
9.2550,143.6855219,-37.2188752,1261.32389
9.2600,143.5591793,-36.85471973,1261.395699
9.2650,143.4292504,-36.48679814,1261.46856
9.2700,143.2960492,-36.11613029,1261.542281
9.2750,143.1601252,-35.74250153,1261.616837
9.2800,143.0217935,-35.36608447,1261.692049
9.2850,142.879865,-34.98650901,1261.768319
9.2900,142.7357778,-34.60566153,1261.845038
9.2950,142.5884574,-34.22277705,1261.922559
9.3000,142.4374779,-33.8377938,1262.001089
9.3050,142.2822646,-33.4512563,1262.080814
9.3100,142.1235522,-33.06304918,1262.161522
9.3150,141.9621475,-32.6734988,1262.243062
9.3200,141.7978037,-32.28214355,1262.325583
9.3250,141.6310749,-31.88937901,1262.408899
9.3300,141.4629085,-31.49440836,1262.492976
9.3350,141.2930065,-31.09877683,1262.577681
9.3400,141.1223352,-30.70180872,1262.662916
9.3450,140.949891,-30.30278012,1262.748927
9.3500,140.7768887,-29.90154564,1262.835519
9.3550,140.6044634,-29.49812215,1262.922306
9.3600,140.4322388,-29.09256217,1263.009469
9.3650,140.2608748,-28.68588445,1263.09678
9.3700,140.0908707,-28.27905576,1263.184047
9.3750,139.9224586,-27.87134233,1263.271398
9.3800,139.75461,-27.46381984,1263.358901
9.3850,139.5876084,-27.05704884,1263.446629
9.3900,139.4214421,-26.65121541,1263.534392
9.3950,139.2577739,-26.24614307,1263.621982
9.4000,139.0958514,-25.84282403,1263.70941
9.4050,138.9353445,-25.44119415,1263.79681
9.4100,138.77637,-25.0409895,1263.884145
9.4150,138.6175137,-24.64279483,1263.971712
9.4200,138.4597646,-24.24547553,1264.059418
9.4250,138.3015156,-23.84980515,1264.147552
9.4300,138.1446172,-23.45512471,1264.235667
9.4350,137.9886087,-23.06237322,1264.323799
9.4400,137.8351034,-22.670068,1264.411776
9.4450,137.6832627,-22.2776675,1264.49984
9.4500,137.5326073,-21.8860486,1264.587979
9.4550,137.3816416,-21.49540167,1264.676739
9.4600,137.2307125,-21.10626328,1264.765966
9.4650,137.0789862,-20.71922169,1264.85582
9.4700,136.9256056,-20.33438647,1264.946537
9.4750,136.7705093,-19.95120629,1265.038239
9.4800,136.6134654,-19.57005172,1265.130923
9.4850,136.4529922,-19.19052502,1265.225085
9.4900,136.289234,-18.81192447,1265.320829
9.4950,136.1217658,-18.43391105,1265.41813
9.5000,135.9499231,-18.05603025,1265.517312
9.5050,135.7752155,-17.6776271,1265.617916
9.5100,135.5966916,-17.29968058,1265.720109
9.5150,135.4137927,-16.92162285,1265.824032
9.5200,135.2263163,-16.54361274,1265.929611
9.5250,135.0333075,-16.16601827,1266.037069
9.5300,134.8349056,-15.78806713,1266.146457
9.5350,134.6334629,-15.40935817,1266.25712
9.5400,134.4300937,-15.03023273,1266.368551
9.5450,134.2248275,-14.64983381,1266.480915
9.5500,134.0170432,-14.26912231,1266.594124
9.5550,133.8089539,-13.88787331,1266.707495
9.5600,133.6014817,-13.50680383,1266.820576
9.5650,133.3956199,-13.1260827,1266.933047
9.5700,133.1926376,-12.74717014,1267.044278
9.5750,132.9931035,-12.3707294,1267.153912
9.5800,132.7970258,-11.99838869,1267.261795
9.5850,132.6067085,-11.63211652,1267.366917
9.5900,132.420796,-11.27207789,1267.469647
9.5950,132.2406042,-10.91934741,1267.569457
9.6000,132.0657255,-10.57529176,1267.666227
9.6050,131.8959855,-10.24088906,1267.759841
9.6100,131.730918,-9.917635505,1267.850196
9.6150,131.5704692,-9.606021586,1267.937263
9.6200,131.4147366,-9.305449166,1268.021117
9.6250,131.2630155,-9.015770543,1268.102009
9.6300,131.1147342,-8.736641284,1268.180088
9.6350,130.9688818,-8.466956137,1268.255914
9.6400,130.8263115,-8.206226156,1268.329207
9.6450,130.6869809,-7.95434361,1268.400126
9.6500,130.5495616,-7.710662112,1268.469248
9.6550,130.4144119,-7.474031519,1268.536646
9.6600,130.2811135,-7.244530495,1268.602482
9.6650,130.1486408,-7.020756265,1268.66723
9.6700,130.0163665,-6.801333776,1268.731406
9.6750,129.8842302,-6.586195941,1268.794884
9.6800,129.7528489,-6.373843785,1268.857749
9.6850,129.6212318,-6.164813144,1268.920124
9.6900,129.4896048,-5.957792862,1268.982233
9.6950,129.3578256,-5.752864713,1269.04388
9.7000,129.225968,-5.549074993,1269.105226
9.7050,129.0935418,-5.346066705,1269.166566
9.7100,128.9611274,-5.144195664,1269.227663
9.7150,128.8282962,-4.941981984,1269.288946
9.7200,128.6945557,-4.740176234,1269.350471
9.7250,128.5603336,-4.538023842,1269.412349
9.7300,128.4242824,-4.335646582,1269.475091
9.7350,128.2851755,-4.132073585,1269.539251
9.7400,128.1418626,-3.926747837,1269.605318
9.7450,127.9941321,-3.719446546,1269.67336
9.7500,127.841653,-3.508906767,1269.743797
9.7550,127.6859925,-3.294753996,1269.816046
9.7600,127.5261679,-3.075158895,1269.890823
9.7650,127.3620867,-2.85052575,1269.968125
9.7700,127.1939079,-2.620240154,1270.048067
9.7750,127.0204109,-2.383669656,1270.131221
9.7800,126.841021,-2.14120856,1270.21766
9.7850,126.6549974,-1.892307982,1270.307872
9.7900,126.4621726,-1.637839507,1270.401674
9.7950,126.2629573,-1.378408455,1270.498971
9.8000,126.057188,-1.114431975,1270.599743
9.8050,125.842629,-0.8465715011,1270.704762
9.8100,125.6201845,-0.5747936792,1270.813699
9.8150,125.3890471,-0.2985784949,1270.927003
9.8200,125.1489688,-0.01787912402,1271.044813
9.8250,124.9011669,0.2666142393,1271.166628
9.8300,124.6451013,0.5533868855,1271.292347
9.8350,124.3791381,0.8428890025,1271.422681
9.8400,124.103002,1.134988366,1271.557765
9.8450,123.817893,1.429294759,1271.697093
9.8500,123.5243226,1.72575243,1271.840661
9.8550,123.2223331,2.024500632,1271.988573
9.8600,122.9112413,2.32655635,1272.141252
9.8650,122.5930753,2.631846868,1272.298045
9.8700,122.2669938,2.940533405,1272.459388
9.8750,121.9335149,3.25270762,1272.625158
9.8800,121.5941558,3.568644612,1272.794795
9.8850,121.2484715,3.887522438,1272.968266
9.8900,120.8986212,4.209803055,1273.14492
9.8950,120.5438531,4.533767527,1273.324695
9.9000,120.1854346,4.860384262,1273.507408
9.9050,119.8248027,5.18807301,1273.692092
9.9100,119.4624118,5.517768895,1273.878924
9.9150,119.0992008,5.848441888,1274.067136
9.9200,118.7351514,6.179093269,1274.256696
9.9250,118.3716075,6.510026828,1274.447017
9.9300,118.0086594,6.840565109,1274.638001
9.9350,117.647821,7.17044244,1274.82887
9.9400,117.2888886,7.498933617,1275.019655
9.9450,116.9328607,7.826526444,1275.209972
9.9500,116.5804702,8.151305997,1275.398991
9.9550,116.2329015,8.473897179,1275.586457
9.9600,115.8908687,8.79423263,1275.771906
9.9650,115.5560659,9.112363872,1275.954705
9.9700,115.2284808,9.42732963,1276.134526
9.9750,114.9080026,9.73817375,1276.311315
9.9800,114.5959341,10.04463651,1276.484391
9.9850,114.2923743,10.34735649,1276.65387
9.9900,113.9982427,10.64495511,1276.818923
9.9950,113.7134735,10.93854544,1276.979873
10.0000,113.4383933,11.22684474,1277.136175
10.0050,113.1748806,11.50944084,1277.286816
10.0100,112.9220798,11.78736251,1277.432365
10.0150,112.681549,12.05915805,1277.571797
10.0200,112.4526061,12.32514607,1277.705285
10.0250,112.2355916,12.58456413,1277.832399
10.0300,112.0303806,12.83803001,1277.9533
10.0350,111.8366535,13.08490861,1278.067969
10.0400,111.6547162,13.32547115,1278.176196
10.0450,111.4842048,13.55909416,1278.278068
10.0500,111.3246647,13.78648543,1278.373878
10.0550,111.1746871,14.00818786,1278.464515
10.0600,111.0334751,14.22403143,1278.550189
10.0650,110.9012634,14.4344137,1278.630836
10.0700,110.7778843,14.6401487,1278.706704
10.0750,110.6623828,14.84085533,1278.778136
10.0800,110.5543448,15.03776016,1278.845635
10.0850,110.453303,15.23043416,1278.909209
10.0900,110.3583787,15.4195212,1278.969472
10.0950,110.2689895,15.60606801,1279.026816
10.1000,110.1846364,15.79023829,1279.081512
10.1050,110.1040819,15.97265937,1279.134155
10.1100,110.0261769,16.15336658,1279.185297
10.1150,109.9510857,16.33197672,1279.234736
10.1200,109.8780536,16.50881412,1279.282945
10.1250,109.8033308,16.68387232,1279.331541
10.1300,109.7271995,16.85856399,1279.380882
10.1350,109.6485212,17.03276331,1279.431386
10.1400,109.5669685,17.20694956,1279.483442
10.1450,109.4804137,17.38220677,1279.538245
10.1500,109.3876395,17.55870897,1279.596365
10.1550,109.2879712,17.73666341,1279.658192
10.1600,109.1826633,17.91661577,1279.723377
10.1650,109.0689187,18.09757043,1279.792967
10.1700,108.9478567,18.28165876,1279.867012
10.1750,108.8185014,18.46817857,1279.945902
10.1800,108.6791708,18.65686834,1280.03029
10.1850,108.5292865,18.84862492,1280.120917
10.1900,108.36828,19.04162636,1280.217671
10.1950,108.1967678,19.23769874,1280.320703
10.2000,108.0149852,19.43508343,1280.429438
10.2050,107.8225394,19.63540785,1280.544619
10.2100,107.6201597,19.83756939,1280.665465
10.2150,107.407582,20.04163321,1280.792225
10.2200,107.1864443,20.24831836,1280.924316
10.2250,106.9554454,20.45683429,1281.062123
10.2300,106.7165961,20.66634182,1281.204482
10.2350,106.4698639,20.87728849,1281.351603
10.2400,106.2160531,21.08964071,1281.502951
10.2450,105.9576899,21.30287639,1281.657276
10.2500,105.6953865,21.51764952,1281.814493
10.2550,105.4290405,21.73320093,1281.974443
10.2600,105.1603075,21.9500961,1282.13658
10.2650,104.8892116,22.16682292,1282.300541
10.2700,104.6162672,22.38426889,1282.466323
10.2750,104.3444488,22.60266011,1282.632481
10.2800,104.0745478,22.82166138,1282.798628
10.2850,103.807309,23.04072687,1282.964211
10.2900,103.5438753,23.25898865,1283.128451
10.2950,103.2857291,23.47536406,1283.29034
10.3000,103.0338954,23.68973785,1283.449369
10.3050,102.7878209,23.90215148,1283.605759
10.3100,102.549526,24.11004224,1283.757882
10.3150,102.3193295,24.31341451,1283.905436
10.3200,102.0979125,24.51131775,1284.047919
10.3250,101.884832,24.70282198,1284.185153
10.3300,101.6814276,24.88758439,1284.316397
10.3350,101.4883392,25.06596956,1284.4413
10.3400,101.3053591,25.23599085,1284.559524
10.3450,101.1326134,25.39916933,1284.671291
10.3500,100.9706866,25.55544523,1284.776294
10.3550,100.8202759,25.70466305,1284.873968
10.3600,100.6823534,25.84620352,1284.96367
10.3650,100.55568,25.98148555,1285.046387
10.3700,100.4403771,26.1093403,1285.121707
10.3750,100.3367899,26.23036627,1285.189461
10.3800,100.2442367,26.34461224,1285.250034
10.3850,100.1623578,26.45270301,1285.303694
10.3900,100.0897506,26.55526253,1285.351193
10.3950,100.0256769,26.65181867,1285.392807
10.4000,99.96914534,26.74333204,1285.429232
10.4050,99.92019511,26.82881745,1285.460216
10.4100,99.87759112,26.90966733,1285.486805
10.4150,99.84068197,26.98642776,1285.509489
10.4200,99.80781207,27.05880884,1285.528941
10.4250,99.78011854,27.12876992,1285.545111
10.4300,99.75571396,27.19558777,1285.558661
10.4350,99.73346454,27.2595435,1285.570264
10.4400,99.71233569,27.32222738,1285.580824
10.4450,99.69229387,27.38169765,1285.589711
10.4500,99.67309296,27.43916466,1285.597467
10.4550,99.65335182,27.49488803,1285.604725
10.4600,99.63092712,27.54848139,1285.612574
10.4650,99.60582444,27.60128057,1285.621176
10.4700,99.57651623,27.65200855,1285.631027
10.4750,99.54280322,27.70161747,1285.642377
10.4800,99.50545001,27.7497676,1285.654876
10.4850,99.46396142,27.79685366,1285.668848
10.4900,99.41795133,27.84390994,1285.684728
10.4950,99.36613692,27.89080137,1285.703142
10.5000,99.30931373,27.93709283,1285.723661
10.5050,99.24688781,27.98301724,1285.746624
10.5100,99.17973137,28.02805046,1285.771501
10.5150,99.10687266,28.0732131,1285.799051
10.5200,99.02816918,28.1173715,1285.829008
10.5250,98.94475887,28.16077174,1285.861001
10.5300,98.85519231,28.20480077,1285.896124
10.5350,98.76028758,28.24945105,1285.933975
10.5400,98.66058378,28.29351842,1285.974082
10.5450,98.55389185,28.33856006,1286.01807
10.5500,98.44043862,28.38414471,1286.065709
10.5550,98.32147063,28.43075939,1286.116589
10.5600,98.195422,28.47866485,1286.171604
10.5650,98.06315995,28.52816228,1286.230441
10.5700,97.92572271,28.58005659,1286.292782
10.5750,97.78284331,28.63404363,1286.358786
10.5800,97.63498838,28.69012541,1286.428241
10.5850,97.48308148,28.7482992,1286.500676
10.5900,97.326545,28.80886051,1286.57659
10.5950,97.16591529,28.87135974,1286.655581
10.6000,97.00147526,28.93532912,1286.737415
10.6050,96.83507562,29.00136494,1286.821399
10.6100,96.66625658,29.06961817,1286.907895
10.6150,96.49485218,29.13818806,1286.996466
10.6200,96.3219858,29.20750778,1287.086686
10.6250,96.1477885,29.27852897,1287.178805
10.6300,95.97315884,29.34976688,1287.271935
10.6350,95.79831486,29.42141618,1287.365993
10.6400,95.62481444,29.49417611,1287.460289
10.6450,95.45238716,29.56705337,1287.554771
10.6500,95.28237316,29.63982033,1287.648545
10.6550,95.11567712,29.71295927,1287.741375
10.6600,94.95215484,29.78677946,1287.833358
10.6650,94.79211542,29.86116194,1287.924333
10.6700,94.63522413,29.93598293,1288.014389
10.6750,94.4823826,30.01113162,1288.103238
10.6800,94.33324231,30.0861612,1288.190803
10.6850,94.18730696,30.16191585,1288.277678
10.6900,94.0458303,30.23671078,1288.362688
10.6950,93.90820694,30.30999059,1288.446045
10.7000,93.77384305,30.38118629,1288.527811
10.7050,93.64357783,30.45173056,1288.608006
10.7100,93.51742314,30.52024259,1288.68597
10.7150,93.39442883,30.5859419,1288.762033
10.7200,93.27450573,30.64816457,1288.835989
10.7250,93.15749906,30.70579346,1288.907573
10.7300,93.04389281,30.76031958,1288.976974
10.7350,92.9331997,30.81077446,1289.044103
10.7400,92.82596728,30.85600672,1289.10831
10.7450,92.72268969,30.89841758,1289.170251
10.7500,92.62352098,30.93685316,1289.229352
10.7550,92.52861185,30.97227834,1289.285872
10.7600,92.43837254,31.00536593,1289.33975
10.7650,92.35323356,31.03547518,1289.390759
10.7700,92.27383611,31.06464763,1289.439059
10.7750,92.20109357,31.09198291,1289.484039
10.7800,92.13478527,31.11905777,1289.526254
10.7850,92.07552156,31.14607821,1289.565359
10.7900,92.02346215,31.17237306,1289.601148
10.7950,91.9792589,31.19724059,1289.633223
10.8000,91.94257633,31.22116198,1289.661798
10.8050,91.91216136,31.24325149,1289.687338
10.8100,91.88830499,31.26261638,1289.709529
10.8150,91.87053183,31.27868667,1289.728434
10.8200,91.8589352,31.2912437,1289.744001
10.8250,91.85342056,31.30066415,1289.756345
10.8300,91.85404562,31.30523114,1289.764973
10.8350,91.86121066,31.30566576,1289.769809
10.8400,91.87523833,31.30332814,1289.771054
10.8450,91.8960216,31.29685299,1289.768342
10.8500,91.92330525,31.28617697,1289.761854
10.8550,91.95663163,31.27258863,1289.75216
10.8600,91.99777343,31.25552482,1289.73821
10.8650,92.04667666,31.23630573,1289.720466
10.8700,92.10307384,31.21376093,1289.698774
10.8750,92.16680835,31.18875245,1289.673489
10.8800,92.23766839,31.16205396,1289.64495
10.8850,92.31659046,31.13320053,1289.612628
10.8900,92.40400065,31.10208989,1289.57621
10.8950,92.49990703,31.06956122,1289.535865
10.9000,92.60469967,31.03555793,1289.491518
10.9050,92.71756357,30.99821012,1289.44294
10.9100,92.8392209,30.95781769,1289.389673
10.9150,92.97064411,30.91461105,1289.331345
10.9200,93.1112203,30.86739397,1289.267929
10.9250,93.26109377,30.8151966,1289.199008
10.9300,93.41958723,30.7584836,1289.125083
10.9350,93.58796376,30.69552522,1289.045026
10.9400,93.764697,30.62498361,1288.959196
10.9450,93.95040403,30.5468056,1288.867216
10.9500,94.14396013,30.45927489,1288.769244
10.9550,94.34479828,30.36269224,1288.665651
10.9600,94.55208442,30.25657938,1288.556732
10.9650,94.76629053,30.14081633,1288.442217
10.9700,94.98739776,30.01572252,1288.322203
10.9750,95.21404261,29.8803994,1288.197041
10.9800,95.44715321,29.73647147,1288.066791
10.9850,95.68641732,29.5825934,1287.931195
10.9900,95.93121496,29.41962618,1287.79095
10.9950,96.18159058,29.24825569,1287.646184
11.0000,96.43764985,29.06933488,1287.497217
11.0050,96.69828206,28.88198143,1287.344318
11.0100,96.96278741,28.68775941,1287.188427
11.0150,97.23181802,28.48643228,1287.029112
11.0200,97.50533408,28.27873147,1286.866719
11.0250,97.78242466,28.06512643,1286.701832
11.0300,98.06236677,27.84496204,1286.534596
11.0350,98.34650686,27.61912614,1286.364618
11.0400,98.63381477,27.38778235,1286.192509
11.0450,98.9232497,27.14943371,1286.018277
11.0500,99.21371293,26.90482549,1285.84272
11.0550,99.5065148,26.65496807,1285.665481
11.0600,99.80152291,26.39982031,1285.486528
11.0650,100.0993521,26.14078152,1285.305934
11.0700,100.399254,25.87646986,1285.123732
11.0750,100.7013993,25.60866931,1284.940301
11.0800,101.0050241,25.33744851,1284.75608
11.0850,101.3106345,25.06225567,1284.570656
11.0900,101.6184373,24.78516464,1284.384505
11.0950,101.928381,24.50676802,1284.19776
11.1000,102.2400583,24.22701809,1284.010705
11.1050,102.5545281,23.946063,1283.822865
11.1100,102.8708807,23.6654434,1283.63501
11.1150,103.1893559,23.38434683,1283.446963
11.1200,103.5090172,23.1025827,1283.258973
11.1250,103.8291554,22.82074721,1283.071587
11.1300,104.150152,22.53904211,1282.884534
11.1350,104.4708445,22.25657471,1282.698275
11.1400,104.7902016,21.97309255,1282.513246
11.1450,105.1087671,21.68938045,1282.329314
11.1500,105.4269199,21.40558259,1282.146287
11.1550,105.7437726,21.12149624,1281.96452
11.1600,106.0586562,20.83685464,1281.784212
11.1650,106.3709904,20.55105244,1281.605394
11.1700,106.6816451,20.26515698,1281.427966
11.1750,106.9909188,19.97885969,1281.251648
11.1800,107.2978643,19.69177439,1281.076754
11.1850,107.6026709,19.40423103,1280.90325
11.1900,107.9045202,19.11649728,1280.731516
11.1950,108.2042595,18.8286733,1280.561283
11.2000,108.5021696,18.53980488,1280.392059
11.2050,108.7980413,18.25140089,1280.224402
11.2100,109.0922725,17.96218642,1280.057859
11.2150,109.3841426,17.67343591,1279.892963
11.2200,109.6746951,17.38518682,1279.729261
11.2250,109.9640011,17.09696548,1279.566709
11.2300,110.2519148,16.80791042,1279.405142
11.2350,110.5378406,16.51917167,1279.245124
11.2400,110.8221547,16.23125089,1279.086626
11.2450,111.1061798,15.94418704,1278.929142
11.2500,111.3891021,15.65810456,1278.773024
11.2550,111.6713871,15.37382056,1278.618282
11.2600,111.9541448,15.09102087,1278.46442
11.2650,112.2366865,14.80991516,1278.311767
11.2700,112.5197506,14.53130618,1278.160219
11.2750,112.8041869,14.25692738,1278.009862
11.2800,113.0886288,13.98561049,1277.860974
11.2850,113.3742101,13.71856185,1277.713411
11.2900,113.6613406,13.45524028,1277.566853
11.2950,113.9489965,13.19606771,1277.421909
11.3000,114.2371113,12.93925431,1277.278088
11.3050,114.5252143,12.68494547,1277.135666
11.3100,114.8138513,12.43207676,1276.99421
11.3150,115.1013016,12.18046198,1276.854365
11.3200,115.3873289,11.93070361,1276.71634
11.3250,115.6731584,11.68132932,1276.579411
11.3300,115.9576344,11.43279374,1276.444153
11.3350,116.2408609,11.18540531,1276.310507
11.3400,116.523802,10.93885453,1276.177856
11.3450,116.8059749,10.69385834,1276.046449
11.3500,117.0891392,10.45020466,1275.915565
11.3550,117.3719483,10.20486401,1275.785057
11.3600,117.6543012,9.958652524,1275.655023
11.3650,117.9364488,9.711085502,1275.525258
11.3700,118.2187113,9.461677096,1275.395514
11.3750,118.5005892,9.209764296,1275.265807
11.3800,118.7831015,8.953782416,1275.135312
11.3850,119.0660461,8.694214435,1275.004227
11.3900,119.3492543,8.430648947,1274.872571
11.3950,119.6320834,8.161912953,1274.740248
11.4000,119.914796,7.890738809,1274.60778
11.4050,120.1997348,7.616731172,1274.474155
11.4100,120.4867694,7.340728991,1274.339656
11.4150,120.7763496,7.062703202,1274.204056
11.4200,121.0687195,6.783428374,1274.06752
11.4250,121.3640564,6.501456637,1273.929716
11.4300,121.6625331,6.217009511,1273.790752
11.4350,121.964147,5.929753482,1273.650452
11.4400,122.2692588,5.639324122,1273.50856
11.4450,122.5776275,5.345742918,1273.365263
11.4500,122.8898137,5.048944619,1273.220356
11.4550,123.2048995,4.747590798,1273.073864
11.4600,123.5228707,4.441478336,1272.925769
11.4650,123.8437669,4.131533407,1272.776283
11.4700,124.1674403,3.817427182,1272.625361
11.4750,124.4935307,3.49900316,1272.473207
11.4800,124.8232844,3.177100372,1272.319533
11.4850,125.1580628,2.852880591,1272.164035
11.4900,125.4988324,2.526292102,1272.006442
11.4950,125.8450047,2.197209798,1271.846949
11.5000,126.1965518,1.866019089,1271.685676
11.5050,126.5534954,1.532222376,1271.522546
11.5100,126.9155769,1.196398497,1271.357874
11.5150,127.2827121,0.8580329342,1271.191666
11.5200,127.6539812,0.5176517335,1271.024393
11.5250,128.02923,0.1742534183,1270.855863
11.5300,128.4081288,-0.1710363205,1270.686388
11.5350,128.789836,-0.5187203582,1270.516231
11.5400,129.1742583,-0.8688960071,1270.345427
11.5450,129.5614947,-1.221258922,1270.173848
11.5500,129.9527288,-1.574708099,1270.00128
11.5550,130.3471614,-1.930949184,1269.827814
11.5600,130.7444986,-2.288911226,1269.653714
11.5650,131.1450427,-2.647991202,1269.479138
11.5700,131.5473429,-3.008976907,1269.304446
11.5750,131.9511338,-3.372506004,1269.129659
11.5800,132.3571309,-3.738790666,1268.954516
11.5850,132.7643179,-4.107604804,1268.779453
11.5900,133.1711987,-4.478334159,1268.605098
11.5950,133.577447,-4.850227507,1268.431632
11.6000,133.9822697,-5.22294208,1268.259409
11.6050,134.3868359,-5.595734518,1268.088161
11.6100,134.7896284,-5.968400184,1267.918319
11.6150,135.1920384,-6.342507055,1267.749182
11.6200,135.5945385,-6.717461816,1267.580576
11.6250,135.9957276,-7.093251503,1267.412881
11.6300,136.3970005,-7.470624906,1267.245521
11.6350,136.7958711,-7.849969273,1267.07926
11.6400,137.1925538,-8.23130148,1266.914255
11.6450,137.5868905,-8.614829613,1266.750554
11.6500,137.9774465,-8.999744672,1266.588716
11.6550,138.3644444,-9.384572743,1266.428883
11.6600,138.7465507,-9.769606994,1266.271494
11.6650,139.1240183,-10.15480261,1266.116392
11.6700,139.495103,-10.53835252,1265.964289
11.6750,139.8604935,-10.9205028,1265.814865
11.6800,140.2198697,-11.29905735,1265.668538
11.6850,140.5734798,-11.67424829,1265.525078
11.6900,140.9204947,-12.04690897,1265.384484
11.6950,141.2624862,-12.41517428,1265.246489
11.7000,141.5996728,-12.78078708,1265.110681
11.7050,141.9311011,-13.14291264,1264.977252
11.7100,142.2578127,-13.50205111,1264.845857
11.7150,142.5797745,-13.85826259,1264.716417
11.7200,142.8975343,-14.21149425,1264.58868
11.7250,143.2114576,-14.561613,1264.462599
11.7300,143.5212383,-14.90864045,1264.33833
11.7350,143.8280119,-15.2526002,1264.215526
11.7400,144.1309638,-15.59360449,1264.094464
11.7450,144.4303326,-15.9322578,1263.974988
11.7500,144.7268308,-16.26787085,1263.856977
11.7550,145.0206,-16.60126648,1263.740431
11.7600,145.3129613,-16.93095084,1263.625171
11.7650,145.6049584,-17.25692927,1263.51092
11.7700,145.8962006,-17.5800556,1263.397684
11.7750,146.1877676,-17.89882877,1263.285329
11.7800,146.4807334,-18.21397907,1263.173388
11.7850,146.7739271,-18.52510407,1263.062219
11.7900,147.0675078,-18.83283438,1262.951745
11.7950,147.3618358,-19.13667269,1262.841791
11.8000,147.6572586,-19.43700419,1262.732246
11.8050,147.9542639,-19.73348332,1262.622965
11.8100,148.2516302,-20.02550191,1262.514196
11.8150,148.5504272,-20.31316925,1262.405665
11.8200,148.8511039,-20.59773988,1262.297041
11.8250,149.1542599,-20.87765743,1262.188263
11.8300,149.4604223,-21.15471193,1262.078972
11.8350,149.7686654,-21.42889535,1261.969364
11.8400,150.0786841,-21.70056487,1261.859479
11.8450,150.3892137,-21.97058383,1261.74962
11.8500,150.6998911,-22.23942778,1261.639835
11.8550,151.0111454,-22.50765888,1261.529791
11.8600,151.3228581,-22.77510248,1261.419664
11.8650,151.6348752,-23.04279645,1261.309244
11.8700,151.9473325,-23.31089485,1261.198554
11.8750,152.2600306,-23.57960351,1261.087706
11.8800,152.5726667,-23.84856634,1260.976888
11.8850,152.8850338,-24.11875685,1260.866071
11.8900,153.1970633,-24.38903168,1260.755528
11.8950,153.5097121,-24.66105784,1260.644904
11.9000,153.8225757,-24.93364279,1260.534477
11.9050,154.1338615,-25.20819635,1260.424532
11.9100,154.4449754,-25.48431405,1260.314771
11.9150,154.7545338,-25.75991945,1260.205784
11.9200,155.0612444,-26.03586526,1260.097792
11.9250,155.3649556,-26.31076973,1259.990858
11.9300,155.665528,-26.58442733,1259.885055
11.9350,155.9635055,-26.85679041,1259.780204
11.9400,156.2565171,-27.12803498,1259.676708
11.9450,156.5441735,-27.39861071,1259.574613
11.9500,156.8252491,-27.6681831,1259.474122
11.9550,157.0986483,-27.93693296,1259.375414
11.9600,157.365318,-28.20564253,1259.278211
11.9650,157.6235265,-28.473177,1259.182951
11.9700,157.8740325,-28.74120077,1259.089405
11.9750,158.1148863,-29.00896733,1258.998045
11.9800,158.3475605,-29.27582009,1258.908601
11.9850,158.5716,-29.54176393,1258.821199
11.9900,158.7882769,-29.80464164,1258.735802
11.9950,158.9967749,-30.06542066,1258.652458
12.0000,159.1976255,-30.32334989,1258.571179
12.0050,159.3890767,-30.57829428,1258.492506
12.0100,159.5701173,-30.83094217,1258.416467
12.0150,159.7406484,-31.08110416,1258.343158
12.0200,159.8996561,-31.32934743,1258.272688
12.0250,160.0477388,-31.575246,1258.204806
12.0300,160.183762,-31.81852333,1258.139634
12.0350,160.3060343,-32.05979135,1258.0773
12.0400,160.415722,-32.29881504,1258.017506
12.0450,160.5124356,-32.53507684,1257.960213
12.0500,160.5957095,-32.76885532,1257.905375
12.0550,160.6674732,-32.99818469,1257.852695
12.0600,160.7276922,-33.22359626,1257.802012
12.0650,160.7772222,-33.44534837,1257.753087
12.0700,160.8178798,-33.66122568,1257.705752
12.0750,160.8496108,-33.87205062,1257.659892
12.0800,160.8725608,-34.07698315,1257.615745
12.0850,160.8881692,-34.27575587,1257.572965
12.0900,160.8981663,-34.46764189,1257.531274
12.0950,160.9046277,-34.6523606,1257.490381
12.1000,160.9075635,-34.82859563,1257.450334
12.1050,160.9084109,-34.9969395,1257.410763
12.1100,160.9096217,-35.15805196,1257.371131
12.1150,160.9117745,-35.31145774,1257.331296
12.1200,160.9171019,-35.45576928,1257.290913
12.1250,160.9270932,-35.59258865,1257.249602
12.1300,160.9419816,-35.72189271,1257.20725
12.1350,160.9643312,-35.84364028,1257.163344
12.1400,160.9963672,-35.95750058,1257.117476
12.1450,161.038033,-36.06438331,1257.069574
12.1500,161.0896016,-36.16569156,1257.019483
12.1550,161.1498545,-36.26110695,1256.967509
12.1600,161.2172565,-36.35283519,1256.913605
12.1650,161.290995,-36.44187446,1256.857905
12.1700,161.3707029,-36.52884772,1256.800397
12.1750,161.4555335,-36.6142376,1256.741154
12.1800,161.5427864,-36.7005722,1256.680426
12.1850,161.6321791,-36.78752936,1256.618364
12.1900,161.7212361,-36.87834233,1256.555069
12.1950,161.8097825,-36.97102753,1256.490767
12.2000,161.8964073,-37.06747562,1256.42568
12.2050,161.9803,-37.1667732,1256.360091
12.2100,162.060533,-37.26939099,1256.294349
12.2150,162.1368503,-37.3745253,1256.228693
12.2200,162.2090051,-37.48225001,1256.163331
12.2250,162.2770221,-37.59145,1256.098535
12.2300,162.3411194,-37.70157719,1256.034362
12.2350,162.4018457,-37.8128346,1255.970786
12.2400,162.4595488,-37.92403135,1255.90789
12.2450,162.5147656,-38.03401534,1255.84563
12.2500,162.5689004,-38.1431813,1255.783767
12.2550,162.6217163,-38.24973498,1255.722489
12.2600,162.6731099,-38.35292465,1255.661732
12.2650,162.7235711,-38.4528818,1255.601346
12.2700,162.7729882,-38.54862116,1255.54123
12.2750,162.8225635,-38.64009827,1255.481255
12.2800,162.8712291,-38.72794844,1255.421363
12.2850,162.9178522,-38.81123827,1255.361834
12.2900,162.9627994,-38.89141293,1255.302456
12.2950,163.0058261,-38.96834247,1255.243289
12.3000,163.0463456,-39.04347271,1255.184227
12.3050,163.0841643,-39.11612062,1255.125292
12.3100,163.1177493,-39.18663287,1255.066628
12.3150,163.146546,-39.25462795,1255.008308
12.3200,163.1704853,-39.32019331,1254.950244
12.3250,163.1884411,-39.38294254,1254.892624
12.3300,163.2015552,-39.4437926,1254.835125
12.3350,163.2095685,-39.50265107,1254.777908
12.3400,163.2121631,-39.55997241,1254.72094
12.3450,163.2089821,-39.61605332,1254.66436
12.3500,163.2003888,-39.67121809,1254.608046
12.3550,163.1855852,-39.72642274,1254.552023
12.3600,163.1644097,-39.78245024,1254.496275
12.3650,163.1382287,-39.83899111,1254.440604
12.3700,163.1065847,-39.89724859,1254.385063
12.3750,163.0701285,-39.95768067,1254.329664
12.3800,163.0295238,-40.01913317,1254.274266
12.3850,162.984757,-40.08222072,1254.21892
12.3900,162.9357017,-40.14670079,1254.163695
12.3950,162.8826149,-40.21273148,1254.10858
12.4000,162.8278374,-40.27932524,1254.05333
12.4050,162.7717177,-40.3462174,1253.997945
12.4100,162.7154089,-40.41246138,1253.942269
12.4150,162.6596339,-40.47811466,1253.886149
12.4200,162.6040011,-40.54464152,1253.829547
12.4250,162.5478089,-40.61115883,1253.772639
12.4300,162.492024,-40.677531,1253.715309
12.4350,162.4359206,-40.74460017,1253.657573
12.4400,162.3788488,-40.81321789,1253.599395
12.4450,162.3201098,-40.88367846,1253.540885
12.4500,162.2592425,-40.95522617,1253.482192
12.4550,162.1963261,-41.02900498,1253.423164
12.4600,162.1305612,-41.1044028,1253.36415
12.4650,162.0624681,-41.18174839,1253.30492
12.4700,161.9904122,-41.26070218,1253.245819
12.4750,161.9146756,-41.34137523,1253.186763
12.4800,161.8351255,-41.42291549,1253.127853
12.4850,161.7506784,-41.50608354,1253.069241
12.4900,161.6617356,-41.58864607,1253.011035
12.4950,161.5671207,-41.6717418,1252.953292
12.5000,161.4658155,-41.75499644,1252.896145
12.5050,161.3581829,-41.83843969,1252.839566
12.5100,161.2434163,-41.92142984,1252.783708
12.5150,161.1223314,-42.00481728,1252.728279
12.5200,160.9942571,-42.08765193,1252.67357
12.5250,160.8582875,-42.17063672,1252.619641
12.5300,160.7124691,-42.25498142,1252.566625
12.5350,160.5572011,-42.33883515,1252.514585
12.5400,160.3936874,-42.42172471,1252.46342
12.5450,160.2211987,-42.50430628,1252.413223
12.5500,160.0393352,-42.58594801,1252.364069
12.5550,159.8494552,-42.66637227,1252.315797
12.5600,159.6516062,-42.74536679,1252.2685
12.5650,159.4455267,-42.82239976,1252.222284
12.5700,159.2323307,-42.89672299,1252.177083
12.5750,159.0114768,-42.96798481,1252.132944
12.5800,158.7836615,-43.03594367,1252.089794
12.5850,158.5497854,-43.10048443,1252.047452
12.5900,158.3088202,-43.1615987,1252.006018
12.5950,158.0607391,-43.21751678,1251.965609
12.6000,157.8054633,-43.26902866,1251.926167
12.6050,157.5443644,-43.31615326,1251.887476
12.6100,157.2787012,-43.35854435,1251.849485
12.6150,157.0091463,-43.39723782,1251.812056
12.6200,156.7368836,-43.43197315,1251.775153
12.6250,156.4620586,-43.46373251,1251.738699
12.6300,156.1848169,-43.49259353,1251.702772
12.6350,155.9061807,-43.51927931,1251.667171
12.6400,155.627992,-43.54318048,1251.631652
12.6450,155.3515589,-43.56474373,1251.595969
12.6500,155.0776105,-43.58471302,1251.560035
12.6550,154.8083504,-43.60278625,1251.523582
12.6600,154.5452367,-43.61769488,1251.486413
12.6650,154.2869433,-43.62992222,1251.448749
12.6700,154.0355824,-43.63921958,1251.410122
12.6750,153.7911454,-43.64453471,1251.370505
12.6800,153.5536699,-43.6477079,1251.329649
12.6850,153.322432,-43.64883739,1251.287671
12.6900,153.0979357,-43.64861339,1251.24434
12.6950,152.8779086,-43.64695575,1251.199877
12.7000,152.6625776,-43.64440691,1251.154261
12.7050,152.4508228,-43.64215086,1251.107537
12.7100,152.2420834,-43.64098429,1251.059757
12.7150,152.0342444,-43.64180852,1251.011242
12.7200,151.8264951,-43.64451869,1250.962092
12.7250,151.618699,-43.64974205,1250.912363
12.7300,151.4095061,-43.65782312,1250.862201
12.7350,151.1981358,-43.6678685,1250.811859
12.7400,150.9845997,-43.67985652,1250.761397
12.7450,150.7686664,-43.69285795,1250.710894
12.7500,150.5502633,-43.70781286,1250.660233
12.7550,150.3292843,-43.72456995,1250.609543
12.7600,150.1063579,-43.74289445,1250.55869
12.7650,149.8805449,-43.76315199,1250.507856
12.7700,149.6519858,-43.78557513,1250.456986
12.7750,149.4203234,-43.80986951,1250.406144
12.7800,149.1855087,-43.83625423,1250.355389
12.7850,148.9471888,-43.86485,1250.304679
12.7900,148.7065777,-43.89572751,1250.253973
12.7950,148.4629535,-43.92912794,1250.203392
12.8000,148.217791,-43.96403278,1250.152816
12.8050,147.9718528,-44.00007226,1250.102167
12.8100,147.725384,-44.03708683,1250.051381
12.8150,147.4777059,-44.07500764,1250.000597
12.8200,147.2304043,-44.11349297,1249.94944
12.8250,146.9837665,-44.15251728,1249.897877
12.8300,146.73841,-44.19110518,1249.845916
12.8350,146.4943704,-44.23083805,1249.793515
12.8400,146.249862,-44.27152812,1249.740895
12.8450,146.005489,-44.31331359,1249.687917
12.8500,145.7613801,-44.35599751,1249.634585
12.8550,145.5166341,-44.4004947,1249.580955
12.8600,145.2707229,-44.4471853,1249.527104
12.8650,145.0241862,-44.49676575,1249.472917
12.8700,144.7774501,-44.55024251,1249.418269
12.8750,144.5299731,-44.60785892,1249.363351
12.8800,144.2815192,-44.66926008,1249.308289
12.8850,144.032924,-44.73528523,1249.252959
12.8900,143.784829,-44.80449924,1249.197337
12.8950,143.5370624,-44.87846604,1249.141463
12.9000,143.2904799,-44.95565507,1249.085285
12.9050,143.044376,-45.03769932,1249.028756
12.9100,142.7991646,-45.12358904,1248.971906
12.9150,142.5546398,-45.21302837,1248.914766
12.9200,142.3095672,-45.30648645,1248.857525
12.9250,142.0650385,-45.40383078,1248.80005
12.9300,141.8220282,-45.50496389,1248.742091
12.9350,141.5801719,-45.60917125,1248.683791
12.9400,141.3393988,-45.7163737,1248.625221
12.9450,141.1010393,-45.82635517,1248.566145
12.9500,140.8659525,-45.93896199,1248.506443
12.9550,140.6335753,-46.05429201,1248.44619
12.9600,140.4046765,-46.17365387,1248.385255
12.9650,140.1804162,-46.29592251,1248.323491
12.9700,139.9609155,-46.42141534,1248.260988
12.9750,139.7465767,-46.55048846,1248.197582
12.9800,139.5378461,-46.6824925,1248.1334
12.9850,139.3356321,-46.8180202,1248.068213
12.9900,139.1406555,-46.95545414,1248.002079
12.9950,138.9540175,-47.09685867,1247.934691
13.0000,138.774468,-47.24160302,1247.866296
13.0050,138.6029973,-47.3897855,1247.796771
13.0100,138.4384918,-47.5411624,1247.726408
13.0150,138.2829413,-47.69671283,1247.65474
13.0200,138.1356755,-47.85657564,1247.581964
13.0250,137.9974401,-48.01955321,1247.507999
13.0300,137.868151,-48.18461547,1247.43305
13.0350,137.7490125,-48.35338299,1247.356781
13.0400,137.6389075,-48.52616211,1247.279469
13.0450,137.5384487,-48.70291501,1247.200999
13.0500,137.446954,-48.88273203,1247.12169
13.0550,137.3647839,-49.06550372,1247.041417
13.0600,137.2922204,-49.25102567,1246.960208
13.0650,137.2289077,-49.43881083,1246.878234
13.0700,137.1751615,-49.62860006,1246.795453
13.0750,137.1301738,-49.82024818,1246.712025
13.0800,137.0938653,-50.01300432,1246.628021
13.0850,137.0666419,-50.20688623,1246.543388
13.0900,137.0480676,-50.40171116,1246.458054
13.0950,137.0369815,-50.59767241,1246.372254
13.1000,137.0327825,-50.79477457,1246.286075
13.1050,137.034417,-50.99260149,1246.199613
13.1100,137.0406546,-51.19078447,1246.11313
13.1150,137.0507503,-51.38918173,1246.02667
13.1200,137.062536,-51.5872383,1245.940693
13.1250,137.0760439,-51.78581624,1245.855083
13.1300,137.0909341,-51.98340831,1245.769923
13.1350,137.1055245,-52.17944308,1245.685492
13.1400,137.1190477,-52.37485015,1245.601773
13.1450,137.130874,-52.56848388,1245.518962
13.1500,137.1396068,-52.76069971,1245.43712
13.1550,137.145348,-52.95192453,1245.356168
13.1600,137.1474607,-53.14100603,1245.276259
13.1650,137.1446853,-53.32908467,1245.197418
13.1700,137.1359717,-53.51446774,1245.119884
13.1750,137.1212994,-53.6963577,1245.043529
13.1800,137.0989473,-53.87540879,1244.968584
13.1850,137.0679611,-54.04995115,1244.895176
13.1900,137.0281343,-54.22052785,1244.823297
13.1950,136.9808993,-54.38668536,1244.752619
13.2000,136.9242111,-54.54776677,1244.683579
13.2050,136.8580806,-54.70296244,1244.616261
13.2100,136.7820857,-54.85290372,1244.55062
13.2150,136.6975632,-54.99715546,1244.486433
13.2200,136.6042701,-55.13568972,1244.423769
13.2250,136.5024655,-55.26878002,1244.362482
13.2300,136.3927251,-55.39533177,1244.302593
13.2350,136.2755061,-55.5155262,1244.244062
13.2400,136.1504077,-55.62983671,1244.186902
13.2450,136.0188141,-55.73923166,1244.130864
13.2500,135.8806178,-55.84292023,1244.076094
13.2550,135.7373861,-55.9411302,1244.02223
13.2600,135.5907283,-56.03254949,1243.969154
13.2650,135.4415945,-56.1195883,1243.916678
13.2700,135.2902715,-56.20171784,1243.864798
13.2750,135.1397677,-56.27826985,1243.813123
13.2800,134.9912508,-56.35114439,1243.761421
13.2850,134.8461496,-56.41975481,1243.709592
13.2900,134.7059879,-56.48515224,1243.657397
13.2950,134.5722535,-56.54632977,1243.604779
13.3000,134.4469737,-56.60472133,1243.551446
13.3050,134.3303729,-56.66077448,1243.497498
13.3100,134.2237116,-56.71480099,1243.442863
13.3150,134.1270731,-56.76643914,1243.387733
13.3200,134.0420661,-56.81668268,1243.331931
13.3250,133.9679754,-56.86574641,1243.275761
13.3300,133.9045382,-56.9147762,1243.219347
13.3350,133.8519577,-56.96448963,1243.162843
13.3400,133.8087703,-57.01377823,1243.1066
13.3450,133.7748619,-57.06321687,1243.050799
13.3500,133.7494133,-57.11442155,1242.995566
13.3550,133.7309531,-57.16559322,1242.941293
13.3600,133.7174892,-57.21825253,1242.888346
13.3650,133.7077124,-57.27069253,1242.836925
13.3700,133.7003323,-57.32366411,1242.787374
13.3750,133.6948658,-57.37732923,1242.739628
13.3800,133.690388,-57.43100039,1242.693862
13.3850,133.684825,-57.48377271,1242.650413
13.3900,133.6777603,-57.53527411,1242.609326
13.3950,133.6692377,-57.58537509,1242.570497
13.4000,133.6590215,-57.63409235,1242.533858
13.4050,133.6471496,-57.6808994,1242.49939
13.4100,133.6339147,-57.72515471,1242.466946
13.4150,133.6195141,-57.76695527,1242.436534
13.4200,133.604971,-57.80651363,1242.407849
13.4250,133.5908735,-57.84299899,1242.380659
13.4300,133.5781243,-57.87665426,1242.354797
13.4350,133.5673695,-57.90723703,1242.330116
13.4400,133.5600237,-57.93410324,1242.306362
13.4450,133.5566865,-57.95781687,1242.283362
13.4500,133.5586942,-57.9780709,1242.260969
13.4550,133.5658053,-57.99473692,1242.23922
13.4600,133.5786416,-58.00773891,1242.217982
13.4650,133.5976422,-58.01676803,1242.197324
13.4700,133.6221135,-58.02268437,1242.177327
13.4750,133.6521723,-58.0259754,1242.158039
13.4800,133.6880286,-58.02596584,1242.139494
13.4850,133.7284011,-58.0230387,1242.121942
13.4900,133.7724697,-58.01799847,1242.105727
13.4950,133.8188356,-58.01054494,1242.091026
13.5000,133.8668937,-58.00100751,1242.078058
13.5050,133.9159439,-57.99000372,1242.066869
13.5100,133.9637144,-57.97657506,1242.05802
13.5150,134.009412,-57.96146832,1242.051568
13.5200,134.0528859,-57.94485618,1242.047488
13.5250,134.0929508,-57.92665382,1242.04612
13.5300,134.1280857,-57.90752437,1242.047658
13.5350,134.1596939,-57.88849613,1242.051814
13.5400,134.1881093,-57.86912085,1242.058577
13.5450,134.2118481,-57.84847047,1242.068274
13.5500,134.2320911,-57.8270635,1242.080564
13.5550,134.2496625,-57.80520929,1242.095378
13.5600,134.2644901,-57.78303072,1242.112728
13.5650,134.2775666,-57.7604225,1242.132289
13.5700,134.2900654,-57.73782407,1242.153873
13.5750,134.3013228,-57.71575405,1242.177598
13.5800,134.3116985,-57.69478133,1242.203351
13.5850,134.3225576,-57.67488205,1242.230847
13.5900,134.3327966,-57.65519791,1242.260316
13.5950,134.3430105,-57.63651056,1242.29158
13.6000,134.3528599,-57.61937256,1242.324728
13.6050,134.3640497,-57.60325826,1242.359419
13.6100,134.3765659,-57.5883555,1242.395715
13.6150,134.3907023,-57.57403848,1242.433527
13.6200,134.407246,-57.560264,1242.472755
13.6250,134.4260694,-57.54774723,1242.51346
13.6300,134.4489285,-57.53657819,1242.555235
13.6350,134.4737552,-57.52655414,1242.598542
13.6400,134.5033497,-57.51864804,1242.642827
13.6450,134.5370605,-57.51218152,1242.688202
13.6500,134.5760574,-57.50673936,1242.734589
13.6550,134.619578,-57.50310714,1242.782198
13.6600,134.6697591,-57.50158107,1242.830559
13.6650,134.7272523,-57.50287528,1242.879721
13.6700,134.7914993,-57.50629684,1242.929726
13.6750,134.8633259,-57.51261042,1242.980446
13.6800,134.9426267,-57.52258576,1243.031903
13.6850,135.0308646,-57.53548738,1243.083876
13.6900,135.1273375,-57.55291141,1243.136453
13.6950,135.2317838,-57.57459713,1243.189768
13.7000,135.3444688,-57.59964134,1243.243785
13.7050,135.4649972,-57.62755006,1243.298525
13.7100,135.5920315,-57.65989477,1243.3542
13.7150,135.7252873,-57.69473568,1243.410831
13.7200,135.86477,-57.73218507,1243.468434
13.7250,136.0088735,-57.77203579,1243.527307
