type,name,time_units,begin_time,frequency,count,units
signal_3d,"Noraxon MyoMotion-Trajectories-Ulnar styloid process RT","s",0.0000,200,5108,"mm"

time,x,y,z
0.0000,153.370747,19.6859481,986.6599361
0.0050,153.3354619,19.74062598,986.6746765
0.0100,153.3001702,19.79529658,986.6894255
0.0150,153.2648721,19.84995992,986.7041831
0.0200,153.2253482,19.90951899,986.7204112
0.0250,153.1815428,19.97373789,986.7380763
0.0300,153.1334452,20.04232122,986.7571291
0.0350,153.0810924,20.11492845,986.7775063
0.0400,153.0245756,20.19118389,986.7991327
0.0450,152.9640471,20.27067832,986.8219204
0.0500,152.8997217,20.3529673,986.8457692
0.0550,152.8318653,20.43757047,986.870568
0.0600,152.7607788,20.52397421,986.8961958
0.0650,152.6867927,20.61164337,986.9225237
0.0700,152.6102737,20.70003743,986.9494155
0.0750,152.5316332,20.78862013,986.9767266
0.0800,152.4513297,20.87686404,987.0043054
0.0850,152.369866,20.96425562,987.0319945
0.0900,152.2877862,21.05030023,987.0596319
0.0950,152.2056713,21.13452667,987.0870524
0.1000,152.1241256,21.21649377,987.1140896
0.1050,152.0437607,21.29579792,987.1405784
0.1100,151.9651816,21.37207441,987.1663562
0.1150,151.8889775,21.44499357,987.1912647
0.1200,151.815715,21.51426044,987.2151526
0.1250,151.7459314,21.57961706,987.2378784
0.1300,151.6801258,21.64084252,987.259312
0.1350,151.6187401,21.69775458,987.2793385
0.1400,151.5621367,21.7502167,987.2978619
0.1450,151.5105787,21.79814831,987.3148105
0.1500,151.4642162,21.84153422,987.3301397
0.1550,151.3510999,21.93612833,987.3635352
0.1600,151.2430332,22.02525596,987.3951371
0.1650,151.1395285,22.10856646,987.4249222
0.1700,151.040126,22.18635795,987.4528908
0.1750,150.9456348,22.25872949,987.4790695
0.1800,150.854056,22.32486691,987.5035518
0.1850,150.7662936,22.38628592,987.526447
0.1900,150.6814526,22.44309717,987.5479053
0.1950,150.5990001,22.49564921,987.5679629
0.2000,150.5203746,22.54458995,987.5866433
0.2050,150.4442337,22.59014041,987.6042274
0.2100,150.3706455,22.63133131,987.6204527
0.2150,150.2965048,22.6689174,987.6359576
0.2200,150.2229597,22.70302958,987.6505901
0.2250,150.1504301,22.73372115,987.6643123
0.2300,150.0790654,22.75963732,987.6769284
0.2350,150.0091803,22.78282362,987.688811
0.2400,149.9389529,22.80234859,987.7000357
0.2450,149.8695157,22.81899199,987.7104573
0.2500,149.8011864,22.83234824,987.7202905
0.2550,149.7332898,22.84287524,987.7295658
0.2600,149.6659955,22.85140085,987.7383797
0.2650,149.5984425,22.85808746,987.7468285
0.2700,149.5323632,22.86115457,987.7545304
0.2750,149.4662212,22.86250015,987.7619053
0.2800,149.4014745,22.86070218,987.7687516
0.2850,149.3377676,22.85725647,987.7752066
0.2900,149.2746546,22.85036517,987.7811053
0.2950,149.2133818,22.8406296,987.7864609
0.3000,149.152622,22.8289492,987.7915075
0.3050,149.0918758,22.81417089,987.796159
0.3100,149.0319088,22.79717687,987.8003945
0.3150,148.9723367,22.77759356,987.8042392
0.3200,148.9134345,22.75570658,987.8076029
0.3250,148.8538076,22.73152055,987.8108306
0.3300,148.794408,22.70393625,987.8136445
0.3350,148.7351101,22.67469536,987.8161586
0.3400,148.6758136,22.64275155,987.8183712
0.3450,148.6164405,22.60934556,987.8203585
0.3500,148.5580812,22.57307167,987.8217749
0.3550,148.4992684,22.53505105,987.8230686
0.3600,148.4413299,22.4955924,987.8239785
0.3650,148.3838118,22.45461219,987.8245642
0.3700,148.3269604,22.41179097,987.8248161
0.3750,148.2707941,22.36731243,987.8247366
0.3800,148.2157665,22.32325342,987.8246062
0.3850,148.1620849,22.27853643,987.8241571
0.3900,148.1091946,22.23346124,987.8233727
0.3950,148.0585662,22.18757423,987.8221007
0.4000,148.0096391,22.14168401,987.8205987
0.4050,147.962606,22.09506252,987.8185723
0.4100,147.9172791,22.04958021,987.8164004
0.4150,147.8746096,22.00463501,987.8138819
0.4200,147.8342784,21.95977262,987.8109292
0.4250,147.7958974,21.91459058,987.8075741
0.4300,147.7597097,21.8698399,987.8038
0.4350,147.7255628,21.82558728,987.7997938
0.4400,147.6928204,21.78133343,987.7955109
0.4450,147.6613001,21.73766839,987.7909356
0.4500,147.6319572,21.69345512,987.7859495
0.4550,147.6036388,21.64972047,987.7808965
0.4600,147.5765409,21.60624093,987.775616
0.4650,147.5496041,21.56295709,987.7703681
0.4700,147.5226049,21.51920804,987.765076
0.4750,147.4949794,21.4764465,987.760032
0.4800,147.4671963,21.43491241,987.7551014
0.4850,147.4383442,21.39290049,987.7503921
0.4900,147.4076177,21.35183635,987.746044
0.4950,147.3748755,21.3113847,987.7422269
0.5000,147.3394781,21.27032076,987.7386564
0.5050,147.3012318,21.22895187,987.7356087
0.5100,147.2607188,21.18840994,987.7331565
0.5150,147.2192838,21.14703341,987.7307336
0.5200,147.1756838,21.10617245,987.7288212
0.5250,147.1288962,21.06627237,987.7277002
0.5300,147.0799004,21.02749306,987.7271001
0.5350,147.0275829,20.98881158,987.7270807
0.5400,146.9737228,20.95071014,987.7275798
0.5450,146.9181045,20.91282092,987.7285532
0.5500,146.8599559,20.87533514,987.7300192
0.5550,146.7999123,20.83756069,987.7318448
0.5600,146.7388922,20.79952105,987.7338318
0.5650,146.6754445,20.76040885,987.7362483
0.5700,146.6098752,20.72200133,987.7392219
0.5750,146.5424792,20.68384769,987.7426389
0.5800,146.4726685,20.64459539,987.7463288
0.5850,146.4026611,20.60389187,987.7500252
0.5900,146.3300168,20.56215705,987.7540959
0.5950,146.2560658,20.51864852,987.7582391
0.6000,146.1798072,20.47301485,987.7624928
0.6050,146.1034653,20.42581921,987.766672
0.6100,146.0254965,20.3770638,987.7709698
0.6150,145.9476354,20.32594036,987.7751349
0.6200,145.870753,20.27219735,987.77903
0.6250,145.7940372,20.21634507,987.7826325
0.6300,145.7178372,20.15911615,987.7861098
0.6350,145.6412767,20.09956685,987.7894703
0.6400,145.5654853,20.03827677,987.7926673
0.6450,145.4909681,19.97434006,987.7955207
0.6500,145.4162556,19.90934516,987.7983148
0.6550,145.3430854,19.84167416,987.8007178
0.6600,145.2708692,19.77179035,987.8027581
0.6650,145.1980849,19.69996179,987.8048271
0.6700,145.1267896,19.62684372,987.8066335
0.6750,145.0566193,19.55236278,987.8081939
0.6800,144.9872393,19.47534572,987.8094233
0.6850,144.9182375,19.39733545,987.8103771
0.6900,144.8501379,19.31741826,987.8109935
0.6950,144.7827907,19.23771814,987.8114945
0.7000,144.7162317,19.15747303,987.8117515
0.7050,144.650177,19.07610829,987.8118483
0.7100,144.5844325,18.99360168,987.8116902
0.7150,144.519097,18.90982165,987.8113854
0.7200,144.4541555,18.82549363,987.8108357
0.7250,144.3892678,18.74029791,987.8100206
0.7300,144.3252029,18.65375435,987.8088742
0.7350,144.2621538,18.56641354,987.8072925
0.7400,144.2007747,18.47822067,987.8052401
0.7450,144.1409857,18.38905687,987.8027432
0.7500,144.0822191,18.29901889,987.7997968
0.7550,144.0244307,18.20837854,987.7964823
0.7600,143.967443,18.11799406,987.7931386
0.7650,143.9135395,18.02720648,987.789185
0.7700,143.861341,17.93646158,987.7850423
0.7750,143.8103917,17.84564745,987.7806123
0.7800,143.7611572,17.75380559,987.7758658
0.7850,143.7139318,17.66153909,987.7707194
0.7900,143.6698582,17.56906735,987.7651747
0.7950,143.6273172,17.47641852,987.7594822
0.8000,143.5879614,17.38387874,987.7533505
0.8050,143.5508954,17.292573,987.747006
0.8100,143.5153394,17.20086663,987.7403543
0.8150,143.4814052,17.10932108,987.7336594
0.8200,143.4492528,17.01860439,987.7267702
0.8250,143.4196944,16.92838248,987.7195454
0.8300,143.3915243,16.83951682,987.7123035
0.8350,143.3650638,16.7512507,987.704916
0.8400,143.3390261,16.66392052,987.6976245
0.8450,143.3159112,16.57722086,987.690014
0.8500,143.2939676,16.49133075,987.6824216
0.8550,143.2738369,16.40684123,987.6748135
0.8600,143.2550698,16.32254394,987.6671266
0.8650,143.238869,16.23941015,987.6591701
0.8700,143.2237287,16.15663101,987.6511606
0.8750,143.2096884,16.07336575,987.6430782
0.8800,143.1968564,15.99229458,987.6351431
0.8850,143.1840833,15.91174385,987.6273169
0.8900,143.1722412,15.83328155,987.6198149
0.8950,143.1594947,15.7569715,987.6127722
0.9000,143.1479026,15.68136714,987.605854
0.9050,143.1355629,15.60794106,987.5994186
0.9100,143.1228802,15.53562135,987.5932707
0.9150,143.1087847,15.46523027,987.5875865
0.9200,143.0930673,15.39813547,987.5826676
0.9250,143.0773397,15.33254177,987.5781103
0.9300,143.0610391,15.26898229,987.573937
0.9350,143.0434576,15.208281,987.5703779
0.9400,143.0248439,15.14941322,987.5671483
0.9450,143.0052862,15.09238843,987.5643178
0.9500,142.9844295,15.03768358,987.5620251
0.9550,142.9610226,14.98611081,987.5604099
0.9600,142.9358954,14.93735704,987.5594733
0.9650,142.911165,14.89063784,987.5586142
0.9700,142.8840005,14.84618725,987.5584315
0.9750,142.8560788,14.80434993,987.5586325
0.9800,142.8271727,14.76498993,987.5591222
0.9850,142.7968665,14.72821203,987.5602621
0.9900,142.7649454,14.69407028,987.5620394
0.9950,142.7316057,14.66152326,987.5642452
1.0000,142.6959608,14.63101109,987.566944
1.0050,142.6586258,14.60175875,987.570024
1.0100,142.6187606,14.5745317,987.5736958
1.0150,142.5766715,14.54976627,987.5779423
1.0200,142.5310153,14.52685022,987.5829698
1.0250,142.4841786,14.5057134,987.5884554
1.0300,142.4343184,14.48619007,987.594532
1.0350,142.3822023,14.46825704,987.6011507
1.0400,142.3273699,14.45195929,987.6083008
1.0450,142.2694883,14.43688608,987.6160003
1.0500,142.2096106,14.42371163,987.6241486
1.0550,142.1471411,14.41279881,987.6329449
1.0600,142.0824923,14.40247656,987.6418487
1.0650,142.0142653,14.39307896,987.6512853
1.0700,141.9438276,14.3856386,987.6611158
1.0750,141.8708974,14.37990945,987.6714679
1.0800,141.7953586,14.37624455,987.6825222
1.0850,141.7169077,14.37490229,987.69437
1.0900,141.6355373,14.37534935,987.7068769
1.0950,141.552214,14.37767459,987.7200124
1.1000,141.4656323,14.38301589,987.7342622
1.1050,141.3772814,14.38982539,987.7491205
1.1100,141.2862604,14.39758721,987.7647948
1.1150,141.1935744,14.40779633,987.7812723
1.1200,141.1002995,14.41878462,987.7982272
1.1250,141.0057316,14.43088754,987.8158147
1.1300,140.9094007,14.44364535,987.8340257
1.1350,140.8121638,14.45799053,987.8527659
1.1400,140.7144051,14.47308284,987.8719075
1.1450,140.6140673,14.48894982,987.8917865
1.1500,140.513562,14.50517721,987.9120079
1.1550,140.410635,14.52250453,987.932993
1.1600,140.3052333,14.54231239,987.9550064
1.1650,140.1963304,14.5642522,987.9782113
1.1700,140.0840042,14.58802286,988.0026284
1.1750,139.9666282,14.61494064,988.0286936
1.1800,139.8444883,14.64316771,988.0563162
1.1850,139.7154423,14.67465583,988.0862362
1.1900,139.5806112,14.70722833,988.1180585
1.1950,139.4391887,14.7421417,988.1522501
1.2000,139.2892679,14.78026717,988.1893293
1.2050,139.1310293,14.81964832,988.2292278
1.2100,138.9649808,14.86125637,988.2722115
1.2150,138.7918729,14.90531711,988.3182632
1.2200,138.6114796,14.94987606,988.367004
1.2250,138.4245308,14.99515977,988.4186479
1.2300,138.2305141,15.04041004,988.4730547
1.2350,138.0308665,15.08516363,988.529855
1.2400,137.8270558,15.12939499,988.5888078
1.2450,137.6181866,15.17235311,988.6499642
1.2500,137.4066248,15.21399531,988.7128253
1.2550,137.191981,15.2540912,988.7773115
1.2600,136.9731202,15.2920699,988.8433753
1.2650,136.7490207,15.32923285,988.9112543
1.2700,136.5205719,15.36517159,988.9804131
1.2750,136.2859427,15.39986753,989.0511845
1.2800,136.0450147,15.43297095,989.1234356
1.2850,135.7985621,15.46465106,989.1970359
1.2900,135.5441625,15.49478617,989.2723988
1.2950,135.2799513,15.52336152,989.3497809
1.3000,135.0054717,15.55024051,989.4293658
1.3050,134.7202219,15.57639248,989.5112266
1.3100,134.4235707,15.60197936,989.5954787
1.3150,134.1147282,15.62599509,989.6821635
1.3200,133.7947648,15.64945961,989.7714825
1.3250,133.4621119,15.67187696,989.8635558
1.3300,133.117739,15.6933689,989.9584415
1.3350,132.7610628,15.71324021,990.0561292
1.3400,132.3925796,15.73275305,990.1567397
1.3450,132.0123995,15.75112658,990.260487
1.3500,131.6210937,15.76957079,990.3673608
1.3550,131.219208,15.78739055,990.4771632
1.3600,130.8067614,15.80591916,990.5904396
1.3650,130.3840303,15.82524217,990.707175
1.3700,129.9498553,15.845403,990.8276769
1.3750,129.5048284,15.86574277,990.9519607
1.3800,129.047908,15.88729627,991.0804595
1.3850,128.5789033,15.91064631,991.2133506
1.3900,128.0960023,15.93645323,991.3513961
1.3950,127.5990242,15.96593624,991.4948
1.4000,127.0868913,15.99754535,991.6437591
1.4050,126.5594275,16.03296616,991.7989711
1.4100,126.0160772,16.07514113,991.9609468
1.4150,125.4558293,16.1212137,992.129724
1.4200,124.8767908,16.17277319,992.3061779
1.4250,124.2783561,16.23094292,992.4908096
1.4300,123.6614484,16.29575901,992.6838362
1.4350,123.0260257,16.36691622,992.8856439
1.4400,122.3717793,16.44581703,993.0966928
1.4450,121.6997757,16.53366921,993.3170803
1.4500,121.0106776,16.63072692,993.5471948
1.4550,120.3042978,16.73761277,993.7873783
1.4600,119.58044,16.85491339,994.0379443
1.4650,118.8405191,16.98157231,994.2987781
1.4700,118.085328,17.11877244,994.5704446
1.4750,117.3154877,17.26781044,994.8531274
1.4800,116.5303143,17.42912702,995.1474026
1.4850,115.7311127,17.60304518,995.4533191
1.4900,114.9153431,17.79127091,995.7719725
1.4950,114.0830147,17.99340244,996.1036623
1.5000,113.2337433,18.21082502,996.4490186
1.5050,112.3672985,18.44360034,996.808618
1.5100,111.4812894,18.69276758,997.183363
1.5150,110.5746153,18.95780494,997.5740475
1.5200,109.6469254,19.23988909,997.9815791
1.5250,108.6956311,19.5393031,998.4067691
1.5300,107.7211099,19.85644083,998.8501895
1.5350,106.7226573,20.19044463,999.312576
1.5400,105.6976402,20.54233772,999.7950203
1.5450,104.6469805,20.91280115,1000.297665
1.5500,103.5692297,21.30029277,1000.82104
1.5550,102.4661925,21.7051751,1001.365212
1.5600,101.3378129,22.12691639,1001.930592
1.5650,100.1849181,22.56533245,1002.517255
1.5700,99.00693856,23.01894673,1003.125456
1.5750,97.80482104,23.48879189,1003.755594
1.5800,96.57962272,23.97424202,1004.407533
1.5850,95.32998891,24.47507516,1005.081466
1.5900,94.05785371,24.99087822,1005.776947
1.5950,92.76380447,25.52185799,1006.494191
1.6000,91.4491514,26.06719459,1007.232856
1.6050,90.1127946,26.62585906,1007.993203
1.6100,88.75529596,27.19786724,1008.775508
1.6150,87.37790022,27.78297754,1009.57953
1.6200,85.98007889,28.38030508,1010.405284
1.6250,84.56128915,28.98976416,1011.253134
1.6300,83.12234352,29.61102161,1012.123103
1.6350,81.66375828,30.24290891,1013.015139
1.6400,80.18573304,30.88454639,1013.929508
1.6450,78.68932298,31.5364704,1014.865814
1.6500,77.17422496,32.19563726,1015.824132
1.6550,75.64156274,32.86206786,1016.804215
1.6600,74.09285111,33.53650731,1017.805802
1.6650,72.52881626,34.21774556,1018.828737
1.6700,70.95253543,34.9050678,1019.872099
1.6750,69.36496633,35.59865413,1020.935801
1.6800,67.76912403,36.29805386,1022.018529
1.6850,66.16494359,37.00282387,1023.120471
1.6900,64.55579328,37.71178518,1024.240358
1.6950,62.9410169,38.4230102,1025.377799
1.7000,61.3237933,39.13738492,1026.532346
1.7050,59.70389927,39.85391273,1027.703091
1.7100,58.08458478,40.57092121,1028.889194
1.7150,56.46584447,41.29025559,1030.090671
1.7200,54.84953327,42.01105961,1031.306545
1.7250,53.23712134,42.73207753,1032.535967
1.7300,51.63008226,43.45385416,1033.778681
1.7350,50.02921094,44.17558467,1035.033956
1.7400,48.43562558,44.89685444,1036.301052
1.7450,46.85004861,45.61674206,1037.579787
1.7500,45.27239601,46.33504697,1038.869536
1.7550,43.70514609,47.04983596,1040.169223
1.7600,42.15030336,47.76098242,1041.47822
1.7650,40.6070352,48.46882422,1042.796334
1.7700,39.07635777,49.1726637,1044.12252
1.7750,37.5592487,49.87145622,1045.456066
1.7800,36.0558745,50.56471112,1046.796906
1.7850,34.56665292,51.2517798,1048.144174
1.7900,33.09361063,51.93299452,1049.49746
1.7950,31.63634222,52.60747181,1050.856583
1.8000,30.19588374,53.27401611,1052.220764
1.8050,28.7722602,53.93362186,1053.589776
1.8100,27.3659931,54.58479874,1054.963301
1.8150,25.97706938,55.22636674,1056.341119
1.8200,24.60468063,55.85853684,1057.723215
1.8250,23.25042768,56.48185052,1059.10896
1.8300,21.91389187,57.09525711,1060.498898
1.8350,20.59441754,57.69752228,1061.892881
1.8400,19.29287023,58.2876282,1063.290207
1.8450,18.0089573,58.86642129,1064.691141
1.8500,16.7418704,59.4327244,1066.095662
1.8550,15.49205368,59.98629213,1067.503755
1.8600,14.25975303,60.5275713,1068.915066
1.8650,13.04504025,61.05505849,1070.329514
1.8700,11.84872363,61.56959634,1071.747015
1.8750,10.67024677,62.07044095,1073.166495
1.8800,9.509024844,62.55745421,1074.589152
1.8850,8.365770824,63.03002731,1076.013883
1.8900,7.239954892,63.48910191,1077.441158
1.8950,6.131997316,63.93439643,1078.870197
1.9000,5.040028652,64.36616248,1080.301736
1.9050,3.965322978,64.78584582,1081.73524
1.9100,2.906484846,65.19238568,1083.170432
1.9150,1.862101681,65.58642366,1084.608288
1.9200,0.8325228688,65.96813247,1086.048579
1.9250,-0.182548002,66.33730182,1087.491267
1.9300,-1.184200087,66.69462839,1088.936472
1.9350,-2.173273556,67.04123711,1090.384781
1.9400,-3.149991751,67.37683714,1091.83582
1.9450,-4.11572754,67.70167199,1093.290091
1.9500,-5.070367773,68.01669416,1094.748113
1.9550,-6.014287427,68.32181319,1096.210248
1.9600,-6.948097823,68.61671966,1097.676218
1.9650,-7.871848037,68.90123547,1099.146143
1.9700,-8.786953937,69.17607168,1100.620108
1.9750,-9.693671068,69.4407555,1102.098308
1.9800,-10.5928094,69.69662429,1103.581121
1.9850,-11.48329642,69.9426696,1105.067503
1.9900,-12.36642692,70.17934558,1106.558097
1.9950,-13.2398644,70.40683291,1108.052128
2.0000,-14.10571906,70.62583288,1109.550232
2.0050,-14.96288919,70.83517639,1111.051665
2.0100,-15.81173356,71.0364246,1112.556618
2.0150,-16.65214005,71.22739241,1114.064187
2.0200,-17.48271227,71.40981879,1115.57486
2.0250,-18.30284052,71.58421644,1117.088125
2.0300,-19.11301661,71.74966245,1118.603598
2.0350,-19.91327794,71.90674553,1120.121272
2.0400,-20.70379088,72.05574137,1121.641202
2.0450,-21.4853482,72.19699816,1123.163575
2.0500,-22.25766584,72.33064892,1124.688294
2.0550,-23.0208257,72.45828465,1126.215794
2.0600,-23.77514762,72.5784529,1127.745014
2.0650,-24.52048239,72.69230941,1129.27677
2.0700,-25.25786232,72.80017319,1130.811465
2.0750,-25.98690017,72.90148846,1132.348867
2.0800,-26.7080761,72.99705442,1133.889221
2.0850,-27.42145788,73.08644454,1135.433117
2.0900,-28.12677175,73.17029275,1136.979796
2.0950,-28.82275547,73.24989819,1138.528869
2.1000,-29.51026446,73.32499251,1140.081836
2.1050,-30.18882202,73.39543017,1141.637793
2.1100,-30.85763681,73.45980565,1143.19589
2.1150,-31.51670602,73.52119767,1144.756686
2.1200,-32.16619967,73.57784896,1146.320004
2.1250,-32.80599859,73.62838421,1147.885432
2.1300,-33.43654888,73.67294282,1149.45283
2.1350,-34.05769899,73.7127711,1151.022081
2.1400,-34.66796411,73.74813358,1152.592702
2.1450,-35.26920774,73.77670864,1154.165132
2.1500,-35.85911945,73.79985535,1155.738898
2.1550,-36.43914957,73.81730573,1157.314671
2.1600,-37.00945867,73.82791808,1158.892008
2.1650,-37.57006979,73.83193978,1160.471443
2.1700,-38.12135936,73.83013882,1162.05329
2.1750,-38.66259162,73.82151827,1163.637512
2.1800,-39.19552902,73.80757127,1165.223237
2.1850,-39.71990619,73.78710997,1166.810824
2.1900,-40.23621019,73.76139737,1168.400698
2.1950,-40.74461283,73.7303258,1169.993019
2.2000,-41.24381943,73.69350293,1171.587338
2.2050,-41.73591566,73.65100427,1173.184193
2.2100,-42.21950672,73.60234683,1174.783723
2.2150,-42.69462474,73.54819522,1176.385577
2.2200,-43.16259261,73.48843403,1177.99053
2.2250,-43.62243689,73.42554667,1179.598264
2.2300,-44.07534471,73.35747855,1181.208823
2.2350,-44.52153155,73.28458055,1182.821895
2.2400,-44.96125996,73.20708815,1184.438153
2.2450,-45.39478106,73.12485612,1186.057765
2.2500,-45.82218314,73.04057527,1187.680425
2.2550,-46.24332602,72.95364058,1189.305689
2.2600,-46.65830687,72.86204877,1190.934022
2.2650,-47.0692718,72.76782361,1192.564982
2.2700,-47.4753472,72.66951154,1194.199421
2.2750,-47.8771068,72.56880368,1195.836813
2.2800,-48.27436777,72.46421098,1197.477882
2.2850,-48.66676961,72.35786417,1199.122933
2.2900,-49.05455962,72.2483921,1200.771237
2.2950,-49.43772872,72.13640244,1202.423255
2.3000,-49.81570789,72.02251032,1204.078226
2.3050,-50.18947754,71.90739185,1205.736606
2.3100,-50.55892425,71.78943212,1207.398451
2.3150,-50.92355213,71.67114563,1209.063564
2.3200,-51.28430369,71.55112759,1210.731286
2.3250,-51.64130199,71.4297293,1212.402342
2.3300,-51.99411647,71.30696896,1214.076387
2.3350,-52.34282843,71.18397812,1215.753373
2.3400,-52.68550136,71.06106136,1217.432484
2.3450,-53.02250916,70.93792714,1219.113989
2.3500,-53.35423826,70.81480589,1220.797646
2.3550,-53.68036158,70.69260744,1222.483028
2.3600,-53.99979098,70.57212744,1224.171277
2.3650,-54.31228674,70.45192017,1225.861979
2.3700,-54.61762124,70.33190541,1227.555034
2.3750,-54.91571385,70.21362759,1229.250532
2.3800,-55.2062803,70.09681416,1230.948068
2.3850,-55.48922276,69.98100707,1232.647546
2.3900,-55.76551526,69.86603688,1234.348628
2.3950,-56.03558175,69.750632,1236.052361
2.4000,-56.29851067,69.6359931,1237.756712
2.4050,-56.55404019,69.52163312,1239.462455
2.4100,-56.80201328,69.40985983,1241.169435
2.4150,-57.04257685,69.29954624,1242.877446
2.4200,-57.27521663,69.18963582,1244.586292
2.4250,-57.5014763,69.08214521,1246.296224
2.4300,-57.71969879,68.97502593,1248.006608
2.4350,-57.92988616,68.86935623,1249.716971
2.4400,-58.13347412,68.76368592,1251.427291
2.4450,-58.32917871,68.65774111,1253.137314
2.4500,-58.51832784,68.55207343,1254.846883
2.4550,-58.70073615,68.44433035,1256.55533
2.4600,-58.8761845,68.33678363,1258.262408
2.4650,-59.04602295,68.22915641,1259.96856
2.4700,-59.21007897,68.12073266,1261.672585
2.4750,-59.36997184,68.01200677,1263.374825
2.4800,-59.52462298,67.90251543,1265.075305
2.4850,-59.67432472,67.79387735,1266.77439
2.4900,-59.8193289,67.6852508,1268.471279
2.4950,-59.96010254,67.57715248,1270.166405
2.5000,-60.09709376,67.46994628,1271.859646
2.5050,-60.22954825,67.36303214,1273.550802
2.5100,-60.35892356,67.25787043,1275.239428
2.5150,-60.48453434,67.15456429,1276.92585
2.5200,-60.60677408,67.0523053,1278.608556
2.5250,-60.72626124,66.94972507,1280.28781
2.5300,-60.84196246,66.84892683,1281.96374
2.5350,-60.95467818,66.74891565,1283.636925
2.5400,-61.0635537,66.64958352,1285.306891
2.5450,-61.16852506,66.55102566,1286.972957
2.5500,-61.27035337,66.45131411,1288.634802
2.5550,-61.36889136,66.35059447,1290.293284
2.5600,-61.46386781,66.25056645,1291.948137
2.5650,-61.55426282,66.14895416,1293.599475
2.5700,-61.64015231,66.0454463,1295.246391
2.5750,-61.72043313,65.93945501,1296.88859
2.5800,-61.79717212,65.83132803,1298.526098
2.5850,-61.87021638,65.71897466,1300.159119
2.5900,-61.93990785,65.60315996,1301.787799
2.5950,-62.00690633,65.48422086,1303.411966
2.6000,-62.06991723,65.36085037,1305.030526
2.6050,-62.12865336,65.2328702,1306.643755
2.6100,-62.18348063,65.10149982,1308.251631
2.6150,-62.23442171,64.96525016,1309.854362
2.6200,-62.28086438,64.82514427,1311.451911
2.6250,-62.32427798,64.68056339,1313.04398
2.6300,-62.36327304,64.53381805,1314.629671
2.6350,-62.39761671,64.38351658,1316.209799
2.6400,-62.42791477,64.22967898,1317.784177
2.6450,-62.45325836,64.07284148,1319.352238
2.6500,-62.47260123,63.91384676,1320.914486
2.6550,-62.48573284,63.75057168,1322.471174
2.6600,-62.49230112,63.58456883,1324.021726
2.6650,-62.49207234,63.41673751,1325.565581
2.6700,-62.48565148,63.2468888,1327.102635
2.6750,-62.4729189,63.07502382,1328.633235
2.6800,-62.45310383,62.90160095,1330.15739
2.6850,-62.42781493,62.72698121,1331.674977
2.6900,-62.39596766,62.55102386,1333.186197
2.6950,-62.35812139,62.37397739,1334.689811
2.7000,-62.3145379,62.1956951,1336.186704
2.7050,-62.26636515,62.01595518,1337.677623
2.7100,-62.21349858,61.83438719,1339.161827
2.7150,-62.15653898,61.65006916,1340.63882
2.7200,-62.09527418,61.46556733,1342.109413
2.7250,-62.0281963,61.27953372,1343.573821
2.7300,-61.9565694,61.09357532,1345.03189
2.7350,-61.88026573,60.90554597,1346.483279
2.7400,-61.79933413,60.71751214,1347.929169
2.7450,-61.71318044,60.53106392,1349.368594
2.7500,-61.62303583,60.3438171,1350.802449
2.7550,-61.5288604,60.15775472,1352.23029
2.7600,-61.43013176,59.97182865,1353.652904
2.7650,-61.32709845,59.78540434,1355.069103
2.7700,-61.22040926,59.59833499,1356.480256
2.7750,-61.10940018,59.41096221,1357.886024
2.7800,-60.99326109,59.22298199,1359.286481
2.7850,-60.87266393,59.03252409,1360.681578
2.7900,-60.74867802,58.8405986,1362.071486
2.7950,-60.62092383,58.64698447,1363.455658
2.8000,-60.48914716,58.4514586,1364.834385
2.8050,-60.35337286,58.25488153,1366.208103
2.8100,-60.21389149,58.05562935,1367.576417
2.8150,-60.0716055,57.85333909,1368.938725
2.8200,-59.9268129,57.64895169,1370.295957
2.8250,-59.77905984,57.44338162,1371.648878
2.8300,-59.6291498,57.23529817,1372.996925
2.8350,-59.47554169,57.02492021,1374.339529
2.8400,-59.32018377,56.81136758,1375.676708
2.8450,-59.16295668,56.59626697,1377.008855
2.8500,-59.00382699,56.37943462,1378.336267
2.8550,-58.84188723,56.16001588,1379.658372
2.8600,-58.67795623,55.93883341,1380.97516
2.8650,-58.51155958,55.71639319,1382.286559
2.8700,-58.34403317,55.49267539,1383.593371
2.8750,-58.17576377,55.26760323,1384.894673
2.8800,-58.00607684,55.04056165,1386.190321
2.8850,-57.83563546,54.81119715,1387.480491
2.8900,-57.66380209,54.58135698,1388.764369
2.8950,-57.49160596,54.34936564,1390.042177
2.9000,-57.31823928,54.11389977,1391.315207
2.9050,-57.14441878,53.87789815,1392.583232
2.9100,-56.97065926,53.64081364,1393.84566
2.9150,-56.79615426,53.40430354,1395.102787
2.9200,-56.62056899,53.16738612,1396.354348
2.9250,-56.44341717,52.93083268,1397.599412
2.9300,-56.2650642,52.69498874,1398.839344
2.9350,-56.08385961,52.46028029,1400.072758
2.9400,-55.90104023,52.22708466,1401.300077
2.9450,-55.71483297,51.99546212,1402.520826
2.9500,-55.52652512,51.76523615,1403.734654
2.9550,-55.33577886,51.53770405,1404.94118
2.9600,-55.14368095,51.31085753,1406.139915
2.9650,-54.94987562,51.08467998,1407.331344
2.9700,-54.75309555,50.86077953,1408.515061
2.9750,-54.55333722,50.63785633,1409.690517
2.9800,-54.35077758,50.41732701,1410.857992
2.9850,-54.14312586,50.19930096,1412.016553
2.9900,-53.93076268,49.98197667,1413.166375
2.9950,-53.71335445,49.76547306,1414.307887
3.0000,-53.49133931,49.55003805,1415.440975
3.0050,-53.26454496,49.33488103,1416.564348
3.0100,-53.03320738,49.11966496,1417.678864
3.0150,-52.79644707,48.9042761,1418.785481
3.0200,-52.55549381,48.68924218,1419.883171
3.0250,-52.3104528,48.47255421,1420.972511
3.0300,-52.06103353,48.25552168,1422.054494
3.0350,-51.80857703,48.03789372,1423.129624
3.0400,-51.55170901,47.81772069,1424.196976
3.0450,-51.29064824,47.59439178,1425.257733
3.0500,-51.02498115,47.36859949,1426.311267
3.0550,-50.75371885,47.14081691,1427.358626
3.0600,-50.47655827,46.91050151,1428.399694
3.0650,-50.19269827,46.67905184,1429.434742
3.0700,-49.90130238,46.44584676,1430.463541
3.0750,-49.60214505,46.21070387,1431.485714
3.0800,-49.29618737,45.97285624,1432.50147
3.0850,-48.98213751,45.73498458,1433.510528
3.0900,-48.66032566,45.49448759,1434.511958
3.0950,-48.33172447,45.25042714,1435.505787
3.1000,-47.99776572,45.00437936,1436.492004
3.1050,-47.65909997,44.75480463,1437.469661
3.1100,-47.31520588,44.50222191,1438.438915
3.1150,-46.96842819,44.24645485,1439.399669
3.1200,-46.618088,43.98823463,1440.351201
3.1250,-46.26678949,43.72530455,1441.292697
3.1300,-45.91405198,43.45992861,1442.224721
3.1350,-45.5619483,43.19355179,1443.147212
3.1400,-45.21045044,42.92731119,1444.060428
3.1450,-44.85949754,42.65997449,1444.963027
3.1500,-44.50960262,42.39329133,1445.855933
3.1550,-44.16104967,42.12866989,1446.738912
3.1600,-43.81436992,41.86673256,1447.611995
3.1650,-43.46924512,41.60675275,1448.474954
3.1700,-43.12474288,41.35091807,1449.327987
3.1750,-42.78132261,41.09941069,1450.171942
3.1800,-42.43642927,40.85345017,1451.006579
3.1850,-42.09027118,40.61476355,1451.831474
3.1900,-41.74289902,40.38243399,1452.647028
3.1950,-41.39171574,40.15786169,1453.453086
3.2000,-41.0386466,39.94276838,1454.249711
3.2050,-40.6815534,39.7361572,1455.036236
3.2100,-40.32056982,39.53872129,1455.813232
3.2150,-39.9559269,39.34968627,1456.580393
3.2200,-39.58832406,39.17156035,1457.338332
3.2250,-39.21658735,39.00401795,1458.086885
3.2300,-38.84083695,38.84653738,1458.825392
3.2350,-38.46234233,38.69961025,1459.555087
3.2400,-38.08038698,38.56365188,1460.275545
3.2450,-37.69557996,38.43925531,1460.987199
3.2500,-37.30730357,38.32560758,1461.690095
3.2550,-36.91555514,38.22272146,1462.384348
3.2600,-36.52095999,38.13155293,1463.071105
3.2650,-36.12369039,38.05261679,1463.750224
3.2700,-35.72420559,37.98353904,1464.421684
3.2750,-35.3227653,37.92425506,1465.085682
3.2800,-34.91960223,37.87269625,1465.742589
3.2850,-34.51491682,37.82862164,1466.392554
3.2900,-34.10938373,37.79246894,1467.035769
3.2950,-33.70185557,37.76294192,1467.672195
3.3000,-33.29306862,37.7391002,1468.301835
3.3050,-32.88281746,37.72047891,1468.925124
3.3100,-32.47053855,37.70614876,1469.541727
3.3150,-32.05686057,37.69553281,1470.151455
3.3200,-31.64073571,37.68623622,1470.754627
3.3250,-31.22328445,37.67757028,1471.350624
3.3300,-30.80534869,37.66943184,1471.940133
3.3350,-30.38423613,37.66065034,1472.523056
3.3400,-29.96160783,37.65104039,1473.100155
3.3450,-29.53718226,37.64056163,1473.671162
3.3500,-29.11055829,37.62890096,1474.235824
3.3550,-28.68367775,37.61522548,1474.794589
3.3600,-28.25686066,37.59941771,1475.347606
3.3650,-27.83015203,37.58061662,1475.894591
3.3700,-27.40420192,37.55970931,1476.435753
3.3750,-26.9796296,37.53600739,1476.971345
3.3800,-26.55502149,37.51009235,1477.500941
3.3850,-26.1316916,37.48064145,1478.024893
3.3900,-25.70871595,37.44989388,1478.543626
3.3950,-25.28588566,37.41811882,1479.057486
3.4000,-24.86367432,37.38352011,1479.56592
3.4050,-24.44184241,37.3483741,1480.069946
3.4100,-24.02096863,37.31174064,1480.569003
3.4150,-23.59859838,37.2748741,1481.063469
3.4200,-23.17590774,37.23676802,1481.553533
3.4250,-22.75097753,37.19913487,1482.03949
3.4300,-22.32576602,37.16054954,1482.521449
3.4350,-21.89982399,37.1209727,1482.999592
3.4400,-21.47193782,37.08167828,1483.473985
3.4450,-21.04294035,37.04405558,1483.94614
3.4500,-20.61044867,37.00679101,1484.415086
3.4550,-20.17717913,36.97094899,1484.881717
3.4600,-19.74321384,36.93564892,1485.34671
3.4650,-19.30831753,36.9032683,1485.810814
3.4700,-18.87329391,36.87262955,1486.274119
3.4750,-18.43793893,36.84465812,1486.736496
3.4800,-18.00282491,36.81997359,1487.199071
3.4850,-17.56873022,36.7986445,1487.66225
3.4900,-17.13531544,36.78064825,1488.126038
3.4950,-16.70417138,36.7664434,1488.590708
3.5000,-16.27580217,36.75756758,1489.057346
3.5050,-15.85066645,36.75258175,1489.525552
3.5100,-15.43001505,36.75280561,1489.995933
3.5150,-15.01335939,36.75894898,1490.46831
3.5200,-14.60073319,36.77016166,1490.942823
3.5250,-14.19300865,36.78650989,1491.419317
3.5300,-13.78998674,36.8075694,1491.898397
3.5350,-13.39170983,36.83390701,1492.37904
3.5400,-12.99760255,36.86489767,1492.861859
3.5450,-12.60865749,36.89982578,1493.34651
3.5500,-12.22482154,36.93888478,1493.83255
3.5550,-11.84783068,36.9815161,1494.319836
3.5600,-11.4772612,37.02734528,1494.807879
3.5650,-11.11284469,37.07665646,1495.296944
3.5700,-10.75409259,37.1305065,1495.787259
3.5750,-10.40264058,37.18758884,1496.279014
3.5800,-10.05722341,37.24943767,1496.771482
3.5850,-9.718855748,37.31521829,1497.264542
3.5900,-9.385957692,37.38434692,1497.758129
3.5950,-9.061017648,37.45607495,1498.252099
3.6000,-8.743026177,37.52979219,1498.746417
3.6050,-8.432318439,37.60460671,1499.240856
3.6100,-8.130193333,37.67890973,1499.735509
3.6150,-7.836149448,37.75211419,1500.229954
3.6200,-7.55100478,37.82421088,1500.724533
3.6250,-7.275316695,37.89591197,1501.219938
3.6300,-7.008673745,37.96544354,1501.715655
3.6350,-6.753005056,38.03351502,1502.212315
3.6400,-6.50786446,38.1005612,1502.709964
3.6450,-6.27385506,38.16639819,1503.209409
3.6500,-6.051348361,38.22989107,1503.710963
3.6550,-5.838823665,38.29089212,1504.214483
3.6600,-5.636003662,38.34843148,1504.719586
3.6650,-5.442708456,38.40172465,1505.226921
3.6700,-5.258113297,38.45133742,1505.736859
3.6750,-5.082256635,38.49573525,1506.249401
3.6800,-4.914715223,38.53451111,1506.76479
3.6850,-4.755043346,38.5687308,1507.283346
3.6900,-4.601419438,38.59660847,1507.804483
3.6950,-4.454444329,38.61836471,1508.328704
3.7000,-4.311904688,38.6336281,1508.856049
3.7050,-4.173219011,38.64135736,1509.386576
3.7100,-4.037536944,38.6423073,1509.921162
3.7150,-3.905238306,38.63585767,1510.460107
3.7200,-3.776686666,38.62233561,1511.004436
3.7250,-3.651528567,38.60103922,1511.554041
3.7300,-3.528698185,38.57244719,1512.109469
3.7350,-3.406970355,38.53687531,1512.671782
3.7400,-3.288361868,38.49270051,1513.241951
3.7450,-3.172334837,38.44158212,1513.820511
3.7500,-3.06083692,38.38511358,1514.409077
3.7550,-2.951965091,38.3243846,1515.008251
3.7600,-2.8451673,38.26085683,1515.618137
3.7650,-2.741115685,38.19562562,1516.239831
3.7700,-2.638564025,38.12983081,1516.873236
3.7750,-2.538244932,38.06489651,1517.519455
3.7800,-2.441993967,38.00157912,1518.178683
3.7850,-2.348697236,37.9408176,1518.850378
3.7900,-2.25877917,37.88481203,1519.535143
3.7950,-2.171536339,37.83365062,1520.232653
3.8000,-2.08614914,37.78738028,1520.941322
3.8050,-2.001904312,37.74858388,1521.660845
3.8100,-1.918442689,37.71796344,1522.389775
3.8150,-1.833888467,37.69653955,1523.127277
3.8200,-1.747927934,37.68452504,1523.871383
3.8250,-1.661164561,37.68325458,1524.621693
3.8300,-1.573148144,37.69304404,1525.376457
3.8350,-1.484112653,37.71340361,1526.134893
3.8400,-1.394660062,37.7449537,1526.895576
3.8450,-1.305250759,37.78773257,1527.657792
3.8500,-1.215504929,37.84133996,1528.419855
3.8550,-1.123779452,37.90594002,1529.180463
3.8600,-1.030089787,37.98262872,1529.938665
3.8650,-0.9348860851,38.06872326,1530.692493
3.8700,-0.8378387456,38.16420778,1531.440528
3.8750,-0.7378396308,38.2687789,1532.181607
3.8800,-0.6376761134,38.38028635,1532.914679
3.8850,-0.5366638299,38.49798452,1533.63932
3.8900,-0.4374679571,38.62167084,1534.354968
3.8950,-0.3380269602,38.74988176,1535.060343
3.9000,-0.2397046962,38.88084041,1535.75463
3.9050,-0.1425070304,39.01507227,1536.437432
3.9100,-0.04721419498,39.15071207,1537.108242
3.9150,0.0444496846,39.28614335,1537.766327
3.9200,0.1337649769,39.42166901,1538.411129
3.9250,0.2203076484,39.55413603,1539.041662
3.9300,0.3032558515,39.68389755,1539.657588
3.9350,0.3828087463,39.80908075,1540.258244
3.9400,0.4587158848,39.92811733,1540.843387
3.9450,0.5300496267,40.0401876,1541.41253
3.9500,0.598190465,40.14417728,1541.965007
3.9550,0.6620903446,40.24034775,1542.500886
3.9600,0.7207034857,40.32892092,1543.020693
3.9650,0.7754367924,40.40965743,1543.523729
3.9700,0.825958149,40.4808608,1544.009019
3.9750,0.8735171754,40.54329541,1544.476586
3.9800,0.9165123965,40.59677693,1544.926951
3.9850,0.9551855852,40.63910606,1545.359624
3.9900,0.9884355133,40.67216516,1545.775812
3.9950,1.017563624,40.69619435,1546.175258
4.0000,1.041730372,40.71164096,1546.558604
4.0050,1.060373123,40.71843713,1546.925408
4.0100,1.074247167,40.71706273,1547.276039
4.0150,1.082792814,40.70770884,1547.611056
4.0200,1.087441293,40.69078799,1547.929689
4.0250,1.086468136,40.66775213,1548.233464
4.0300,1.080623928,40.64021361,1548.522744
4.0350,1.069964786,40.60767784,1548.797343
4.0400,1.054732306,40.57219035,1549.057797
4.0450,1.035256274,40.53387856,1549.304256
4.0500,1.012420647,40.49136963,1549.536058
4.0550,0.9858137105,40.44676922,1549.754666
4.0600,0.9553830693,40.39946293,1549.960508
4.0650,0.9211611609,40.35071268,1550.154218
4.0700,0.8835946874,40.3014226,1550.336408
4.0750,0.8428816066,40.25165202,1550.50725
4.0800,0.800097479,40.20237579,1550.666844
4.0850,0.7552309876,40.153393,1550.816081
4.0900,0.7089578715,40.10440075,1550.955151
4.0950,0.6608575115,40.05702404,1551.084797
4.1000,0.6115394332,40.01129318,1551.205134
4.1050,0.5602982761,39.96754367,1551.316884
4.1100,0.5086748223,39.92483122,1551.420141
4.1150,0.455382708,39.88305583,1551.515526
4.1200,0.399346306,39.84316774,1551.60408
4.1250,0.3419647004,39.80323797,1551.684963
4.1300,0.2818879739,39.7652018,1551.759771
4.1350,0.2207225049,39.7291156,1551.827844
4.1400,0.15773114,39.69472302,1551.889562
4.1450,0.0932778225,39.66206195,1551.944533
4.1500,0.02628275066,39.63034939,1551.993445
4.1550,-0.04271401958,39.60105513,1552.036588
4.1600,-0.1137713667,39.57255882,1552.073884
4.1650,-0.1865404919,39.54588853,1552.10592
4.1700,-0.2620493585,39.52064302,1552.132748
4.1750,-0.339481765,39.49729201,1552.154261
4.1800,-0.4179842949,39.47689647,1552.171277
4.1850,-0.498184177,39.45868686,1552.184072
4.1900,-0.5784740343,39.44338745,1552.192565
4.1950,-0.6588003622,39.43174337,1552.197195
4.2000,-0.7408507638,39.42231796,1552.197927
4.2050,-0.8238564357,39.41488692,1552.19517
4.2100,-0.9076965296,39.40948701,1552.188812
4.2150,-0.9915396425,39.40620561,1552.179459
4.2200,-1.077186427,39.40198041,1552.1668
4.2250,-1.16396011,39.39840394,1552.151349
4.2300,-1.253104995,39.39449475,1552.133677
4.2350,-1.343477636,39.39074753,1552.11362
4.2400,-1.436156629,39.38696703,1552.091352
4.2450,-1.530600475,39.38274283,1552.0664
4.2500,-1.626898013,39.37950965,1552.040104
4.2550,-1.725340337,39.37636869,1552.011909
4.2600,-1.825929112,39.37307524,1551.982238
4.2650,-1.928875093,39.36913296,1551.951066
4.2700,-2.03494879,39.3650318,1551.919094
4.2750,-2.143255347,39.36103049,1551.88636
4.2800,-2.253741593,39.3576209,1551.852757
4.2850,-2.366542507,39.35375142,1551.818495
4.2900,-2.481049885,39.34973063,1551.783514
4.2950,-2.597046855,39.34489639,1551.747118
4.3000,-2.714590097,39.34010307,1551.709803
4.3050,-2.8318678,39.33551027,1551.671803
4.3100,-2.949944879,39.33078706,1551.632727
4.3150,-3.069069766,39.3254221,1551.592745
4.3200,-3.188188701,39.32018551,1551.552379
4.3250,-3.306297328,39.31542643,1551.51121
4.3300,-3.425111824,39.30939066,1551.468938
4.3350,-3.544215385,39.30350627,1551.425697
4.3400,-3.663556927,39.29690966,1551.381228
4.3450,-3.78252513,39.29040203,1551.335613
4.3500,-3.902785575,39.28416536,1551.289477
4.3550,-4.024386171,39.27740151,1551.24248
4.3600,-4.147834927,39.27064066,1551.194111
4.3650,-4.273728093,39.26380184,1551.144927
4.3700,-4.401649391,39.25711322,1551.094463
4.3750,-4.532260895,39.24954558,1551.042718
4.3800,-4.664312866,39.2412507,1550.989289
4.3850,-4.798687218,39.23340731,1550.934197
4.3900,-4.934581967,39.22514634,1550.877043
4.3950,-5.072826004,39.21595745,1550.817876
4.4000,-5.212470368,39.20559667,1550.756726
4.4050,-5.354641967,39.19361669,1550.694137
4.4100,-5.49943548,39.18044263,1550.629885
4.4150,-5.646602548,39.16492038,1550.564058
4.4200,-5.795347872,39.14697202,1550.496526
4.4250,-5.945081071,39.12773304,1550.427925
4.4300,-6.095102754,39.10505716,1550.356969
4.4350,-6.245343357,39.07948164,1550.284981
4.4400,-6.395593532,39.05124132,1550.211587
4.4450,-6.54515836,39.01971377,1550.137102
4.4500,-6.69349398,38.98750618,1550.061986
4.4550,-6.84191258,38.95245535,1549.987123
4.4600,-6.990318362,38.91469298,1549.912041
4.4650,-7.138572427,38.87625978,1549.837535
4.4700,-7.28666085,38.83579073,1549.763511
4.4750,-7.435535519,38.79278746,1549.690218
4.4800,-7.583747091,38.74796439,1549.617679
4.4850,-7.73185728,38.7017711,1549.545383
4.4900,-7.880056509,38.65387766,1549.473881
4.4950,-8.028766939,38.60369751,1549.402956
4.5000,-8.176746275,38.55236234,1549.332761
4.5050,-8.324588846,38.49919854,1549.262668
4.5100,-8.471776321,38.44481186,1549.192902
4.5150,-8.617990476,38.38987821,1549.123135
4.5200,-8.763240853,38.33469501,1549.053339
4.5250,-8.908643331,38.27793465,1548.983517
4.5300,-9.051954721,38.21999607,1548.912801
4.5350,-9.194552596,38.15989491,1548.841285
4.5400,-9.335508616,38.09844378,1548.76898
4.5450,-9.474497869,38.03512891,1548.695986
4.5500,-9.612810075,37.96974358,1548.621621
4.5550,-9.749511305,37.90293223,1548.546087
4.5600,-9.884087676,37.83433163,1548.468779
4.5650,-10.01722774,37.76540796,1548.390627
4.5700,-10.14835257,37.69473058,1548.310827
4.5750,-10.27854556,37.62299424,1548.229068
4.5800,-10.4078121,37.54926778,1548.145264
4.5850,-10.53549118,37.4757797,1548.059219
4.5900,-10.66207838,37.4013941,1547.970336
4.5950,-10.78791696,37.32680824,1547.879058
4.6000,-10.91265995,37.25240576,1547.784715
4.6050,-11.03681599,37.1775008,1547.686884
4.6100,-11.16096576,37.10225724,1547.586512
4.6150,-11.28301796,37.02762805,1547.482379
4.6200,-11.40445761,36.9537999,1547.374436
4.6250,-11.52474556,36.87888231,1547.262242
4.6300,-11.64280226,36.80309292,1547.145365
4.6350,-11.759547,36.72723876,1547.024294
4.6400,-11.87414502,36.65133233,1546.898538
4.6450,-11.98774178,36.57421859,1546.768143
4.6500,-12.10016976,36.49601645,1546.632439
4.6550,-12.21148956,36.41662588,1546.491828
4.6600,-12.32179372,36.33450619,1546.346501
4.6650,-12.42917935,36.25072453,1546.196076
4.6700,-12.53574045,36.1649311,1546.041115
4.6750,-12.63992436,36.07789922,1545.881446
4.6800,-12.74359218,35.98864111,1545.717686
4.6850,-12.845076,35.8974465,1545.549714
4.6900,-12.94526052,35.80466112,1545.377992
4.6950,-13.04351013,35.71045994,1545.202428
4.7000,-13.1406453,35.61505652,1545.023552
4.7050,-13.23548946,35.51819279,1544.841172
4.7100,-13.32764547,35.42062956,1544.655681
4.7150,-13.41866592,35.32206356,1544.467753
4.7200,-13.5079635,35.22274531,1544.277464
4.7250,-13.59586696,35.12281648,1544.085038
4.7300,-13.68152779,35.0225318,1543.891228
4.7350,-13.76603435,34.92214482,1543.695671
4.7400,-13.84802988,34.82074003,1543.498588
4.7450,-13.92907546,34.72076829,1543.301092
4.7500,-14.00745107,34.62044776,1543.102664
4.7550,-14.08358096,34.52143821,1542.903303
4.7600,-14.15623055,34.42409535,1542.703907
4.7650,-14.22657689,34.32761997,1542.504025
4.7700,-14.29430068,34.2333413,1542.304643
4.7750,-14.35841377,34.14223877,1542.105057
4.7800,-14.41952508,34.05304472,1541.905663
4.7850,-14.47795147,33.96703271,1541.707155
4.7900,-14.53339096,33.88316908,1541.509233
4.7950,-14.58681981,33.80303999,1541.312625
4.8000,-14.63710555,33.7265573,1541.117077
4.8050,-14.68484281,33.6540349,1540.923009
4.8100,-14.72952416,33.58569096,1540.729778
4.8150,-14.77179981,33.5197404,1540.537745
4.8200,-14.81171493,33.45766974,1540.347092
4.8250,-14.84854789,33.40123677,1540.157581
4.8300,-14.88326284,33.34924617,1539.969229
4.8350,-14.91490446,33.3017212,1539.781768
4.8400,-14.94484374,33.25910533,1539.595229
4.8450,-14.97328091,33.22117057,1539.409263
4.8500,-15.00036954,33.18760935,1539.223844
4.8550,-15.02711948,33.15816958,1539.039441
4.8600,-15.05329412,33.13225303,1538.855335
4.8650,-15.08031682,33.10968682,1538.670908
4.8700,-15.10797526,33.09140943,1538.487038
4.8750,-15.13715368,33.07658511,1538.303584
4.8800,-15.16680764,33.06537956,1538.120548
4.8850,-15.19802392,33.05781943,1537.937542
4.8900,-15.2308663,33.05437528,1537.755131
4.8950,-15.265573,33.0543014,1537.572919
4.9000,-15.30152561,33.05766403,1537.390501
4.9050,-15.34105784,33.06405297,1537.208522
4.9100,-15.38251103,33.07470029,1537.026139
4.9150,-15.42890446,33.0879079,1536.843781
4.9200,-15.47979675,33.10316506,1536.661099
4.9250,-15.53535531,33.12159797,1536.478881
4.9300,-15.5967668,33.14373463,1536.297071
4.9350,-15.66328891,33.16792309,1536.1154
4.9400,-15.73559444,33.19570065,1535.93404
4.9450,-15.81273287,33.22455233,1535.75203
4.9500,-15.89506823,33.25581213,1535.569762
4.9550,-15.98337013,33.28965585,1535.386754
4.9600,-16.07649714,33.32808137,1535.203229
4.9650,-16.1754541,33.36912702,1535.017753
4.9700,-16.28010975,33.41371215,1534.830902
4.9750,-16.39154367,33.46110119,1534.642308
4.9800,-16.5082234,33.51188886,1534.451069
4.9850,-16.63181402,33.56493738,1534.257785
4.9900,-16.76258136,33.62002124,1534.061685
4.9950,-16.90099193,33.67761825,1533.862868
5.0000,-17.04735736,33.73878951,1533.660945
5.0050,-17.20165827,33.80272503,1533.455511
5.0100,-17.36533392,33.86927877,1533.246443
5.0150,-17.53636669,33.93905189,1533.032906
5.0200,-17.71740421,34.01277056,1532.815297
5.0250,-17.90869448,34.09075912,1532.593745
5.0300,-18.11072344,34.17320622,1532.366948
5.0350,-18.32376172,34.26076951,1532.135089
5.0400,-18.54831384,34.35514581,1531.897704
5.0450,-18.78282502,34.45483764,1531.653804
5.0500,-19.02822088,34.56106906,1531.40301
5.0550,-19.28486571,34.67310578,1531.145206
5.0600,-19.55393053,34.79263516,1530.879896
5.0650,-19.83471955,34.91819212,1530.606471
5.0700,-20.12684151,35.05159567,1530.324625
5.0750,-20.43112219,35.19207724,1530.034458
5.0800,-20.74691366,35.33962294,1529.734559
5.0850,-21.07379788,35.49404901,1529.424898
5.0900,-21.41221464,35.656432,1529.104628
5.0950,-21.76168216,35.82733464,1528.773406
5.1000,-22.12319759,36.00626367,1528.43071
5.1050,-22.49576996,36.19247857,1528.07548
5.1100,-22.87939268,36.38594095,1527.707634
5.1150,-23.27357195,36.58745461,1527.32647
5.1200,-23.67820113,36.79604072,1526.931463
5.1250,-24.09320165,37.01063659,1526.521916
5.1300,-24.51890703,37.22922384,1526.097568
5.1350,-24.95519301,37.45460286,1525.658263
5.1400,-25.40119092,37.68456313,1525.203844
5.1450,-25.85644485,37.92046765,1524.734245
5.1500,-26.31957672,38.16188424,1524.249217
5.1550,-26.79101718,38.40799453,1523.74806
5.1600,-27.27143114,38.65901504,1523.231859
5.1650,-27.76059927,38.91382285,1522.701161
5.1700,-28.25846754,39.17255626,1522.154768
5.1750,-28.76432963,39.43406477,1521.593127
5.1800,-29.27910474,39.69977681,1521.016389
5.1850,-29.80098861,39.96801113,1520.423967
5.1900,-30.32994096,40.23901683,1519.815781
5.1950,-30.8655781,40.51185822,1519.192057
5.2000,-31.40923932,40.78591062,1518.552931
5.2050,-31.95859372,41.0617773,1517.897843
5.2100,-32.51548228,41.33732944,1517.227775
5.2150,-33.07831928,41.61270894,1516.542395
5.2200,-33.6478002,41.88695362,1515.842678
5.2250,-34.22364536,42.16110824,1515.127985
5.2300,-34.80459113,42.43364527,1514.398749
5.2350,-35.39275406,42.70539899,1513.655691
5.2400,-35.98656786,42.97564848,1512.898841
5.2450,-36.58852736,43.24562274,1512.129659
5.2500,-37.19662829,43.51514431,1511.347705
5.2550,-37.80979818,43.78250932,1510.552991
5.2600,-38.42833796,44.04824697,1509.745512
5.2650,-39.05185587,44.31261706,1508.926457
5.2700,-39.68085798,44.57534311,1508.095599
5.2750,-40.31259911,44.83674819,1507.253314
5.2800,-40.94882336,45.09642046,1506.400094
5.2850,-41.58893223,45.35434217,1505.535053
5.2900,-42.2330541,45.61152653,1504.659631
5.2950,-42.8795817,45.86760231,1503.773561
5.3000,-43.5283407,46.12081217,1502.877308
5.3050,-44.17926302,46.37222939,1501.971204
5.3100,-44.83126958,46.62078182,1501.056303
5.3150,-45.48402371,46.86669461,1500.132667
5.3200,-46.1344122,47.10840804,1499.199848
5.3250,-46.78265201,47.34521119,1498.257405
5.3300,-47.42701638,47.57767544,1497.306105
5.3350,-48.06681347,47.80543835,1496.3455
5.3400,-48.70152835,48.02546301,1495.375528
5.3450,-49.33071106,48.23942582,1494.395806
5.3500,-49.95462983,48.44556207,1493.406711
5.3550,-50.57093717,48.64460164,1492.407876
5.3600,-51.17852119,48.834923,1491.39964
5.3650,-51.77760615,49.01984753,1490.382281
5.3700,-52.36847173,49.19659553,1489.356121
5.3750,-52.94977643,49.36548028,1488.321101
5.3800,-53.52118141,49.52750709,1487.2772
5.3850,-54.08132871,49.68296482,1486.224768
5.3900,-54.6302199,49.83144815,1485.163945
5.3950,-55.16713914,49.97174602,1484.094953
5.4000,-55.69128008,50.10500846,1483.0177
5.4050,-56.20225596,50.23123353,1481.932669
5.4100,-56.70104865,50.35091919,1480.840467
5.4150,-57.1882193,50.46376252,1479.741368
5.4200,-57.66265848,50.56995273,1478.636146
5.4250,-58.12407735,50.66976818,1477.525556
5.4300,-58.57298985,50.76568622,1476.409964
5.4350,-59.0103377,50.85514592,1475.289847
5.4400,-59.43731618,50.94008213,1474.166347
5.4450,-59.85521414,51.01907597,1473.039966
5.4500,-60.26518681,51.09287717,1471.911573
5.4550,-60.66714994,51.16260614,1470.781763
5.4600,-61.06133674,51.22791108,1469.650467
5.4650,-61.44759526,51.28904534,1468.518095
5.4700,-61.82644567,51.34596109,1467.385213
5.4750,-62.19955957,51.40034858,1466.252027
5.4800,-62.56772833,51.44951074,1465.118619
5.4850,-62.9326283,51.49451375,1463.985745
5.4900,-63.29525053,51.53440478,1462.853285
5.4950,-63.65682701,51.57131568,1461.722121
5.5000,-64.01796635,51.60426584,1460.593265
5.5050,-64.38035349,51.63334931,1459.466798
5.5100,-64.74376217,51.65984774,1458.342302
5.5150,-65.10922094,51.6845128,1457.220702
5.5200,-65.47628738,51.70836462,1456.101445
5.5250,-65.84493197,51.73018728,1454.984823
5.5300,-66.21590338,51.75125048,1453.870284
5.5350,-66.58796673,51.77196494,1452.7581
5.5400,-66.96281994,51.79203645,1451.647691
5.5450,-67.33918706,51.81165673,1450.538109
5.5500,-67.71928106,51.83195671,1449.43062
5.5550,-68.10381738,51.85369852,1448.324465
5.5600,-68.49330751,51.87752553,1447.219951
5.5650,-68.88799375,51.90340389,1446.116944
5.5700,-69.2865236,51.93154723,1445.015362
5.5750,-69.69106671,51.96203555,1443.914951
5.5800,-70.1014662,51.99629021,1442.81555
5.5850,-70.51731063,52.03440139,1441.718246
5.5900,-70.93749052,52.07607788,1440.621695
5.5950,-71.36212695,52.12168878,1439.525818
5.6000,-71.79116603,52.17248474,1438.430141
5.6050,-72.22373155,52.22867427,1437.334824
5.6100,-72.65922436,52.28952362,1436.23788
5.6150,-73.09713957,52.35595174,1435.139039
5.6200,-73.53796655,52.42759656,1434.038347
5.6250,-73.98068811,52.50486542,1432.935726
5.6300,-74.42627254,52.58691432,1431.830352
5.6350,-74.87343503,52.67309856,1430.72185
5.6400,-75.32267049,52.76530332,1429.610636
5.6450,-75.77274846,52.86127319,1428.496224
5.6500,-76.22216887,52.96125271,1427.377642
5.6550,-76.6717245,53.06487651,1426.254696
5.6600,-77.12018349,53.17332512,1425.126404
5.6650,-77.56590988,53.28392005,1423.992509
5.6700,-78.00827588,53.39821981,1422.852908
5.6750,-78.44653536,53.51651389,1421.706997
5.6800,-78.88002803,53.63996798,1420.555527
5.6850,-79.30865323,53.76732331,1419.397394
5.6900,-79.73229216,53.89667124,1418.232693
5.6950,-80.15085346,54.0286802,1417.06098
5.7000,-80.56363493,54.16252067,1415.88321
5.7050,-80.97294354,54.29775063,1414.699425
5.7100,-81.3786503,54.43386073,1413.508897
5.7150,-81.779653,54.57040891,1412.311619
5.7200,-82.17787199,54.70740904,1411.106539
5.7250,-82.57372812,54.84556729,1409.894188
5.7300,-82.96750794,54.98282732,1408.67489
5.7350,-83.35940161,55.12077593,1407.448909
5.7400,-83.74810337,55.25901529,1406.215074
5.7450,-84.13327894,55.3994966,1404.974265
5.7500,-84.51501348,55.54093912,1403.726862
5.7550,-84.89291682,55.68257151,1402.473516
5.7600,-85.26517995,55.82576175,1401.213899
5.7650,-85.63198327,55.9692253,1399.947474
5.7700,-85.99335243,56.11341991,1398.675566
5.7750,-86.34741129,56.25725105,1397.398091
5.7800,-86.69413987,56.40263214,1396.115584
5.7850,-87.03287133,56.54842239,1394.82883
5.7900,-87.36352189,56.69437221,1393.538299
5.7950,-87.68499952,56.83997478,1392.243927
5.8000,-87.99609051,56.98557803,1390.945828
5.8050,-88.29626613,57.1299292,1389.644833
5.8100,-88.58566782,57.27315872,1388.341486
5.8150,-88.86431809,57.41350797,1387.036334
5.8200,-89.13283517,57.55064471,1385.730446
5.8250,-89.39305067,57.68472744,1384.424221
5.8300,-89.64500617,57.81373243,1383.118988
5.8350,-89.88844019,57.9363619,1381.815131
5.8400,-90.12408659,58.05221903,1380.513385
5.8450,-90.35262607,58.16157337,1379.214741
5.8500,-90.5743639,58.26182158,1377.919258
5.8550,-90.78976405,58.35333345,1376.627991
5.8600,-90.99972864,58.43480199,1375.341322
5.8650,-91.20412066,58.50514634,1374.059919
5.8700,-91.40422881,58.56514199,1372.784171
5.8750,-91.59985981,58.61574647,1371.514218
5.8800,-91.79146609,58.65563408,1370.250702
5.8850,-91.97898639,58.68508348,1368.994159
5.8900,-92.16325472,58.70533152,1367.744791
5.8950,-92.34380974,58.71568008,1366.503353
5.9000,-92.52164653,58.71603653,1365.269763
5.9050,-92.69650981,58.70678855,1364.044385
5.9100,-92.86888196,58.68907576,1362.82783
5.9150,-93.03923668,58.66310185,1361.618858
5.9200,-93.20728869,58.63000064,1360.416852
5.9250,-93.37260544,58.58966804,1359.221556
5.9300,-93.53534863,58.54352262,1358.032713
5.9350,-93.6960221,58.49177757,1356.85038
5.9400,-93.85326754,58.43524707,1355.672799
5.9450,-94.00787086,58.37661603,1354.499804
5.9500,-94.16024594,58.31675554,1353.331456
5.9550,-94.30987478,58.25536632,1352.166368
5.9600,-94.45734464,58.19245864,1351.004593
5.9650,-94.60209,58.12957451,1349.845802
5.9700,-94.7449292,58.06656947,1348.688425
5.9750,-94.88558894,58.00510548,1347.532981
5.9800,-95.02501469,57.94259627,1346.378094
5.9850,-95.16253766,57.87991463,1345.223294
5.9900,-95.29581979,57.82048608,1344.067623
5.9950,-95.4251452,57.76235558,1342.911
6.0000,-95.550849,57.70797814,1341.752234
6.0050,-95.67091336,57.65795413,1340.590291
6.0100,-95.78525632,57.61180105,1339.425896
6.0150,-95.89435048,57.57010523,1338.258768
6.0200,-95.99719165,57.53282784,1337.089331
6.0250,-96.09368455,57.50012408,1335.916557
6.0300,-96.18288429,57.47355538,1334.739881
6.0350,-96.26403866,57.45278624,1333.559057
6.0400,-96.3382774,57.43742401,1332.374038
6.0450,-96.40494613,57.42653294,1331.183419
6.0500,-96.46469847,57.42111483,1329.986486
6.0550,-96.51679941,57.42154835,1328.783853
6.0600,-96.56230055,57.42842684,1327.575033
6.0650,-96.60063027,57.44199715,1326.360565
6.0700,-96.63058786,57.46271336,1325.138466
6.0750,-96.65466315,57.49120849,1323.908864
6.0800,-96.67090037,57.52704701,1322.671087
6.0850,-96.68142443,57.57090923,1321.424833
6.0900,-96.68613164,57.62238043,1320.170398
6.0950,-96.68450793,57.68139208,1318.906618
6.1000,-96.67862294,57.7480185,1317.633569
6.1050,-96.66788015,57.823365,1316.352124
6.1100,-96.65244824,57.90667524,1315.061747
6.1150,-96.63142549,57.99797978,1313.762693
6.1200,-96.60407614,58.09663171,1312.455635
6.1250,-96.57001652,58.20193857,1311.140111
6.1300,-96.52977963,58.31484298,1309.817077
6.1350,-96.48393316,58.43517808,1308.485321
6.1400,-96.43167813,58.56226538,1307.146228
6.1450,-96.37314934,58.6952401,1305.799831
6.1500,-96.30804546,58.83515194,1304.446154
6.1550,-96.23654222,58.98040229,1303.085781
6.1600,-96.15697583,59.13040546,1301.718907
6.1650,-96.07056932,59.28619207,1300.345153
6.1700,-95.97729914,59.44538976,1298.965581
6.1750,-95.87665016,59.60614659,1297.580662
6.1800,-95.76884818,59.76794802,1296.191469
6.1850,-95.65426127,59.93064927,1294.797002
6.1900,-95.53221721,60.09276036,1293.398818
6.1950,-95.40566155,60.25412913,1291.997132
6.2000,-95.27318738,60.4120588,1290.59277
6.2050,-95.13598714,60.56610707,1289.185561
6.2100,-94.99456593,60.71480935,1287.776472
6.2150,-94.84967541,60.85859119,1286.365805
6.2200,-94.7020282,60.99616067,1284.954517
6.2250,-94.55403123,61.1265179,1283.542201
6.2300,-94.40529082,61.24975563,1282.128914
6.2350,-94.25736617,61.36446575,1280.714878
6.2400,-94.11073931,61.47027349,1279.300846
6.2450,-93.96516492,61.56579578,1277.887223
6.2500,-93.82177882,61.65223672,1276.474181
6.2550,-93.68125322,61.72914839,1275.063185
6.2600,-93.54395956,61.79632219,1273.65351
6.2650,-93.40998621,61.85398832,1272.245535
6.2700,-93.27797744,61.90333688,1270.839432
6.2750,-93.14817448,61.94334085,1269.433525
6.2800,-93.01991332,61.9760122,1268.028647
6.2850,-92.89431551,62.00193891,1266.624745
6.2900,-92.7730917,62.01966521,1265.222007
6.2950,-92.65598993,62.03051135,1263.819463
6.3000,-92.54151708,62.03452776,1262.41657
6.3050,-92.43195504,62.03111813,1261.013598
6.3100,-92.32404133,62.02288788,1259.609432
6.3150,-92.21789762,62.0102913,1258.203055
6.3200,-92.11231983,61.99378285,1256.794478
6.3250,-92.00628264,61.97420831,1255.383939
6.3300,-91.89851061,61.95108504,1253.970344
6.3350,-91.78868637,61.92466943,1252.553367
6.3400,-91.67540178,61.89541,1251.132912
6.3450,-91.55778793,61.86464866,1249.709483
6.3500,-91.43432051,61.83381597,1248.282715
6.3550,-91.30477909,61.80221166,1246.85023
6.3600,-91.16871623,61.77015177,1245.412136
6.3650,-91.02581702,61.73895786,1243.967646
6.3700,-90.87579118,61.70874372,1242.517466
6.3750,-90.71586882,61.67916855,1241.061105
6.3800,-90.54658398,61.65098774,1239.598719
6.3850,-90.36438968,61.6247823,1238.129395
6.3900,-90.16818095,61.60183283,1236.652816
6.3950,-89.95776536,61.58093416,1235.170728
6.4000,-89.73092296,61.562563,1233.683539
6.4050,-89.48749924,61.5460644,1232.190325
6.4100,-89.22656554,61.53266981,1230.693394
6.4150,-88.94874392,61.52204122,1229.191045
6.4200,-88.65447026,61.51390958,1227.683705
6.4250,-88.34324274,61.50805699,1226.17236
6.4300,-88.01384463,61.50453026,1224.656483
6.4350,-87.66743813,61.50258013,1223.137986
6.4400,-87.30436783,61.50264683,1221.616353
6.4450,-86.92537503,61.50425538,1220.092548
6.4500,-86.53111825,61.50691292,1218.567738
6.4550,-86.12163145,61.51049916,1217.042222
6.4600,-85.69922735,61.5159127,1215.517214
6.4650,-85.26342115,61.52217708,1213.993091
6.4700,-84.81536448,61.52924239,1212.470054
6.4750,-84.35776777,61.53732848,1210.949226
6.4800,-83.89127452,61.54600004,1209.430757
6.4850,-83.41785856,61.55487916,1207.915752
6.4900,-82.93947863,61.56367748,1206.405137
6.4950,-82.4552481,61.57212763,1204.898619
6.5000,-81.96789309,61.58010817,1203.396406
6.5050,-81.47780495,61.58638711,1201.899458
6.5100,-80.98596589,61.59153525,1200.407517
6.5150,-80.49516086,61.59161598,1198.921729
6.5200,-80.00653515,61.58633026,1197.442409
6.5250,-79.51997707,61.57540323,1195.97017
6.5300,-79.03778118,61.55704033,1194.506075
6.5350,-78.55912787,61.53210926,1193.050196
6.5400,-78.08534712,61.49980605,1191.602978
6.5450,-77.61766445,61.45913241,1190.164561
6.5500,-77.15570558,61.40980266,1188.735179
6.5550,-76.69821715,61.35138857,1187.313749
6.5600,-76.24506415,61.28453703,1185.900599
6.5650,-75.79682237,61.20789027,1184.495147
6.5700,-75.35352096,61.12075006,1183.097006
6.5750,-74.9150012,61.02457868,1181.707144
6.5800,-74.4813146,60.91768603,1180.324093
6.5850,-74.05197296,60.80038729,1178.946784
6.5900,-73.62615571,60.67365644,1177.575328
6.5950,-73.2021585,60.53866998,1176.208318
6.6000,-72.78048177,60.39433903,1174.846466
6.6050,-72.3589545,60.24225761,1173.488895
6.6100,-71.93902006,60.08145766,1172.135671
6.6150,-71.51964574,59.91234284,1170.786369
6.6200,-71.10020292,59.7362903,1169.440672
6.6250,-70.68046353,59.55199753,1168.097983
6.6300,-70.26113186,59.360163,1166.759271
6.6350,-69.84198338,59.16073905,1165.424075
6.6400,-69.42170297,58.95434537,1164.092814
6.6450,-69.00031673,58.74121648,1162.764831
6.6500,-68.57660148,58.51990248,1161.439467
6.6550,-68.1500663,58.29166867,1160.117521
6.6600,-67.72046786,58.05580568,1158.799498
6.6650,-67.28587662,57.81192379,1157.484475
6.6700,-66.84635941,57.5598851,1156.172508
6.6750,-66.40184211,57.30024207,1154.86391
6.6800,-65.95087577,57.0340418,1153.558628
6.6850,-65.49377221,56.76088808,1152.25718
6.6900,-65.03031336,56.48031347,1150.959095
6.6950,-64.5593028,56.19406833,1149.662962
6.7000,-64.08056171,55.90203595,1148.368894
6.7050,-63.59485376,55.60493729,1147.077531
6.7100,-63.10057029,55.30226326,1145.786766
6.7150,-62.59784804,54.99582314,1144.498034
6.7200,-62.08615842,54.68572539,1143.21012
6.7250,-61.5665255,54.3723975,1141.922621
6.7300,-61.04029612,54.05690965,1140.636003
6.7350,-60.50707811,53.73981846,1139.349322
6.7400,-59.96821651,53.42092503,1138.063074
6.7450,-59.42349444,53.10258692,1136.776557
6.7500,-58.87352082,52.7850327,1135.490089
6.7550,-58.31852784,52.46929391,1134.203132
6.7600,-57.75913954,52.15532051,1132.916107
6.7650,-57.19675927,51.84408724,1131.629327
6.7700,-56.63078826,51.53679022,1130.343041
6.7750,-56.06138818,51.23277426,1129.057283
6.7800,-55.48842955,50.93273836,1127.771871
6.7850,-54.91212291,50.63707299,1126.487281
6.7900,-54.33177021,50.34509656,1125.203278
6.7950,-53.74922037,50.05810739,1123.920506
6.8000,-53.1640752,49.77573392,1122.639106
6.8050,-52.57727291,49.49763909,1121.358677
6.8100,-51.98808565,49.22356764,1120.079545
6.8150,-51.39537951,48.95458628,1118.801524
6.8200,-50.79746741,48.69051838,1117.52391
6.8250,-50.19416171,48.43166236,1116.246638
6.8300,-49.58460247,48.17821455,1114.96992
6.8350,-48.96972742,47.92997382,1113.693929
6.8400,-48.34789175,47.6854655,1112.418116
6.8450,-47.71957784,47.44575325,1111.143292
6.8500,-47.0838704,47.20907592,1109.869339
6.8550,-46.44126867,46.97544067,1108.596921
6.8600,-45.79184118,46.74326893,1107.326626
6.8650,-45.13524428,46.51231151,1106.058982
6.8700,-44.47176714,46.28152916,1104.794954
6.8750,-43.80083388,46.04851296,1103.534691
6.8800,-43.12242769,45.81296426,1102.279247
6.8850,-42.43586083,45.5735543,1101.029588
6.8900,-41.73999011,45.3295213,1099.78592
6.8950,-41.03523308,45.0796566,1098.549287
6.9000,-40.32021076,44.82429237,1097.319615
6.9050,-39.59443852,44.56238902,1096.097439
6.9100,-38.85771648,44.29340053,1094.883237
6.9150,-38.10901471,44.01689125,1093.677668
6.9200,-37.34975585,43.73103718,1092.480942
6.9250,-36.57955781,43.43600113,1091.293406
6.9300,-35.79876074,43.13283719,1090.115143
6.9350,-35.0078936,42.81967039,1088.946598
6.9400,-34.20886081,42.49588875,1087.788305
6.9450,-33.40188956,42.15987831,1086.640326
6.9500,-32.58838274,41.81330321,1085.503891
6.9550,-31.76947918,41.45391916,1084.379197
6.9600,-30.9470424,41.08219906,1083.266839
6.9650,-30.12293609,40.69756657,1082.167747
6.9700,-29.29880245,40.30018629,1081.082784
6.9750,-28.47526884,39.89037501,1080.012492
6.9800,-27.65382182,39.46651387,1078.956926
6.9850,-26.8357119,39.0289528,1077.917059
6.9900,-26.02215642,38.57869673,1076.893423
6.9950,-25.2147055,38.11435864,1075.887036
7.0000,-24.41341316,37.63707453,1074.897273
7.0050,-23.61774064,37.14707205,1073.923936
7.0100,-22.82946673,36.64520678,1072.967875
7.0150,-22.04868789,36.1333468,1072.028937
7.0200,-21.2763317,35.6107559,1071.106896
7.0250,-20.51354021,35.07933831,1070.202032
7.0300,-19.76014754,34.5410199,1069.313747
7.0350,-19.0166802,33.99620575,1068.441693
7.0400,-18.28322343,33.44598837,1067.585243
7.0450,-17.56176026,32.89174119,1066.744694
7.0500,-16.85216729,32.33503215,1065.919138
7.0550,-16.15579234,31.7765589,1065.108046
7.0600,-15.47428183,31.21863762,1064.31125
7.0650,-14.8071134,30.66237758,1063.527786
7.0700,-14.15660188,30.10791268,1062.757689
7.0750,-13.52187209,29.55623865,1061.999817
7.0800,-12.90403851,29.00914067,1061.254162
7.0850,-12.30240338,28.46705189,1060.519344
7.0900,-11.71746941,27.93094066,1059.794608
7.0950,-11.1479065,27.39976954,1059.079754
7.1000,-10.59359448,26.87582856,1058.373824
7.1050,-10.05250749,26.35879865,1057.675717
7.1100,-9.523790132,25.84998582,1056.984618
7.1150,-9.00803083,25.35013778,1056.300735
7.1200,-8.504703509,24.85983774,1055.623637
7.1250,-8.01242961,24.3804118,1054.953057
7.1300,-7.528763635,23.9111495,1054.287613
7.1350,-7.051615829,23.4538062,1053.627054
7.1400,-6.581326373,23.0089233,1052.97171
7.1450,-6.115001774,22.57591193,1052.320159
7.1500,-5.652292605,22.15519079,1051.672432
7.1550,-5.19107172,21.74652468,1051.027678
7.1600,-4.731265202,21.34994033,1050.385999
7.1650,-4.270684807,20.96607732,1049.746646
7.1700,-3.809041549,20.59424976,1049.10993
7.1750,-3.346049727,20.2340774,1048.475503
7.1800,-2.88044043,19.88628772,1047.843227
7.1850,-2.410373833,19.5515566,1047.212659
7.1900,-1.936411191,19.22788005,1046.584031
7.1950,-1.457255106,18.91544458,1045.95736
7.2000,-0.9729124053,18.61242421,1045.332647
7.2050,-0.482201764,18.31875819,1044.710177
7.2100,0.01565895178,18.0342838,1044.089761
7.2150,0.5209944039,17.75736124,1043.471879
7.2200,1.034323158,17.48772979,1042.856527
7.2250,1.55666948,17.2253435,1042.243663
7.2300,2.088980102,16.9671212,1041.633236
7.2350,2.633171631,16.71382512,1041.025031
7.2400,3.190220058,16.4643347,1040.418749
7.2450,3.759979661,16.21912949,1039.814911
7.2500,4.343183598,15.97637642,1039.212999
7.2550,4.940307149,15.73646801,1038.613004
7.2600,5.552848669,15.49836603,1038.014183
7.2650,6.18077107,15.26247821,1037.416482
7.2700,6.824241076,15.0282634,1036.819562
7.2750,7.481999567,14.7949817,1036.223848
7.2800,8.154390735,14.56297074,1035.629307
7.2850,8.840989478,14.33332637,1035.035459
7.2900,9.540681949,14.10407085,1034.442732
7.2950,10.25269128,13.87628851,1033.851313
7.3000,10.97422582,13.64838232,1033.262096
7.3050,11.70517328,13.41989855,1032.674745
7.3100,12.44400235,13.18994278,1032.089651
7.3150,13.18934712,12.95788965,1031.50753
7.3200,13.94081518,12.72489172,1030.928681
7.3250,14.69861784,12.4898925,1030.353294
7.3300,15.46150397,12.25249297,1029.781712
7.3350,16.22868918,12.01276876,1029.214226
7.3400,16.99929294,11.77108227,1028.651452
7.3450,17.77396224,11.5269213,1028.093281
7.3500,18.55205075,11.28010344,1027.539994
7.3550,19.33325383,11.03151431,1026.99194
7.3600,20.11948024,10.78029524,1026.448516
7.3650,20.90871883,10.52535908,1025.91024
7.3700,21.70278168,10.26739436,1025.376277
7.3750,22.50126234,10.00793624,1024.846986
7.3800,23.30397088,9.745086651,1024.322228
7.3850,24.10959675,9.479322617,1023.802344
7.3900,24.91719552,9.211401009,1023.287695
7.3950,25.72761772,8.94056567,1022.777391
7.4000,26.53904603,8.667957532,1022.272441
7.4050,27.35043529,8.39404896,1021.773064
7.4100,28.15987259,8.11753052,1021.279503
7.4150,28.96789259,7.840069109,1020.791612
7.4200,29.77270871,7.560531714,1020.309605
7.4250,30.57424361,7.27905051,1019.83337
7.4300,31.37043026,6.996534031,1019.363475
7.4350,32.1605801,6.711233405,1018.899876
7.4400,32.94486393,6.42430257,1018.442204
7.4450,33.72148947,6.134525704,1017.99104
7.4500,34.49054058,5.843516544,1017.546457
7.4550,35.25126134,5.551429141,1017.108571
7.4600,36.0039581,5.259047779,1016.677212
7.4650,36.7478631,4.965311753,1016.252487
7.4700,37.48412052,4.6705073,1015.833945
7.4750,38.21140618,4.37659197,1015.422264
7.4800,38.93094335,4.081378264,1015.016554
7.4850,39.64078533,3.785359436,1014.617653
7.4900,40.34243655,3.489525243,1014.225077
7.4950,41.03552571,3.193080295,1013.83888
7.5000,41.71967746,2.897193383,1013.45924
7.5050,42.39626904,2.60217154,1013.085629
7.5100,43.06461893,2.3073889,1012.718342
7.5150,43.72532783,2.013678247,1012.356868
7.5200,44.37997597,1.721189283,1012.000867
7.5250,45.02826305,1.43028822,1011.650529
7.5300,45.67108656,1.141249189,1011.305355
7.5350,46.30733557,0.8555651033,1010.965884
7.5400,46.93793071,0.5725648541,1010.63175
7.5450,47.56292361,0.2924269624,1010.302873
7.5500,48.18214847,0.01560273114,1009.979398
7.5550,48.79507514,-0.2580582264,1009.66147
7.5600,49.40062831,-0.5285752986,1009.349441
7.5650,49.99977932,-0.7943436429,1009.043212
7.5700,50.59199963,-1.057043348,1008.743064
7.5750,51.1786673,-1.315744287,1008.4485
7.5800,51.7585318,-1.570557816,1008.159816
7.5850,52.33225473,-1.82348423,1007.876776
7.5900,52.90090315,-2.073057074,1007.599263
7.5950,53.46432021,-2.319492028,1007.327159
7.6000,54.02466472,-2.562850532,1007.059814
7.6050,54.5810734,-2.802112174,1006.79758
7.6100,55.13450428,-3.037566112,1006.540316
7.6150,55.68520541,-3.269963734,1006.287517
7.6200,56.23411892,-3.49878665,1006.039033
7.6250,56.78074753,-3.724195991,1005.794944
7.6300,57.32640669,-3.947110606,1005.554736
7.6350,57.86995264,-4.166050673,1005.31887
7.6400,58.4116321,-4.382030475,1005.087134
7.6450,58.95163532,-4.594031681,1004.859393
7.6500,59.4898042,-4.802715301,1004.63558
7.6550,60.02545297,-5.008271224,1004.41588
7.6600,60.55804914,-5.211582471,1004.20014
7.6650,61.08648786,-5.411418566,1003.988762
7.6700,61.6095949,-5.608296478,1003.782083
7.6750,62.12563431,-5.803269634,1003.580306
7.6800,62.63401435,-5.994534376,1003.383549
7.6850,63.13450389,-6.182852462,1003.192024
7.6900,63.6260146,-6.368907847,1003.005731
7.6950,64.10570632,-6.551516081,1002.825488
7.7000,64.57354466,-6.732171826,1002.650895
7.7050,65.02817474,-6.909243413,1002.482354
7.7100,65.4692242,-7.082562227,1002.319997
7.7150,65.89508542,-7.253070139,1002.164183
7.7200,66.3046159,-7.420192815,1002.015117
7.7250,66.69663416,-7.583651125,1001.87309
7.7300,67.0704747,-7.743150457,1001.738292
7.7350,67.42616882,-7.897950956,1001.610623
7.7400,67.76173665,-8.04920796,1001.490531
7.7450,68.07768317,-8.194318427,1001.377947
7.7500,68.37226703,-8.334817546,1001.273136
7.7550,68.64409481,-8.470516928,1001.176569
7.7600,68.89374848,-8.601149692,1001.088239
7.7650,69.12031852,-8.725499468,1001.008357
7.7700,69.32301572,-8.844029302,1000.937096
7.7750,69.50312031,-8.957080845,1000.874199
7.7800,69.65979398,-9.06297776,1000.820112
7.7850,69.79290752,-9.163646916,1000.774721
7.7900,69.90260755,-9.258372546,1000.738108
7.7950,69.98790354,-9.345507292,1000.710623
7.8000,70.0507048,-9.425622135,1000.691818
7.8050,70.08939699,-9.498383843,1000.682124
7.8100,70.1047403,-9.563463,1000.681488
7.8150,70.09591986,-9.620644032,1000.690229
7.8200,70.06314928,-9.669254508,1000.708377
7.8250,70.00693169,-9.709722692,1000.735783
7.8300,69.92670341,-9.740783437,1000.772769
7.8350,69.82280552,-9.764799684,1000.819071
7.8400,69.69509396,-9.779699648,1000.874954
7.8450,69.54359215,-9.786154546,1000.940473
7.8500,69.36793218,-9.783780747,1001.015746
7.8550,69.17011034,-9.772177065,1001.100495
7.8600,68.9498485,-9.751067852,1001.194841
7.8650,68.70714693,-9.721358263,1001.298811
7.8700,68.44338192,-9.681204551,1001.412122
7.8750,68.15759507,-9.632091679,1001.535231
7.8800,67.85036357,-9.574334816,1001.668024
7.8850,67.52182078,-9.50541037,1001.810905
7.8900,67.17256054,-9.427014328,1001.963674
7.8950,66.80196456,-9.338682198,1002.126749
7.9000,66.40967079,-9.240031533,1002.300528
7.9050,65.99560695,-9.132801641,1002.485121
7.9100,65.56020866,-9.015405094,1002.680424
7.9150,65.1046751,-8.888683971,1002.886685
7.9200,64.62791421,-8.752080748,1003.104234
7.9250,64.13105193,-8.605826752,1003.333036
7.9300,63.61301587,-8.449770777,1003.573551
7.9350,63.07555074,-8.284446791,1003.825426
7.9400,62.51905967,-8.109243291,1004.088885
7.9450,61.94281545,-7.925026043,1004.364316
7.9500,61.34721858,-7.7316708,1004.651819
7.9550,60.73283968,-7.529358028,1004.951489
7.9600,60.0990635,-7.317177167,1005.263835
7.9650,59.44730882,-7.096337772,1005.588654
7.9700,58.7775481,-6.867055885,1005.926043
7.9750,58.08977855,-6.629451666,1006.276183
7.9800,57.38374836,-6.384696477,1006.63935
7.9850,56.65893882,-6.131981556,1007.015706
7.9900,55.91628928,-5.871747536,1007.40524
7.9950,55.1566916,-5.603573712,1007.807846
8.0000,54.38001829,-5.327307123,1008.224065
8.0050,53.58604314,-5.044769324,1008.654065
8.0100,52.77384896,-4.754731426,1009.098173
8.0150,51.94536551,-4.457924472,1009.555883
8.0200,51.10097003,-4.153090623,1010.0275
8.0250,50.23926501,-3.842908578,1010.513331
8.0300,49.36135538,-3.5257273,1011.013336
8.0350,48.46563548,-3.202045228,1011.52821
8.0400,47.55486619,-2.871551782,1012.057617
8.0450,46.62770782,-2.534599535,1012.60201
8.0500,45.68610364,-2.191264786,1013.161197
8.0550,44.73049997,-1.841058948,1013.735151
8.0600,43.76171342,-1.484956666,1014.323779
8.0650,42.78015295,-1.123496653,1014.927409
8.0700,41.78724268,-0.7561890834,1015.54589
8.0750,40.78264043,-0.3840582688,1016.179512
8.0800,39.76746647,-0.007006883117,1016.828508
8.0850,38.74199356,0.3755211656,1017.492918
8.0900,37.70612721,0.7630640522,1018.173257
8.0950,36.66168429,1.154274077,1018.869549
8.1000,35.60820856,1.549545127,1019.582011
8.1050,34.5455103,1.947498592,1020.311034
8.1100,33.47509197,2.348107805,1021.05635
8.1150,32.3969375,2.75171972,1021.818064
8.1200,31.31091755,3.15706732,1022.596653
8.1250,30.21731167,3.564243316,1023.392224
8.1300,29.11639582,3.97373803,1024.204961
8.1350,28.0084442,4.385853883,1025.034814
8.1400,26.89254279,4.800076941,1025.882038
8.1450,25.76962154,5.215795351,1026.74651
8.1500,24.64053031,5.633860121,1027.628154
8.1550,23.5033153,6.053264706,1028.52725
8.1600,22.35957676,6.474237648,1029.443494
8.1650,21.20869356,6.896461016,1030.377287
8.1700,20.05023527,7.319663002,1031.328398
8.1750,18.88397273,7.744130079,1032.296884
8.1800,17.71117527,8.169676909,1033.281992
8.1850,16.530888,8.595276957,1034.284028
8.1900,15.34339415,9.022355116,1035.302975
8.1950,14.1491364,9.450006703,1036.338633
8.2000,12.94819528,9.878052141,1037.390568
8.2050,11.74233674,10.30849077,1038.45847
8.2100,10.53120548,10.73929346,1039.542222
8.2150,9.314550274,11.17091429,1040.641466
8.2200,8.09342585,11.60391544,1041.756279
8.2250,6.867378646,12.03803443,1042.88619
8.2300,5.6379117,12.47325546,1044.031032
8.2350,4.404080805,12.90882136,1045.19072
8.2400,3.16703024,13.34586134,1046.364698
8.2450,1.928049109,13.78269686,1047.551909
8.2500,0.6868208321,14.22046284,1048.752451
8.2550,-0.5568747523,14.65917143,1049.966165
8.2600,-1.800743087,15.09807916,1051.191954
8.2650,-3.045336088,15.53769814,1052.429854
8.2700,-4.290067363,15.97844996,1053.679236
8.2750,-5.533511533,16.41998303,1054.939409
8.2800,-6.77560373,16.86298004,1056.21048
8.2850,-8.015865807,17.30607447,1057.491814
8.2900,-9.25375439,17.74954969,1058.783373
8.2950,-10.49016401,18.19279338,1060.084882
8.3000,-11.72366019,18.6361129,1061.395858
8.3050,-12.95492652,19.07888301,1062.715958
8.3100,-14.18196883,19.52066934,1064.044702
8.3150,-15.4046744,19.96235408,1065.381901
8.3200,-16.62336085,20.40227129,1066.727557
8.3250,-17.83649724,20.84231937,1068.081504
8.3300,-19.0436004,21.28075102,1069.443278
8.3350,-20.24333111,21.71608825,1070.812041
8.3400,-21.4373645,22.14961554,1072.188412
8.3450,-22.62309138,22.58114536,1073.571233
8.3500,-23.80052617,23.0090103,1074.960187
8.3550,-24.96850289,23.43378,1076.355059
8.3600,-26.12697232,23.85528795,1077.755818
8.3650,-27.2753902,24.27319269,1079.161714
8.3700,-28.41261736,24.68817247,1080.572318
8.3750,-29.53711982,25.09987606,1081.986753
8.3800,-30.65021251,25.50775408,1083.405266
8.3850,-31.74945977,25.91265935,1084.827192
8.3900,-32.83509365,26.31336331,1086.251958
8.3950,-33.90767783,26.71140725,1087.678667
8.4000,-34.96662159,27.10576336,1089.107519
8.4050,-36.01171054,27.49798549,1090.538463
8.4100,-37.04388058,27.88693925,1091.971152
8.4150,-38.06167646,28.27273479,1093.405204
8.4200,-39.06595336,28.65575553,1094.840573
8.4250,-40.0560414,29.03568188,1096.276407
8.4300,-41.03262078,29.41221708,1097.713244
8.4350,-41.99606481,29.78460946,1099.150784
8.4400,-42.94475699,30.15306572,1100.588467
8.4450,-43.87980438,30.51753929,1102.026613
8.4500,-44.80137833,30.8762921,1103.465073
8.4550,-45.70907622,31.23037174,1104.904172
8.4600,-46.60315945,31.57786218,1106.343464
8.4650,-47.48336477,31.9192879,1107.782203
8.4700,-48.34858449,32.25383888,1109.220532
8.4750,-49.19823105,32.58082876,1110.658012
8.4800,-50.03266409,32.89942466,1112.094835
8.4850,-50.85182662,33.20953631,1113.530143
8.4900,-51.65577729,33.51111908,1114.964573
8.4950,-52.44422517,33.80243983,1116.397077
8.5000,-53.21575552,34.0845903,1117.827608
8.5050,-53.97283274,34.35558823,1119.256512
8.5100,-54.71453805,34.61638296,1120.68358
8.5150,-55.44161862,34.86717348,1122.108819
8.5200,-56.15533076,35.10655513,1123.531658
8.5250,-56.85599484,35.33557216,1124.952061
8.5300,-57.54450813,35.55378598,1126.369809
8.5350,-58.22060459,35.76196563,1127.784651
8.5400,-58.88529262,35.96042696,1129.196719
8.5450,-59.53929324,36.14949189,1130.606592
8.5500,-60.18212092,36.32998594,1132.01363
8.5550,-60.81498927,36.50111331,1133.417622
8.5600,-61.43968534,36.66415088,1134.81939
8.5650,-62.0553451,36.81851932,1136.218042
8.5700,-62.66339989,36.96395461,1137.614266
8.5750,-63.2642157,37.10140152,1139.007557
8.5800,-63.85771682,37.23040286,1140.39763
8.5850,-64.44489415,37.35175082,1141.784976
8.5900,-65.02516418,37.46510442,1143.168554
8.5950,-65.59819104,37.57148626,1144.549827
8.6000,-66.16527909,37.67036253,1145.927896
8.6050,-66.72542163,37.76312783,1147.303071
8.6100,-67.27948179,37.84919819,1148.675026
8.6150,-67.8277074,37.92914022,1150.04397
8.6200,-68.36879629,38.00427979,1151.409753
8.6250,-68.90270694,38.07455497,1152.771413
8.6300,-69.43063586,38.14066217,1154.129613
8.6350,-69.95143896,38.20485871,1155.484555
8.6400,-70.4646602,38.26630948,1156.835263
8.6450,-70.96989207,38.32476088,1158.181906
8.6500,-71.46730795,38.38247433,1159.524828
8.6550,-71.95609251,38.43946557,1160.863383
8.6600,-72.43639555,38.49618288,1162.197931
8.6650,-72.90742081,38.55309548,1163.528415
8.6700,-73.37033746,38.60927336,1164.855269
8.6750,-73.82547536,38.66575499,1166.179297
8.6800,-74.27232894,38.72187643,1167.499176
8.6850,-74.71084585,38.77834396,1168.815503
8.6900,-75.14008067,38.83534885,1170.128426
8.6950,-75.55994958,38.89238339,1171.438699
8.7000,-75.96992039,38.94995974,1172.74592
8.7050,-76.37002907,39.0074726,1174.049921
8.7100,-76.76074851,39.06534589,1175.351121
8.7150,-77.14041543,39.12437378,1176.64942
8.7200,-77.50947071,39.18420292,1177.945394
8.7250,-77.86977822,39.24517287,1179.240163
8.7300,-78.21924664,39.30716047,1180.532743
8.7350,-78.55803853,39.37070752,1181.823817
8.7400,-78.88710929,39.43628393,1183.114484
8.7450,-79.2062629,39.50372904,1184.404398
8.7500,-79.51597535,39.5734511,1185.693925
8.7550,-79.81537985,39.64530049,1186.981712
8.7600,-80.10561698,39.72025965,1188.268584
8.7650,-80.38667632,39.79750369,1189.555017
8.7700,-80.66005287,39.87798494,1190.84211
8.7750,-80.92621315,39.96124959,1192.129758
8.7800,-81.18457075,40.04767115,1193.418108
8.7850,-81.43563639,40.13665194,1194.708171
8.7900,-81.68074611,40.22780165,1195.999882
8.7950,-81.92018825,40.32165282,1197.293444
8.8000,-82.15501159,40.41707061,1198.588763
8.8050,-82.38478629,40.51447777,1199.886009
8.8100,-82.61031752,40.61335115,1201.186016
8.8150,-82.83269669,40.71277318,1202.488726
8.8200,-83.05107842,40.8126726,1203.794531
8.8250,-83.26630269,40.91272546,1205.104418
8.8300,-83.47791433,41.01297457,1206.417763
8.8350,-83.68666396,41.11270373,1207.735188
8.8400,-83.89332145,41.21133943,1209.056622
8.8450,-84.09782215,41.30984016,1210.382298
8.8500,-84.30022783,41.40815865,1211.711925
8.8550,-84.50029989,41.50615942,1213.046073
8.8600,-84.69874492,41.60331959,1214.38474
8.8650,-84.89513254,41.69994819,1215.727934
8.8700,-85.09023568,41.79702681,1217.076081
8.8750,-85.28454525,41.89382679,1218.429973
8.8800,-85.47828693,41.99005504,1219.788447
8.8850,-85.66952965,42.08574752,1221.151396
8.8900,-85.85969492,42.1815851,1222.519674
8.8950,-86.05000807,42.27522421,1223.892042
8.9000,-86.23862875,42.36716888,1225.268762
8.9050,-86.42442186,42.45824225,1226.649648
8.9100,-86.60742033,42.54844588,1228.034826
8.9150,-86.78829248,42.63596089,1229.42465
8.9200,-86.96806681,42.72117182,1230.818271
8.9250,-87.14519126,42.80455911,1232.216531
8.9300,-87.32013494,42.884824,1233.618557
8.9350,-87.49338233,42.96140392,1235.024243
8.9400,-87.66321367,43.03560587,1236.433842
8.9450,-87.83036855,43.10626361,1237.847622
8.9500,-87.99495236,43.17307774,1239.265179
8.9550,-88.15689607,43.23716116,1240.686442
8.9600,-88.31651292,43.29828888,1242.110321
8.9650,-88.4735516,43.35494328,1243.536991
8.9700,-88.6268822,43.409016,1244.966258
8.9750,-88.77642085,43.45984417,1246.397891
8.9800,-88.92206337,43.50787814,1247.832272
8.9850,-89.06380247,43.55306268,1249.268609
8.9900,-89.20307577,43.59644916,1250.707566
8.9950,-89.3386552,43.6365538,1252.148338
9.0000,-89.47100325,43.67392598,1253.591121
9.0050,-89.59893312,43.70880337,1255.035258
9.0100,-89.72232792,43.74163063,1256.480905
9.0150,-89.84350111,43.77221814,1257.928586
9.0200,-89.96118718,43.80038001,1259.37772
9.0250,-90.07444765,43.82537533,1260.827677
9.0300,-90.18485395,43.84701508,1262.278868
9.0350,-90.29162564,43.86582285,1263.731039
9.0400,-90.39544228,43.88117792,1265.183033
9.0450,-90.49557606,43.89214218,1266.63495
9.0500,-90.59168291,43.90014072,1268.086693
9.0550,-90.68485962,43.90462722,1269.538947
9.0600,-90.77374925,43.906243,1270.991181
9.0650,-90.85816322,43.90561602,1272.443676
9.0700,-90.93730923,43.9017501,1273.895382
9.0750,-91.01082628,43.89617881,1275.345707
9.0800,-91.07944315,43.88865065,1276.795657
9.0850,-91.14174573,43.87994515,1278.24457
9.0900,-91.19780714,43.86971435,1279.691464
9.0950,-91.24854059,43.85790583,1281.137579
9.1000,-91.29354625,43.84515524,1282.583211
9.1050,-91.33262515,43.83116271,1284.027626
9.1100,-91.36635355,43.81640496,1285.471623
9.1150,-91.39291565,43.80179872,1286.91424
9.1200,-91.41334868,43.78748517,1288.356024
9.1250,-91.42635078,43.77252527,1289.796466
9.1300,-91.43372216,43.75789239,1291.236689
9.1350,-91.43413254,43.74432223,1292.675073
9.1400,-91.42880649,43.73182976,1294.112419
9.1450,-91.41760393,43.7187225,1295.547811
9.1500,-91.40146097,43.7045688,1296.981627
9.1550,-91.380026,43.69070692,1298.41322
9.1600,-91.3531554,43.67670271,1299.842006
9.1650,-91.32216024,43.6628048,1301.268814
9.1700,-91.2862411,43.64811629,1302.691846
9.1750,-91.2458126,43.63256398,1304.111102
9.1800,-91.20113663,43.61603966,1305.527086
9.1850,-91.15205386,43.59885197,1306.939129
9.1900,-91.09868739,43.58165294,1308.34688
9.1950,-91.04031765,43.56521903,1309.750394
9.2000,-90.97802991,43.54990554,1311.150071
9.2050,-90.91378723,43.53424744,1312.545642
9.2100,-90.84668911,43.51919083,1313.937781
9.2150,-90.77655406,43.50580045,1315.325539
9.2200,-90.70223299,43.4930252,1316.709053
9.2250,-90.62428893,43.48176825,1318.088569
9.2300,-90.54164903,43.47320152,1319.464052
9.2350,-90.45463568,43.46686498,1320.836128
9.2400,-90.36533414,43.46233281,1322.204577
9.2450,-90.27308012,43.46047802,1323.569352
9.2500,-90.17669637,43.461926,1324.929815
9.2550,-90.07745194,43.46496159,1326.286878
9.2600,-89.97432123,43.4683168,1327.640357
9.2650,-89.86868294,43.47442316,1328.989946
9.2700,-89.76031783,43.4819497,1330.335666
9.2750,-89.64896842,43.49121849,1331.676614
9.2800,-89.53410802,43.502484,1333.013002
9.2850,-89.41704827,43.51599257,1334.34517
9.2900,-89.2965279,43.53036629,1335.67157
9.2950,-89.17349539,43.54659264,1336.992939
9.3000,-89.0484892,43.5644796,1338.309649
9.3050,-88.92223427,43.58325475,1339.621888
9.3100,-88.79398483,43.60347166,1340.929234
9.3150,-88.66334119,43.62419133,1342.231194
9.3200,-88.53055393,43.64610658,1343.527912
9.3250,-88.39513657,43.66885893,1344.819186
9.3300,-88.25652404,43.69242369,1346.104952
9.3350,-88.11478349,43.7158316,1347.385351
9.3400,-87.96928751,43.73885109,1348.660414
9.3450,-87.82029244,43.76338,1349.931461
9.3500,-87.66737503,43.78844172,1351.197369
9.3550,-87.5089141,43.81410605,1352.459069
9.3600,-87.34538551,43.8406149,1353.716374
9.3650,-87.17621824,43.86633772,1354.969468
9.3700,-87.001163,43.89107119,1356.217058
9.3750,-86.81987667,43.91426009,1357.460728
9.3800,-86.63330234,43.93622591,1358.6997
9.3850,-86.44193587,43.95487806,1359.933542
9.3900,-86.24487829,43.97126696,1361.163339
9.3950,-86.04149744,43.98458265,1362.387402
9.4000,-85.83227773,43.99441837,1363.606022
9.4050,-85.61767773,44.00034968,1364.819508
9.4100,-85.39780527,44.0033318,1366.026939
9.4150,-85.1735835,44.00208556,1367.230273
9.4200,-84.94463242,43.9980888,1368.427964
9.4250,-84.71235419,43.99165927,1369.620106
9.4300,-84.47487975,43.9834726,1370.806439
9.4350,-84.23261803,43.97172014,1371.987789
9.4400,-83.9846326,43.95768594,1373.162858
9.4450,-83.73123937,43.94242549,1374.332736
9.4500,-83.47308606,43.92566389,1375.496789
9.4550,-83.21235254,43.90641717,1376.65482
9.4600,-82.94839036,43.88427888,1377.80735
9.4650,-82.68238423,43.85931348,1378.953583
9.4700,-82.41473842,43.83124219,1380.094874
9.4750,-82.14592227,43.80092055,1381.230515
9.4800,-81.87635536,43.76815298,1382.360183
9.4850,-81.60747995,43.7331476,1383.484683
9.4900,-81.33955461,43.69622069,1384.603731
9.4950,-81.07246689,43.65957589,1385.717379
9.5000,-80.80758307,43.62304348,1386.825163
9.5050,-80.54315819,43.58767502,1387.926992
9.5100,-80.28062582,43.55344679,1389.021855
9.5150,-80.02023386,43.52093153,1390.110592
9.5200,-79.76197843,43.49106997,1391.193085
9.5250,-79.50682533,43.46327945,1392.269812
9.5300,-79.25503226,43.43901777,1393.339977
9.5350,-79.00458628,43.41837963,1394.402716
9.5400,-78.7537394,43.40189604,1395.458357
9.5450,-78.50273094,43.39002752,1396.506988
9.5500,-78.25154552,43.38317013,1397.549094
9.5550,-77.99851054,43.38110876,1398.583479
9.5600,-77.74245921,43.38355875,1399.610075
9.5650,-77.48242077,43.38989304,1400.628908
9.5700,-77.2172694,43.39839012,1401.639404
9.5750,-76.94610705,43.40895441,1402.641628
9.5800,-76.66952345,43.4198017,1403.634741
9.5850,-76.38513991,43.42785816,1404.618505
9.5900,-76.09429013,43.43389381,1405.593063
9.5950,-75.79582148,43.43559247,1406.558318
9.6000,-75.49024855,43.43200154,1407.513955
9.6050,-75.17749084,43.42226452,1408.460327
9.6100,-74.85795134,43.40400551,1409.397893
9.6150,-74.53169936,43.37694031,1410.326644
9.6200,-74.19860432,43.34095045,1411.247081
9.6250,-73.85930173,43.29559784,1412.159863
9.6300,-73.51393663,43.24190667,1413.06555
9.6350,-73.16385042,43.18037514,1413.964522
9.6400,-72.80747419,43.11115894,1414.857687
9.6450,-72.44580438,43.03334521,1415.744301
9.6500,-72.07967856,42.94712439,1416.625838
9.6550,-71.70849203,42.85335966,1417.502837
9.6600,-71.33283879,42.75124355,1418.3755
9.6650,-70.95335044,42.64283091,1419.244586
9.6700,-70.57040841,42.52774931,1420.111542
9.6750,-70.18385892,42.40743723,1420.976017
9.6800,-69.79296281,42.28201841,1421.838701
9.6850,-69.39789723,42.1513834,1422.700583
9.6900,-68.99918658,42.01603741,1423.561127
9.6950,-68.59596338,41.87715621,1424.420957
9.7000,-68.18839875,41.73447917,1425.280243
9.7050,-67.77678729,41.58749969,1426.139747
9.7100,-67.3604182,41.43568898,1426.999386
9.7150,-66.94048169,41.28052424,1427.858551
9.7200,-66.51645451,41.12064491,1428.718694
9.7250,-66.08838439,40.95638299,1429.579395
9.7300,-65.65786593,40.7862699,1430.441174
9.7350,-65.22549372,40.61286665,1431.30479
9.7400,-64.7925172,40.43609182,1432.170683
9.7450,-64.35885379,40.25588813,1433.039243
9.7500,-63.92477597,40.07315914,1433.910962
9.7550,-63.4879014,39.88902987,1434.785887
9.7600,-63.04984614,39.70495933,1435.663962
9.7650,-62.61065143,39.51992732,1436.545302
9.7700,-62.17031209,39.33436818,1437.429787
9.7750,-61.72983309,39.14914919,1438.31805
9.7800,-61.28964297,38.96482647,1439.209962
9.7850,-60.85128664,38.7816913,1440.105076
9.7900,-60.4140912,38.59974047,1441.003829
9.7950,-59.97840961,38.41830106,1441.905236
9.8000,-59.54426504,38.23760825,1442.809195
9.8050,-59.11430612,38.05740528,1443.715864
9.8100,-58.68733865,37.87767848,1444.625177
9.8150,-58.26472675,37.69973449,1445.536741
9.8200,-57.84675108,37.524565,1446.45041
9.8250,-57.43356832,37.35152211,1447.364213
9.8300,-57.02429083,37.17879881,1448.279607
9.8350,-56.62165902,37.00883875,1449.195684
9.8400,-56.22615933,36.84104892,1450.112477
9.8450,-55.83683698,36.67569868,1451.02911
9.8500,-55.4543309,36.51182989,1451.944658
9.8550,-55.07874448,36.35005029,1452.859044
9.8600,-54.71089602,36.1924063,1453.772379
9.8650,-54.34948274,36.03850208,1454.68345
9.8700,-53.99596952,35.8889237,1455.592076
9.8750,-53.65034479,35.74416673,1456.497666
9.8800,-53.31078895,35.60513187,1457.399931
9.8850,-52.97799054,35.47170726,1458.298567
9.8900,-52.65038792,35.3442858,1459.192498
9.8950,-52.32923666,35.22234459,1460.081102
9.9000,-52.01362808,35.10595242,1460.964166
9.9050,-51.70272492,34.99474461,1461.840096
9.9100,-51.39694985,34.8894061,1462.708484
9.9150,-51.09508229,34.78976327,1463.568819
9.9200,-50.79861514,34.69461536,1464.419962
9.9250,-50.50536478,34.60511885,1465.262122
9.9300,-50.21644604,34.52003214,1466.0944
9.9350,-49.93000166,34.44018113,1466.916335
9.9400,-49.64770388,34.3640684,1467.726983
9.9450,-49.36766079,34.29280644,1468.526844
9.9500,-49.08991515,34.22521212,1469.314487
9.9550,-48.8139337,34.1611026,1470.089428
9.9600,-48.53886097,34.10095008,1470.851428
9.9650,-48.26345502,34.04394174,1471.599802
9.9700,-47.9877064,33.99029552,1472.334266
9.9750,-47.712435,33.93767877,1473.054574
9.9800,-47.43579853,33.88639628,1473.760617
9.9850,-47.15875466,33.83723788,1474.451799
9.9900,-46.87971989,33.78851082,1475.12807
9.9950,-46.59903596,33.74006521,1475.78986
10.0000,-46.31590955,33.69122609,1476.437103
10.0050,-46.02884109,33.64249447,1477.068525
10.0100,-45.73860201,33.59463138,1477.684954
10.0150,-45.44336346,33.5455683,1478.285836
10.0200,-45.14369148,33.49655398,1478.871447
10.0250,-44.83836367,33.44620016,1479.442272
10.0300,-44.52731993,33.39594442,1479.998659
10.0350,-44.21091073,33.34328273,1480.540899
10.0400,-43.88734624,33.28901483,1481.06999
10.0450,-43.55709387,33.23162323,1481.586154
10.0500,-43.21997693,33.17117394,1482.090316
10.0550,-42.8775784,33.10704719,1482.583455
10.0600,-42.52953546,33.03857171,1483.066779
10.0650,-42.17487689,32.96579498,1483.540871
10.0700,-41.81344786,32.88968832,1484.006253
10.0750,-41.44578209,32.80871639,1484.463743
10.0800,-41.07170481,32.723394,1484.914384
10.0850,-40.690799,32.63368641,1485.35882
10.0900,-40.30430074,32.5388915,1485.79754
10.0950,-39.91158804,32.43950825,1486.231859
10.1000,-39.51314078,32.33560676,1486.662066
10.1050,-39.10926921,32.22806948,1487.089384
10.1100,-38.70123502,32.11573085,1487.514371
10.1150,-38.28798137,31.99844816,1487.937433
10.1200,-37.87034249,31.87558165,1488.359041
10.1250,-37.45144858,31.74780039,1488.781151
10.1300,-37.03205324,31.61640728,1489.20337
10.1350,-36.61249787,31.48104235,1489.626662
10.1400,-36.19335255,31.34117899,1490.051299
10.1450,-35.77654226,31.19857665,1490.478516
10.1500,-35.3627707,31.05365255,1490.909178
10.1550,-34.95321992,30.90639828,1491.343294
10.1600,-34.54681322,30.75723019,1491.78038
10.1650,-34.14690309,30.60548077,1492.221043
10.1700,-33.75201132,30.45350377,1492.665531
10.1750,-33.36375743,30.29989309,1493.113826
10.1800,-32.98369939,30.14517291,1493.566577
10.1850,-32.61400089,29.99056071,1494.023441
10.1900,-32.2552209,29.83323378,1494.484385
10.1950,-31.90695131,29.67626996,1494.949321
10.2000,-31.56946205,29.51967901,1495.417248
10.2050,-31.24396,29.36355662,1495.888465
10.2100,-30.92927661,29.20883853,1496.36237
10.2150,-30.62662449,29.05590445,1496.838606
10.2200,-30.33427665,28.90575821,1497.316656
10.2250,-30.05443966,28.75927553,1497.796269
10.2300,-29.78544881,28.61535097,1498.276118
10.2350,-29.52824861,28.47470131,1498.755872
10.2400,-29.28133097,28.33914271,1499.235403
10.2450,-29.0438889,28.20824287,1499.712442
10.2500,-28.81476446,28.08217748,1500.187343
10.2550,-28.59469176,27.96123847,1500.659581
10.2600,-28.38247462,27.84646659,1501.128397
10.2650,-28.17865595,27.73613539,1501.593181
10.2700,-27.98293152,27.63125505,1502.053871
10.2750,-27.79206784,27.53311904,1502.509231
10.2800,-27.60650445,27.44095379,1502.958233
10.2850,-27.42514624,27.35485038,1503.400613
10.2900,-27.24717538,27.27490021,1503.835474
10.2950,-27.07189868,27.20083956,1504.26142
10.3000,-26.89870339,27.13313773,1504.677794
10.3050,-26.72784712,27.07228738,1505.085082
10.3100,-26.55773825,27.01559457,1505.481539
10.3150,-26.38784674,26.9652541,1505.867035
10.3200,-26.21778109,26.91884939,1506.241053
10.3250,-26.04811766,26.87725257,1506.603392
10.3300,-25.87778169,26.83947647,1506.953282
10.3350,-25.70545787,26.80666353,1507.290836
10.3400,-25.53245847,26.77582661,1507.615214
10.3450,-25.35807886,26.74927722,1507.927031
10.3500,-25.18213349,26.7269641,1508.22584
10.3550,-25.00319472,26.70841684,1508.511568
10.3600,-24.82003644,26.69239769,1508.783817
10.3650,-24.63442874,26.68036701,1509.043326
10.3700,-24.44588669,26.66999846,1509.289981
10.3750,-24.25335212,26.66185772,1509.524058
10.3800,-24.05729129,26.65468146,1509.746139
10.3850,-23.85710135,26.64803423,1509.95708
10.3900,-23.65343341,26.6427882,1510.158075
10.3950,-23.44688845,26.63690216,1510.349535
10.4000,-23.23746773,26.63090431,1510.532732
10.4050,-23.02421042,26.62264444,1510.707983
10.4100,-22.80819698,26.61287287,1510.87644
10.4150,-22.58954604,26.60149827,1511.038909
10.4200,-22.36897867,26.58738369,1511.196591
10.4250,-22.14424906,26.57218512,1511.350047
10.4300,-21.91635944,26.55411135,1511.500428
10.4350,-21.68599622,26.53283197,1511.648657
10.4400,-21.45403708,26.51035738,1511.795697
10.4450,-21.21941234,26.48432583,1511.941521
10.4500,-20.98257124,26.45559687,1512.08656
10.4550,-20.74332724,26.42432056,1512.232269
10.4600,-20.50445484,26.38946666,1512.379397
10.4650,-20.26400933,26.35305242,1512.529101
10.4700,-20.02439059,26.31318739,1512.681408
10.4750,-19.78462344,26.27137112,1512.837158
10.4800,-19.54505969,26.22706239,1512.995404
10.4850,-19.30580053,26.18043761,1513.156656
10.4900,-19.06700245,26.1329642,1513.321434
10.4950,-18.8298113,26.08516435,1513.490422
10.5000,-18.59361269,26.03577724,1513.66309
10.5050,-18.35864705,25.98580237,1513.839942
10.5100,-18.12444615,25.93413941,1514.020224
10.5150,-17.89167138,25.88275936,1514.20483
10.5200,-17.66069689,25.83107501,1514.393359
10.5250,-17.43069056,25.77761603,1514.585275
10.5300,-17.20313565,25.72560679,1514.781625
10.5350,-16.97659729,25.67488757,1514.982312
10.5400,-16.75165796,25.62373307,1515.186293
10.5450,-16.5303208,25.57441764,1515.395267
10.5500,-16.31265572,25.52751774,1515.608849
10.5550,-16.09808623,25.48377509,1515.826283
10.5600,-15.88813583,25.44229324,1516.048463
10.5650,-15.68270349,25.40440785,1516.274689
10.5700,-15.48012987,25.3710746,1516.504944
10.5750,-15.28198508,25.34184445,1516.738735
10.5800,-15.08822939,25.31726165,1516.975642
10.5850,-14.89856412,25.2975029,1517.214882
10.5900,-14.71396156,25.28271199,1517.456774
10.5950,-14.53453919,25.27290843,1517.700604
10.6000,-14.36035602,25.26743777,1517.945985
10.6050,-14.19046105,25.26664929,1518.191803
10.6100,-14.02664435,25.27058721,1518.437786
10.6150,-13.8695167,25.27727429,1518.683319
10.6200,-13.7189163,25.28831973,1518.927544
10.6250,-13.5744909,25.30364397,1519.170837
10.6300,-13.4361408,25.32220438,1519.411969
10.6350,-13.30387682,25.34422499,1519.65077
10.6400,-13.17643109,25.37096359,1519.886436
10.6450,-13.05503306,25.40052204,1520.118494
10.6500,-12.93779703,25.43249285,1520.346334
10.6550,-12.82456397,25.46622124,1520.569394
10.6600,-12.71574656,25.50272611,1520.787672
10.6650,-12.61084229,25.54088764,1521.00113
10.6700,-12.51016117,25.58082518,1521.209897
10.6750,-12.41383179,25.62117924,1521.413248
10.6800,-12.32159742,25.66164043,1521.611411
10.6850,-12.23457435,25.70277252,1521.804721
10.6900,-12.15099249,25.74264641,1521.992288
10.6950,-12.07235355,25.781226,1522.173951
10.7000,-11.99818187,25.81791065,1522.350292
10.7050,-11.92869916,25.85408456,1522.520861
10.7100,-11.86222003,25.8896201,1522.685794
10.7150,-11.80044571,25.92363047,1522.845108
10.7200,-11.74350729,25.95654817,1522.998612
10.7250,-11.69133359,25.98651959,1523.146165
10.7300,-11.64417892,26.0167677,1523.287653
10.7350,-11.60202501,26.04618831,1523.423237
10.7400,-11.56396358,26.0740604,1523.552471
10.7450,-11.53118084,26.10227103,1523.675264
10.7500,-11.50210995,26.13015743,1523.791705
10.7550,-11.47717277,26.15910385,1523.901814
10.7600,-11.45568878,26.18902443,1524.005651
10.7650,-11.43820068,26.21849766,1524.102585
10.7700,-11.42316769,26.25038808,1524.193182
10.7750,-11.41109514,26.28303945,1524.27622
10.7800,-11.40166747,26.31762681,1524.352487
10.7850,-11.39333621,26.35463484,1524.422068
10.7900,-11.38693257,26.39400992,1524.484345
10.7950,-11.38273156,26.43368621,1524.538518
10.8000,-11.38102169,26.47505999,1524.584824
10.8050,-11.38334519,26.51831967,1524.623628
10.8100,-11.39039014,26.56353306,1524.654214
10.8150,-11.4024352,26.61025398,1524.676738
10.8200,-11.41998181,26.65832475,1524.69089
10.8250,-11.44309586,26.70989268,1524.696807
10.8300,-11.47230318,26.76319405,1524.693748
10.8350,-11.50698388,26.8190188,1524.681711
10.8400,-11.54668533,26.87942905,1524.660937
10.8450,-11.59211118,26.94261963,1524.630777
10.8500,-11.64390268,27.00788938,1524.591218
10.8550,-11.70233049,27.07667425,1524.542872
10.8600,-11.76638388,27.14892976,1524.484345
10.8650,-11.83652351,27.22543567,1524.415869
10.8700,-11.91407882,27.3048976,1524.336788
10.8750,-11.9991412,27.38782948,1524.247435
10.8800,-12.09197227,27.47511458,1524.148079
10.8850,-12.19224005,27.56551091,1524.037882
10.8900,-12.30015923,27.6591066,1523.916177
10.8950,-12.41451981,27.75687826,1523.783613
10.9000,-12.53629063,27.85782781,1523.639442
10.9050,-12.66587194,27.96128303,1523.483567
10.9100,-12.80182242,28.06868624,1523.315773
10.9150,-12.94290006,28.17940181,1523.135747
10.9200,-13.0901566,28.29286646,1522.943189
10.9250,-13.24371845,28.40929005,1522.737473
10.9300,-13.40395446,28.52854302,1522.519143
10.9350,-13.56973377,28.64972205,1522.286941
10.9400,-13.74208925,28.7720067,1522.041355
10.9450,-13.92000236,28.89645244,1521.782088
10.9500,-14.10459627,29.02114577,1521.509206
10.9550,-14.2963353,29.14739497,1521.223002
10.9600,-14.4963276,29.27524049,1520.923511
10.9650,-14.7036779,29.40410366,1520.610541
10.9700,-14.91827025,29.53456543,1520.284111
10.9750,-15.14092597,29.66652733,1519.944679
10.9800,-15.37051817,29.80101775,1519.592258
10.9850,-15.60695494,29.93696025,1519.226648
10.9900,-15.85148626,30.07504794,1518.848088
10.9950,-16.10250863,30.21545171,1518.457319
11.0000,-16.3607797,30.35819294,1518.054093
11.0050,-16.62641022,30.5026765,1517.639022
11.0100,-16.90029501,30.64966412,1517.212801
11.0150,-17.18067902,30.79775838,1516.775423
11.0200,-17.46785686,30.94720631,1516.326973
11.0250,-17.7626329,31.09924409,1515.867912
11.0300,-18.0643351,31.25214449,1515.398973
11.0350,-18.37147972,31.40687459,1514.919693
11.0400,-18.68492273,31.56332022,1514.430633
11.0450,-19.00460919,31.71974453,1513.932238
11.0500,-19.33210998,31.87719962,1513.4249
11.0550,-19.66556455,32.03604113,1512.90843
11.0600,-20.00393819,32.19685514,1512.383256
11.0650,-20.34634788,32.35998677,1511.849483
11.0700,-20.6936341,32.52371209,1511.306994
11.0750,-21.04462191,32.68939487,1510.756589
11.0800,-21.40005232,32.8569131,1510.198613
11.0850,-21.75866959,33.02468513,1509.633002
11.0900,-22.12019644,33.1947532,1509.060151
11.0950,-22.48384007,33.36698787,1508.480585
11.1000,-22.8499395,33.54060776,1507.894588
11.1050,-23.21732017,33.7145048,1507.301725
11.1100,-23.58596986,33.88975416,1506.703216
11.1150,-23.95637713,34.06455195,1506.098476
11.1200,-24.32851204,34.23957389,1505.488178
11.1250,-24.70312672,34.41456878,1504.872829
11.1300,-25.07867286,34.59011688,1504.252747
11.1350,-25.45706437,34.76449234,1503.627971
11.1400,-25.83919661,34.93684653,1502.999003
11.1450,-26.22354259,35.10855004,1502.366207
11.1500,-26.60964906,35.27979482,1501.729383
11.1550,-26.99771006,35.4498739,1501.08931
11.1600,-27.38861468,35.61955295,1500.445938
11.1650,-27.78198502,35.78804582,1499.799865
11.1700,-28.17693098,35.95597687,1499.151013
11.1750,-28.57300378,36.12382034,1498.499106
11.1800,-28.9710157,36.29028193,1497.84459
11.1850,-29.37076823,36.45547239,1497.187431
11.1900,-29.77258347,36.62055357,1496.528222
11.1950,-30.17628561,36.78443025,1495.866361
11.2000,-30.58098725,36.94662401,1495.201684
11.2050,-30.98722317,37.10783663,1494.534596
11.2100,-31.39463781,37.26637883,1493.864665
11.2150,-31.80368403,37.42420178,1493.192494
11.2200,-32.21321094,37.58091828,1492.51774
11.2250,-32.62327581,37.73502484,1491.840394
11.2300,-33.03412401,37.88655951,1491.160128
11.2350,-33.44629711,38.03646797,1490.477545
11.2400,-33.85956522,38.1847869,1489.792559
11.2450,-34.27268745,38.33044143,1489.10474
11.2500,-34.68641644,38.47474723,1488.414335
11.2550,-35.10034806,38.61787825,1487.721374
11.2600,-35.51321823,38.75867657,1487.025588
11.2650,-35.92622961,38.89838837,1486.326794
11.2700,-36.33866843,39.03679463,1485.624988
11.2750,-36.75028407,39.17528117,1484.919847
11.2800,-37.16244907,39.31359562,1484.211505
11.2850,-37.5745952,39.4524705,1483.499444
11.2900,-37.98596882,39.59098035,1482.783628
11.2950,-38.39869728,39.72977264,1482.063778
11.3000,-38.8119472,39.86757977,1481.339974
11.3050,-39.22759872,40.00472835,1480.611345
11.3100,-39.6448723,40.14065736,1479.877533
11.3150,-40.06596967,40.27655124,1479.138529
11.3200,-40.49074253,40.41329497,1478.394715
11.3250,-40.91885387,40.54878146,1477.644721
11.3300,-41.35165857,40.68372004,1476.88882
11.3350,-41.78882048,40.81903884,1476.126933
11.3400,-42.22960164,40.9548451,1475.358066
11.3450,-42.67422548,41.09276113,1474.582398
11.3500,-43.12130998,41.23210667,1473.798875
11.3550,-43.57295456,41.37041204,1473.006519
11.3600,-44.02877651,41.50954063,1472.205485
11.3650,-44.4886423,41.65014272,1471.39513
11.3700,-44.95198879,41.79123967,1470.575344
11.3750,-45.41976165,41.93312465,1469.745426
11.3800,-45.89067125,42.07424113,1468.904608
11.3850,-46.3660168,42.21712923,1468.051575
11.3900,-46.84523171,42.3593189,1467.187158
11.3950,-47.32924435,42.50150757,1466.310445
11.4000,-47.81759563,42.64587494,1465.422005
11.4050,-48.30776619,42.79162176,1464.520853
11.4100,-48.80002041,42.94005857,1463.60684
11.4150,-49.29374835,43.09093864,1462.679687
11.4200,-49.78868114,43.24434483,1461.739503
11.4250,-50.28487792,43.39846133,1460.785589
11.4300,-50.7824174,43.55277945,1459.817751
11.4350,-51.28068552,43.70829609,1458.835846
11.4400,-51.77867791,43.86478324,1457.839944
11.4450,-52.27735101,44.02145948,1456.829479
11.4500,-52.77599982,44.17870419,1455.80403
11.4550,-53.2754998,44.33597395,1454.763197
11.4600,-53.77539168,44.49209613,1453.707366
11.4650,-54.2757193,44.6482628,1452.636324
11.4700,-54.77627124,44.80446827,1451.550011
11.4750,-55.27752511,44.95945645,1450.4485
11.4800,-55.77750934,45.11421772,1449.331921
11.4850,-56.27412943,45.27039446,1448.200323
11.4900,-56.76670984,45.42675172,1447.053173
11.4950,-57.25540797,45.58349155,1445.89075
11.5000,-57.73990289,45.74114358,1444.713236
11.5050,-58.21964492,45.89927714,1443.520837
11.5100,-58.69510239,46.05804074,1442.313491
11.5150,-59.16598616,46.21639942,1441.091495
11.5200,-59.63297541,46.37427865,1439.855483
11.5250,-60.09589777,46.53156194,1438.605102
11.5300,-60.55419251,46.68917249,1437.341455
11.5350,-61.0092348,46.84576235,1436.064187
11.5400,-61.46063617,47.00101387,1434.773701
11.5450,-61.9076058,47.15647817,1433.470014
11.5500,-62.34866999,47.31279892,1432.153139
11.5550,-62.78449452,47.46803648,1430.823186
11.5600,-63.21506876,47.62335132,1429.480494
11.5650,-63.63991836,47.77835177,1428.125542
11.5700,-64.05985342,47.93213758,1426.759298
11.5750,-64.47455611,48.08395643,1425.382364
11.5800,-64.88330758,48.23326058,1423.994412
11.5850,-65.28672359,48.37956245,1422.59646
11.5900,-65.68633403,48.52282609,1421.189136
11.5950,-66.0815525,48.66390403,1419.773618
11.6000,-66.4737651,48.80344203,1418.349212
11.6050,-66.86101037,48.94147208,1416.916829
11.6100,-67.24468342,49.07836036,1415.47684
11.6150,-67.62364473,49.2114636,1414.028496
11.6200,-67.99663536,49.342419,1412.572166
11.6250,-68.36432796,49.47101342,1411.109222
11.6300,-68.72549499,49.59656964,1409.638743
11.6350,-69.0821126,49.71902367,1408.162016
11.6400,-69.43456222,49.8362135,1406.679197
11.6450,-69.78259879,49.94852448,1405.190633
11.6500,-70.12750945,50.0564147,1403.697182
11.6550,-70.46853467,50.16137906,1402.199751
11.6600,-70.80776561,50.26221797,1400.697992
11.6650,-71.14457208,50.35892571,1399.192305
11.6700,-71.48085354,50.45400326,1397.682744
11.6750,-71.81551081,50.54748196,1396.16946
11.6800,-72.14891908,50.64084977,1394.653068
11.6850,-72.48074019,50.73376077,1393.133485
11.6900,-72.81160626,50.82633598,1391.610503
11.6950,-73.13969743,50.92011717,1390.084389
11.7000,-73.46483527,51.0128324,1388.554904
11.7050,-73.78738015,51.10686689,1387.022378
11.7100,-74.10668508,51.20055474,1385.486393
11.7150,-74.42228384,51.29435671,1383.94746
11.7200,-74.73319612,51.3889678,1382.40575
11.7250,-75.03949605,51.48468925,1380.860313
11.7300,-75.34183613,51.58083573,1379.311022
11.7350,-75.6387904,51.67755793,1377.757955
11.7400,-75.93157437,51.77472542,1376.200591
11.7450,-76.2197287,51.87143387,1374.639348
11.7500,-76.50258932,51.96856134,1373.073835
11.7550,-76.78039784,52.06447191,1371.503789
11.7600,-77.05137354,52.1605571,1369.929996
11.7650,-77.31478008,52.25611542,1368.351968
11.7700,-77.57106522,52.3504751,1366.769437
11.7750,-77.81913032,52.44446738,1365.182706
11.7800,-78.05794695,52.53816586,1363.590573
11.7850,-78.28875681,52.63115057,1361.993736
11.7900,-78.51179038,52.7218984,1360.391832
11.7950,-78.72590772,52.81157122,1358.785909
11.8000,-78.93118095,52.8993426,1357.175179
11.8050,-79.12727307,52.98545093,1355.55913
11.8100,-79.31467708,53.07175768,1353.938666
11.8150,-79.49286934,53.15695234,1352.313068
11.8200,-79.66101455,53.24025532,1350.682523
11.8250,-79.81821855,53.32370093,1349.047234
11.8300,-79.96393557,53.40522576,1347.407095
11.8350,-80.09881269,53.48568812,1345.762234
11.8400,-80.2228015,53.56492305,1344.113467
11.8450,-80.33738854,53.64136992,1342.46114
11.8500,-80.44269486,53.71437372,1340.806193
11.8550,-80.53774878,53.78447255,1339.148808
11.8600,-80.62298725,53.85087598,1337.489303
11.8650,-80.69801904,53.91283832,1335.8289
11.8700,-80.76298704,53.97105056,1334.166031
11.8750,-80.81802694,54.0242714,1332.502265
11.8800,-80.86355446,54.07274866,1330.83773
11.8850,-80.89980731,54.11550231,1329.172475
11.8900,-80.92701798,54.15356222,1327.506559
11.8950,-80.94417048,54.18492467,1325.840463
11.9000,-80.9519804,54.21029596,1324.174132
11.9050,-80.95198285,54.22839741,1322.508861
11.9100,-80.94293794,54.23960973,1320.843998
11.9150,-80.92602219,54.24605199,1319.181148
11.9200,-80.90291349,54.24594945,1317.520559
11.9250,-80.87353624,54.24124756,1315.862691
11.9300,-80.83818287,54.23152666,1314.208276
11.9350,-80.79676399,54.21622567,1312.55643
11.9400,-80.7510491,54.19717665,1310.907409
11.9450,-80.70177006,54.17343566,1309.260798
11.9500,-80.64970187,54.14641085,1307.617427
11.9550,-80.59615255,54.11596058,1305.976645
11.9600,-80.5401427,54.08127634,1304.338738
11.9650,-80.48333481,54.04420072,1302.703455
11.9700,-80.4252151,54.00240893,1301.070901
11.9750,-80.36798242,53.95629827,1299.441071
11.9800,-80.30987139,53.90731702,1297.814113
11.9850,-80.25156112,53.85482991,1296.190494
11.9900,-80.19188271,53.80093235,1294.570084
11.9950,-80.13164305,53.74510774,1292.952237
12.0000,-80.07039144,53.6881652,1291.336598
12.0050,-80.01040239,53.62941173,1289.722349
12.0100,-79.95241237,53.5686921,1288.110108
12.0150,-79.89684297,53.50583095,1286.498533
12.0200,-79.84478002,53.44039976,1284.886437
12.0250,-79.79523704,53.37351799,1283.274339
12.0300,-79.74915119,53.30599935,1281.661906
12.0350,-79.70795402,53.2379353,1280.04864
12.0400,-79.67040492,53.16965727,1278.434019
12.0450,-79.63665996,53.10216227,1276.817726
12.0500,-79.60689361,53.03548906,1275.201055
12.0550,-79.57926142,52.97128773,1273.583421
12.0600,-79.55373791,52.90922131,1271.963383
12.0650,-79.52922481,52.84942771,1270.341169
12.0700,-79.50399906,52.79363005,1268.717146
12.0750,-79.47779275,52.74163755,1267.091988
12.0800,-79.45114055,52.6923851,1265.465892
12.0850,-79.4222138,52.64707823,1263.838485
12.0900,-79.38920819,52.60649299,1262.210383
12.0950,-79.35037749,52.56998767,1260.581085
12.1000,-79.30551332,52.53929452,1258.95147
12.1050,-79.25319533,52.51371442,1257.321177
12.1100,-79.19124339,52.49181923,1255.690534
12.1150,-79.1187776,52.47490159,1254.060274
12.1200,-79.03388178,52.46354522,1252.4305
12.1250,-78.93548871,52.45514427,1250.801797
12.1300,-78.82311847,52.45042908,1249.173656
12.1350,-78.69431763,52.44941863,1247.547402
12.1400,-78.54712408,52.45187132,1245.922321
12.1450,-78.38169017,52.45672941,1244.29814
12.1500,-78.1977853,52.46256037,1242.67439
12.1550,-77.99672927,52.46959805,1241.051739
12.1600,-77.77934854,52.47737775,1239.429087
12.1650,-77.54637015,52.4850578,1237.805852
12.1700,-77.29822477,52.49211992,1236.18323
12.1750,-77.03533106,52.49906224,1234.560418
12.1800,-76.76005994,52.50416218,1232.937475
12.1850,-76.47272424,52.50781036,1231.314948
12.1900,-76.17508303,52.50862771,1229.692926
12.1950,-75.86743527,52.50830412,1228.071635
12.2000,-75.55139896,52.50495424,1226.452855
12.2050,-75.22759978,52.49979611,1224.836003
12.2100,-74.89757871,52.49139954,1223.222901
12.2150,-74.56151728,52.48090935,1221.6137
12.2200,-74.21983986,52.46808668,1220.008914
12.2250,-73.87285913,52.45304993,1218.408028
12.2300,-73.52040304,52.43636476,1216.811158
12.2350,-73.16205248,52.41775781,1215.218598
12.2400,-72.79784653,52.3977624,1213.630907
12.2450,-72.42748376,52.37737927,1212.048758
12.2500,-72.04981602,52.35542932,1210.471293
12.2550,-71.66526604,52.3332632,1208.898491
12.2600,-71.27353821,52.31220295,1207.329284
12.2650,-70.87446616,52.2913881,1205.763633
12.2700,-70.46802771,52.27223847,1204.201611
12.2750,-70.05337816,52.2535849,1202.642364
12.2800,-69.63128922,52.23512844,1201.0852
12.2850,-69.20294683,52.21748969,1199.530083
12.2900,-68.76789078,52.19859791,1197.975459
12.2950,-68.32667873,52.17833881,1196.422372
12.3000,-67.87957875,52.15552475,1194.87
12.3050,-67.42686013,52.13094001,1193.318941
12.3100,-66.96947319,52.10476794,1191.768096
12.3150,-66.50826195,52.07680505,1190.217939
12.3200,-66.04312451,52.04719917,1188.668294
12.3250,-65.57490105,52.01678975,1187.119149
12.3300,-65.10234004,51.98561032,1185.571288
12.3350,-64.62600603,51.95269935,1184.024519
12.3400,-64.14586621,51.91797235,1182.47831
12.3450,-63.6623776,51.88111227,1180.933191
12.3500,-63.175126,51.8414748,1179.388634
12.3550,-62.68501533,51.79834065,1177.845455
12.3600,-62.19249037,51.75125849,1176.304972
12.3650,-61.69648618,51.69965257,1174.766835
12.3700,-61.19790658,51.64226661,1173.232308
12.3750,-60.69652088,51.57744421,1171.701105
12.3800,-60.19128892,51.50743487,1170.173296
12.3850,-59.68258651,51.43091368,1168.64906
12.3900,-59.17062816,51.34751877,1167.127999
12.3950,-58.65542697,51.25691069,1165.610577
12.4000,-58.1350022,51.15927026,1164.096533
12.4050,-57.6094631,51.05505738,1162.58714
12.4100,-57.07726536,50.94554826,1161.081534
12.4150,-56.53761687,50.8305642,1159.579234
12.4200,-55.99073994,50.70932977,1158.08046
12.4250,-55.43741104,50.58263874,1156.585432
12.4300,-54.87719559,50.45029283,1155.09486
12.4350,-54.31072321,50.31139322,1153.608441
12.4400,-53.73854367,50.16616039,1152.126883
12.4450,-53.16171305,50.01424438,1150.650921
12.4500,-52.58090087,49.85673656,1149.181309
12.4550,-51.99568465,49.69303319,1147.717551
12.4600,-51.40783468,49.52279508,1146.260967
12.4650,-50.81623026,49.34709062,1144.811193
12.4700,-50.22247818,49.16607677,1143.3682
12.4750,-49.62638497,48.97983288,1141.932114
12.4800,-49.02790747,48.78989838,1140.503115
12.4850,-48.42819528,48.59476378,1139.080742
12.4900,-47.8271789,48.39723323,1137.666038
12.4950,-47.22536205,48.19656279,1136.25803
12.5000,-46.62331856,47.99405806,1134.856698
12.5050,-46.02128864,47.78933984,1133.462725
12.5100,-45.41959055,47.58327293,1132.075472
12.5150,-44.81764127,47.37547586,1130.695365
12.5200,-44.21630142,47.16631648,1129.322443
12.5250,-43.61641678,46.95551484,1127.956908
12.5300,-43.01920881,46.74295303,1126.598425
12.5350,-42.42440556,46.53076828,1125.247388
12.5400,-41.83120039,46.31889329,1123.903855
12.5450,-41.24021264,46.10712965,1122.567987
12.5500,-40.65154308,45.89584993,1121.239138
12.5550,-40.06414379,45.68615725,1119.918124
12.5600,-39.47789935,45.47794187,1118.604611
12.5650,-38.89308919,45.27177554,1117.29868
12.5700,-38.30844244,45.06787786,1115.9996
12.5750,-37.72449231,44.8676234,1114.708049
12.5800,-37.14042554,44.67077136,1113.42341
12.5850,-36.55544437,44.4775685,1112.145709
12.5900,-35.97042605,44.28887991,1110.875353
12.5950,-35.38498542,44.10602098,1109.611542
12.6000,-34.79937541,43.92820476,1108.35446
12.6050,-34.21208078,43.75470684,1107.10324
12.6100,-33.62284319,43.5855124,1105.858917
12.6150,-33.03077037,43.41946673,1104.620951
12.6200,-32.43560115,43.25622988,1103.390093
12.6250,-31.83726024,43.09435416,1102.166031
12.6300,-31.2362554,42.93303665,1100.94918
12.6350,-30.63202354,42.77089516,1099.739473
12.6400,-30.02370089,42.60869225,1098.537883
12.6450,-29.41064232,42.44550026,1097.344592
12.6500,-28.79237727,42.28032667,1096.159545
12.6550,-28.16742255,42.11315854,1094.983005
12.6600,-27.53383272,41.94512563,1093.813964
12.6650,-26.89333318,41.77655877,1092.653435
12.6700,-26.24335532,41.60730238,1091.50008
12.6750,-25.58383313,41.43903803,1090.354022
12.6800,-24.91465628,41.27004204,1089.214917
12.6850,-24.23642271,41.10038448,1088.08272
12.6900,-23.54871676,40.93054608,1086.957834
12.6950,-22.85260322,40.76062031,1085.839092
12.7000,-22.14843859,40.59003667,1084.727005
12.7050,-21.43689724,40.41767115,1083.621114
12.7100,-20.71892593,40.24257044,1082.521729
12.7150,-19.99689453,40.06448165,1081.429692
12.7200,-19.27135584,39.88329682,1080.344645
12.7250,-18.54278662,39.69810525,1079.266762
12.7300,-17.81212311,39.50938216,1078.196112
12.7350,-17.07982566,39.31756271,1077.132312
12.7400,-16.34594284,39.12197625,1076.075075
12.7450,-15.61043995,38.92420177,1075.024484
12.7500,-14.87278418,38.72300835,1073.979681
12.7550,-14.13360769,38.51788192,1072.940937
12.7600,-13.39220498,38.30988843,1071.908414
12.7650,-12.64976746,38.09755188,1070.881973
12.7700,-11.90630049,37.88092541,1069.861802
12.7750,-11.16208021,37.66036693,1068.847889
12.7800,-10.41782233,37.43487947,1067.840494
12.7850,-9.673307064,37.20558235,1066.839611
12.7900,-8.928779605,36.97091415,1065.84574
12.7950,-8.185047059,36.7304544,1064.858936
12.8000,-7.4410162,36.48527091,1063.879348
12.8050,-6.69614357,36.23598232,1062.907117
12.8100,-5.949893632,35.98241688,1061.94172
12.8150,-5.202872532,35.72491952,1060.983295
12.8200,-4.453345884,35.46429515,1060.031501
12.8250,-3.700984485,35.2005758,1059.086214
12.8300,-2.945369647,34.93436208,1058.147369
12.8350,-2.186807804,34.66317687,1057.214769
12.8400,-1.425961473,34.38832033,1056.288186
12.8450,-0.6618941819,34.10904814,1055.366944
12.8500,0.1050909467,33.82632332,1054.451673
12.8550,0.8745069184,33.53824852,1053.541696
12.8600,1.645333177,33.24541489,1052.637844
12.8650,2.417816235,32.94668839,1051.740011
12.8700,3.192286836,32.64150483,1050.848292
12.8750,3.96727722,32.32938227,1049.963401
12.8800,4.742058598,32.01093939,1049.085848
12.8850,5.517057143,31.6852161,1048.21568
12.8900,6.292981465,31.35354559,1047.352694
12.8950,7.068564908,31.01472103,1046.497755
12.9000,7.84485942,30.66928564,1045.650182
12.9050,8.621378015,30.31713028,1044.810305
12.9100,9.39833398,29.95828852,1043.977814
12.9150,10.17519613,29.59443313,1043.153389
12.9200,10.95126685,29.22453261,1042.336568
12.9250,11.72693592,28.84948741,1041.527865
12.9300,12.50376866,28.46911194,1040.726459
12.9350,13.28165634,28.08418149,1039.932261
12.9400,14.06008902,27.69534886,1039.145743
12.9450,14.84054292,27.30231341,1038.366304
12.9500,15.62356183,26.90549271,1037.594028
12.9550,16.40875691,26.5049833,1036.828874
12.9600,17.19625365,26.09910424,1036.070885
12.9650,17.98715427,25.68906391,1035.319878
12.9700,18.78087168,25.27402893,1034.576075
12.9750,19.57861275,24.85347208,1033.83871
12.9800,20.37943837,24.42843578,1033.108726
12.9850,21.18420347,23.99765043,1032.385601
12.9900,21.99291196,23.56283858,1031.669702
12.9950,22.80588634,23.12260072,1030.96128
13.0000,23.62209545,22.67747717,1030.260303
13.0050,24.44174615,22.22720416,1029.566888
13.0100,25.26327624,21.77226261,1028.881502
13.0150,26.08869196,21.31156132,1028.203513
13.0200,26.91671029,20.84555162,1027.533486
13.0250,27.74781027,20.37506103,1026.871204
13.0300,28.58115227,19.90069205,1026.216952
13.0350,29.41726051,19.42207733,1025.570999
13.0400,30.2542332,18.93881105,1024.933811
13.0450,31.09257556,18.45111922,1024.305207
13.0500,31.93057315,17.95934405,1023.685635
13.0550,32.76899952,17.46415816,1023.07477
13.0600,33.60769458,16.96583365,1022.472685
13.0650,34.44553104,16.46495813,1021.879756
13.0700,35.28303404,15.96145942,1021.295553
13.0750,36.11953848,15.45642661,1020.720276
13.0800,36.95508185,14.9506032,1020.153758
13.0850,37.78952821,14.4441833,1019.596076
13.0900,38.62428101,13.93699432,1019.046076
13.0950,39.45777224,13.4294255,1018.504194
13.1000,40.28963993,12.92151197,1017.970276
13.1050,41.12010149,12.41329252,1017.443622
13.1100,41.94754392,11.90623106,1016.924842
13.1150,42.77240237,11.40037688,1016.413332
13.1200,43.59273128,10.89631141,1015.909343
13.1250,44.40897159,10.39360746,1015.412617
13.1300,45.22117837,9.89344002,1014.922868
13.1350,46.02825219,9.397217896,1014.440273
13.1400,46.83033522,8.904353441,1013.964469
13.1450,47.62664589,8.415413743,1013.495458
13.1500,48.41733231,7.931146285,1013.032934
13.1550,49.20296672,7.45186472,1012.576777
13.1600,49.98306808,6.977884491,1012.126784
13.1650,50.75774931,6.509757534,1011.682878
13.1700,51.52648079,6.048166304,1011.244769
13.1750,52.29049983,5.594424254,1010.811968
13.1800,53.04905187,5.147946031,1010.384355
13.1850,53.80224354,4.710657119,1009.961719
13.1900,54.55003976,4.282878433,1009.544222
13.1950,55.2946977,3.863697774,1009.130892
13.2000,56.03391182,3.45522483,1008.722639
13.2050,56.76745801,3.057280324,1008.31937
13.2100,57.49613047,2.669279666,1007.920659
13.2150,58.22113479,2.291658101,1007.526349
13.2200,58.94191243,1.924593722,1007.136672
13.2250,59.65968928,1.567602171,1006.751139
13.2300,60.37418396,1.221553004,1006.370014
13.2350,61.08493194,0.8867929344,1005.993706
13.2400,61.79231892,0.5622267593,1005.621845
13.2450,62.4972929,0.246458605,1005.254246
13.2500,63.19899658,-0.06019181009,1004.891182
13.2550,63.89923743,-0.3578580864,1004.532262
13.2600,64.59807686,-0.644951535,1004.177903
13.2650,65.29568354,-0.9244247462,1003.828039
13.2700,65.99194358,-1.195362747,1003.482864
13.2750,66.68775332,-1.456534582,1003.142713
13.2800,67.38381099,-1.710422599,1002.807329
13.2850,68.0797851,-1.955648225,1002.477247
13.2900,68.7762698,-2.194220518,1002.152206
13.2950,69.47264141,-2.425125736,1001.832647
13.3000,70.16906187,-2.64925236,1001.518829
13.3050,70.86423575,-2.866851863,1001.211193
13.3100,71.55740283,-3.077542816,1000.910236
13.3150,72.24668591,-3.281692141,1000.61633
13.3200,72.93140502,-3.479405314,1000.329934
13.3250,73.6093139,-3.670086111,1000.05174
13.3300,74.27873684,-3.854718754,999.7820716
13.3350,74.93798701,-4.034746371,999.5211788
13.3400,75.58528427,-4.208655443,999.2693541
13.3450,76.218931,-4.377337478,999.0268798
13.3500,76.83786844,-4.541685016,998.7938989
13.3550,77.44022758,-4.700272485,998.5705805
13.3600,78.02407481,-4.854900494,998.3570181
13.3650,78.58924699,-5.003685346,998.152978
13.3700,79.13365002,-5.147931936,997.9586842
13.3750,79.65840609,-5.288468413,997.7733873
13.3800,80.16282768,-5.4251305,997.5969249
13.3850,80.64599676,-5.556920198,997.429243
13.3900,81.10769977,-5.6828638,997.2703363
13.3950,81.54901966,-5.803183541,997.1196719
13.4000,81.97093397,-5.918610207,996.9766439
13.4050,82.37359872,-6.028317442,996.8411681
13.4100,82.75847304,-6.131997559,996.7126739
13.4150,83.12520864,-6.230041221,996.5911301
13.4200,83.47546648,-6.322842694,996.4759735
13.4250,83.81083889,-6.408834917,996.3668425
13.4300,84.13189666,-6.488519721,996.2635102
13.4350,84.4394223,-6.561742756,996.1657108
13.4400,84.73445208,-6.627807018,996.0732045
13.4450,85.01752306,-6.6866151,995.9859171
13.4500,85.28915042,-6.73894688,995.903564
13.4550,85.548737,-6.784036033,995.8263254
13.4600,85.79682752,-6.821044693,995.754195
13.4650,86.03237589,-6.850400708,995.6873108
13.4700,86.25470319,-6.872272119,995.625853
13.4750,86.46322281,-6.88712378,995.5699679
13.4800,86.65747444,-6.894913458,995.519625
13.4850,86.83604628,-6.895819979,995.4751014
13.4900,86.99626305,-6.891145611,995.436956
13.4950,87.13778497,-6.879910183,995.4052746
13.5000,87.25893703,-6.862560171,995.3804295
13.5050,87.35991851,-6.839673661,995.3622886
13.5100,87.43753583,-6.809943723,995.3516373
13.5150,87.49194622,-6.774689787,995.348223
13.5200,87.52350287,-6.734011611,995.3519419
13.5250,87.53003822,-6.687964119,995.3632882
13.5300,87.51100752,-6.636660564,995.3824087
13.5350,87.46766835,-6.581275078,995.4090388
13.5400,87.39993926,-6.520976218,995.4433509
13.5450,87.30645936,-6.454519642,995.4857375
13.5500,87.18915238,-6.38193564,995.535863
13.5550,87.04814212,-6.304023903,995.593731
13.5600,86.88318683,-6.220377546,995.6595509
13.5650,86.69638967,-6.130215166,995.7329864
13.5700,86.48828417,-6.033866046,995.814062
13.5750,86.25830051,-5.931989619,995.9029138
13.5800,86.00670248,-5.824120429,995.9997564
13.5850,85.73490789,-5.710682799,996.1042732
13.5900,85.44169239,-5.58968822,996.2170451
13.5950,85.12818882,-5.461959017,996.3378802
13.6000,84.79363205,-5.327399029,996.4672009
13.6050,84.43962315,-5.184956956,996.6049126
13.6100,84.06551402,-5.035216494,996.7512339
13.6150,83.6721326,-4.876814516,996.9062523
13.6200,83.25993809,-4.710206683,997.069956
13.6250,82.8282727,-4.53600044,997.2426877
13.6300,82.37914193,-4.353240801,997.4243829
13.6350,81.91029906,-4.161664246,997.6157074
13.6400,81.42423039,-3.962062356,997.816403
13.6450,80.92076403,-3.754098384,998.0265665
13.6500,80.39976868,-3.53694678,998.2466886
13.6550,79.85986738,-3.311137676,998.4773872
13.6600,79.30334424,-3.077007914,998.7183716
13.6650,78.72894948,-2.834675891,998.9705066
13.6700,78.13704348,-2.583513494,999.2338504
13.6750,77.52774903,-2.323673285,999.508854
13.6800,76.9006242,-2.055146334,999.796093
13.6850,76.25644991,-1.777400765,1000.095754
13.6900,75.59490281,-1.492438706,1000.40806
