type,name,time_units,begin_time,frequency,count,units
signal_3d,"Noraxon MyoMotion-Trajectories-Elbow RT","s",0.0000,200,5108,"mm"

time,x,y,z
0.0000,197.077936,-42.87186235,1233.044129
0.0050,197.0674951,-42.84993743,1233.045882
0.0100,197.0570525,-42.82801346,1233.047636
0.0150,197.0466081,-42.80609042,1233.049393
0.0200,197.0342993,-42.78234873,1233.051384
0.0250,197.0200086,-42.75690569,1233.053615
0.0300,197.0036462,-42.72990066,1233.056091
0.0350,196.9851578,-42.70148881,1233.05881
0.0400,196.9645335,-42.67183704,1233.061767
0.0450,196.9418163,-42.64112535,1233.064952
0.0500,196.9171024,-42.60955005,1233.068348
0.0550,196.8905296,-42.57732557,1233.071934
0.0600,196.862261,-42.54468335,1233.075686
0.0650,196.832474,-42.51186433,1233.079578
0.0700,196.8013603,-42.47910707,1233.083583
0.0750,196.7691286,-42.44664054,1233.087672
0.0800,196.7360047,-42.41468376,1233.091817
0.0850,196.7022292,-42.38344635,1233.095986
0.0900,196.6680552,-42.35312651,1233.100148
0.0950,196.6337478,-42.32390753,1233.104272
0.1000,196.5995778,-42.29595132,1233.108327
0.1050,196.5658127,-42.26938905,1233.112283
0.1100,196.5327095,-42.24431776,1233.116114
0.1150,196.5005117,-42.22080647,1233.119798
0.1200,196.4694504,-42.19890252,1233.123312
0.1250,196.4397451,-42.17863471,1233.126638
0.1300,196.4116022,-42.1600155,1233.129758
0.1350,196.3852072,-42.143041,1233.132658
0.1400,196.3607111,-42.12768877,1233.135326
0.1450,196.3382173,-42.11391457,1233.137757
0.1500,196.3177712,-42.10164933,1233.139952
0.1550,196.2566416,-42.07109586,1233.146596
0.1600,196.1969858,-42.0423414,1233.153062
0.1650,196.137781,-42.01575397,1233.159421
0.1700,196.0787929,-41.99068132,1233.165742
0.1750,196.0209258,-41.96748261,1233.171909
0.1800,195.9628204,-41.94647235,1233.178036
0.1850,195.9058034,-41.92652296,1233.184062
0.1900,195.848629,-41.90797972,1233.190076
0.1950,195.7910865,-41.89021006,1233.196142
0.2000,195.7348748,-41.87307374,1233.202099
0.2050,195.6788318,-41.85696635,1233.208023
0.2100,195.623234,-41.84179401,1233.213909
0.2150,195.5655412,-41.82802106,1233.219952
0.2200,195.5072216,-41.81514583,1233.226049
0.2250,195.4485883,-41.80316061,1233.232169
0.2300,195.3893141,-41.79310599,1233.238284
0.2350,195.3304392,-41.78404157,1233.244337
0.2400,195.2704959,-41.77651226,1233.250438
0.2450,195.2100449,-41.76960408,1233.256595
0.2500,195.1496831,-41.76489578,1233.262633
0.2550,195.0890538,-41.76150855,1233.268648
0.2600,195.0280964,-41.75903978,1233.274665
0.2650,194.9664773,-41.75712367,1233.280743
0.2700,194.9050899,-41.75733177,1233.286697
0.2750,194.8430337,-41.75830421,1233.292695
0.2800,194.7816664,-41.76159279,1233.298501
0.2850,194.7206264,-41.76580821,1233.304239
0.2900,194.6599939,-41.77199468,1233.309844
0.2950,194.6007046,-41.7801776,1233.315214
0.3000,194.5422558,-41.78938272,1233.320459
0.3050,194.4836811,-41.80060402,1233.325616
0.3100,194.4260834,-41.81285414,1233.330639
0.3150,194.3689417,-41.82659962,1233.335548
0.3200,194.3122258,-41.84130228,1233.340385
0.3250,194.2558864,-41.8573983,1233.345119
0.3300,194.1998617,-41.87580609,1233.3497
0.3350,194.1436301,-41.89497982,1233.354278
0.3400,194.087988,-41.9158139,1233.358716
0.3450,194.032423,-41.93725194,1233.363131
0.3500,193.977361,-41.96019399,1233.367432
0.3550,193.9216794,-41.98453607,1233.371722
0.3600,193.8669325,-42.00918259,1233.375925
0.3650,193.8121719,-42.03450502,1233.380112
0.3700,193.7579623,-42.06084917,1233.3842
0.3750,193.7042522,-42.08803152,1233.388208
0.3800,193.6517628,-42.11490739,1233.39212
0.3850,193.6003983,-42.14176592,1233.395939
0.3900,193.5493879,-42.1679682,1233.399788
0.3950,193.4994431,-42.19437429,1233.403533
0.4000,193.4501815,-42.22086514,1233.407212
0.4050,193.4022556,-42.24684957,1233.410813
0.4100,193.3553309,-42.27177393,1233.414384
0.4150,193.3099104,-42.29607456,1233.417848
0.4200,193.2656896,-42.31973809,1233.421244
0.4250,193.2222216,-42.34325664,1233.424586
0.4300,193.1799555,-42.36564794,1233.42789
0.4350,193.1392987,-42.38743526,1233.431072
0.4400,193.0997208,-42.40867402,1233.43419
0.4450,193.0610921,-42.42844065,1233.437317
0.4500,193.0237612,-42.4483016,1233.440316
0.4550,192.987082,-42.46785815,1233.443268
0.4600,192.9512811,-42.48670208,1233.446184
0.4650,192.9157969,-42.50544119,1233.449076
0.4700,192.8810438,-42.52417162,1233.451902
0.4750,192.8457921,-42.54246515,1233.454803
0.4800,192.8110413,-42.55939955,1233.457741
0.4850,192.7750969,-42.57747738,1233.460728
0.4900,192.7383058,-42.59473843,1233.463856
0.4950,192.7009763,-42.61217811,1233.467022
0.5000,192.6620377,-42.62979746,1233.470356
0.5050,192.6222409,-42.648082,1233.473739
0.5100,192.5814237,-42.66654905,1233.477208
0.5150,192.5409462,-42.68520963,1233.480646
0.5200,192.4995318,-42.70408771,1233.484163
0.5250,192.4567269,-42.72324883,1233.487796
0.5300,192.4133541,-42.74174008,1233.491529
0.5350,192.3682329,-42.76058713,1233.495424
0.5400,192.3229748,-42.77985306,1233.499299
0.5450,192.2776078,-42.79958011,1233.503155
0.5500,192.2311285,-42.8193116,1233.507128
0.5550,192.184144,-42.83959954,1233.511123
0.5600,192.1373202,-42.86001977,1233.515103
0.5650,192.0892307,-42.88212211,1233.519113
0.5700,192.0400739,-42.9045027,1233.523215
0.5750,191.9903999,-42.9272243,1233.52735
0.5800,191.9395492,-42.95086987,1233.531566
0.5850,191.8890401,-42.97599131,1233.535666
0.5900,191.8375556,-43.00216085,1233.539815
0.5950,191.7853188,-43.02994208,1233.543959
0.6000,191.7314659,-43.05938219,1233.548194
0.6050,191.6781894,-43.09004342,1233.552308
0.6100,191.6241552,-43.1219758,1233.556442
0.6150,191.5714866,-43.15571791,1233.560339
0.6200,191.5198733,-43.19181494,1233.563996
0.6250,191.4691703,-43.22884743,1233.567527
0.6300,191.4198874,-43.26683556,1233.570865
0.6350,191.3717823,-43.3062942,1233.57401
0.6400,191.3250282,-43.34722598,1233.576936
0.6450,191.2802627,-43.39009551,1233.579552
0.6500,191.2364909,-43.43336,1233.582056
0.6550,191.1952125,-43.47841789,1233.584206
0.6600,191.1554115,-43.52468232,1233.586149
0.6650,191.1165193,-43.57255306,1233.587912
0.6700,191.0792115,-43.62140942,1233.589458
0.6750,191.0433369,-43.67114977,1233.590813
0.6800,191.0085586,-43.72263609,1233.591967
0.6850,190.9736961,-43.77429984,1233.593141
0.6900,190.939858,-43.82702537,1233.594163
0.6950,190.9067005,-43.87925858,1233.595152
0.7000,190.8740065,-43.93143304,1233.596111
0.7050,190.8415453,-43.98449022,1233.597006
0.7100,190.80913,-44.03789437,1233.597897
0.7150,190.7762371,-44.09261289,1233.598775
0.7200,190.7432376,-44.1471272,1233.599696
0.7250,190.7101567,-44.20141281,1233.600665
0.7300,190.6770096,-44.25643073,1233.601618
0.7350,190.6438574,-44.31115698,1233.602614
0.7400,190.6108042,-44.36604285,1233.603612
0.7450,190.5784838,-44.42104962,1233.604544
0.7500,190.5465475,-44.47565057,1233.605484
0.7550,190.5150722,-44.52983607,1233.606422
0.7600,190.4838141,-44.58412018,1233.607334
0.7650,190.4543131,-44.63801068,1233.608095
0.7700,190.425753,-44.69204497,1233.608751
0.7750,190.3973193,-44.74578116,1233.609426
0.7800,190.3701014,-44.80026036,1233.609938
0.7850,190.3442773,-44.85454899,1233.610324
0.7900,190.3204675,-44.90919659,1233.610474
0.7950,190.2977833,-44.96423575,1233.610484
0.8000,190.2768233,-45.01920019,1233.610314
0.8050,190.2572545,-45.07312405,1233.610052
0.8100,190.2386196,-45.12700174,1233.609703
0.8150,190.2214442,-45.18132847,1233.609167
0.8200,190.205916,-45.234643,1233.608512
0.8250,190.191948,-45.28744846,1233.60772
0.8300,190.1791248,-45.33929242,1233.606853
0.8350,190.1675858,-45.39071617,1233.605871
0.8400,190.1561307,-45.44175541,1233.6049
0.8450,190.1463826,-45.49245822,1233.603762
0.8500,190.1377134,-45.5428676,1233.602518
0.8550,190.130603,-45.59251551,1233.601139
0.8600,190.1243777,-45.64240424,1233.59965
0.8650,190.1203557,-45.69104673,1233.597988
0.8700,190.1175445,-45.73945926,1233.596209
0.8750,190.1158025,-45.78864931,1233.594272
0.8800,190.1148677,-45.83664985,1233.592301
0.8850,190.1141519,-45.88446145,1233.590317
0.8900,190.1135173,-45.93208974,1233.588316
0.8950,190.1127136,-45.97852339,1233.586388
0.9000,190.1132107,-46.02522311,1233.584294
0.9050,190.112963,-46.07117801,1233.58231
0.9100,190.1127577,-46.11681066,1233.580333
0.9150,190.1110913,-46.16157406,1233.578557
0.9200,190.1084896,-46.20489144,1233.576939
0.9250,190.1058387,-46.24811952,1233.575317
0.9300,190.1032829,-46.29015692,1233.573739
0.9350,190.0997835,-46.33087384,1233.572316
0.9400,190.0959243,-46.37013572,1233.571005
0.9450,190.091804,-46.40831208,1233.569772
0.9500,190.0870762,-46.44530797,1233.568653
0.9550,190.0807755,-46.4800447,1233.567814
0.9600,190.0734903,-46.51344321,1233.567133
0.9650,190.0666721,-46.54494525,1233.566496
0.9700,190.0589998,-46.57505292,1233.566013
0.9750,190.0510079,-46.60328866,1233.565651
0.9800,190.0425988,-46.62918694,1233.565453
0.9850,190.0342657,-46.6537913,1233.565291
0.9900,190.0249756,-46.67717374,1233.565279
0.9950,190.0156629,-46.69939404,1233.565322
1.0000,190.004678,-46.72005338,1233.565625
1.0050,189.9929983,-46.73972921,1233.566052
1.0100,189.9799239,-46.75801442,1233.566696
1.0150,189.9657335,-46.77448218,1233.567548
1.0200,189.9488911,-46.79020076,1233.56872
1.0250,189.9312384,-46.8051978,1233.570006
1.0300,189.9116969,-46.81901878,1233.571559
1.0350,189.8902327,-46.83217689,1233.573351
1.0400,189.8667422,-46.84417973,1233.575423
1.0450,189.8406423,-46.85551531,1233.577819
1.0500,189.812433,-46.86568015,1233.580504
1.0550,189.7820372,-46.87467374,1233.583482
1.0600,189.7488665,-46.88249621,1233.586844
1.0650,189.7124671,-46.88966459,1233.590606
1.0700,189.6737621,-46.89519454,1233.59471
1.0750,189.6331168,-46.89958368,1233.599086
1.0800,189.5900851,-46.90333929,1233.603751
1.0850,189.5455928,-46.90594555,1233.608627
1.0900,189.4996815,-46.90736321,1233.613721
1.0950,189.4528806,-46.9080305,1233.618944
1.1000,189.4047446,-46.90787429,1233.624335
1.1050,189.3563248,-46.90728279,1233.629774
1.1100,189.3072597,-46.90715807,1233.635252
1.1150,189.2580186,-46.90641305,1233.640761
1.1200,189.2086648,-46.90644626,1233.646231
1.1250,189.1598242,-46.90669725,1233.651619
1.1300,189.1104687,-46.90762184,1233.657021
1.1350,189.061271,-46.90819829,1233.662411
1.1400,189.0129177,-46.90890254,1233.667691
1.1450,188.9644524,-46.90974535,1233.672969
1.1500,188.9167508,-46.91124665,1233.678118
1.1550,188.86842,-46.91296048,1233.683317
1.1600,188.8207517,-46.9139499,1233.688455
1.1650,188.7727441,-46.91481726,1233.693615
1.1700,188.7254992,-46.9156473,1233.698667
1.1750,188.6785106,-46.91560019,1233.703703
1.1800,188.6326891,-46.91631152,1233.70854
1.1850,188.5879283,-46.91697453,1233.713212
1.1900,188.5456018,-46.9187683,1233.717516
1.1950,188.5061687,-46.92142811,1233.721393
1.2000,188.4690952,-46.92472004,1233.724906
1.2050,188.4352573,-46.93038219,1233.727871
1.2100,188.4051909,-46.93869776,1233.730191
1.2150,188.3801358,-46.94942994,1233.731731
1.2200,188.3598923,-46.96284627,1233.732523
1.2250,188.344685,-46.98016958,1233.732459
1.2300,188.3330691,-47.00159521,1233.731709
1.2350,188.3260899,-47.02675147,1233.730179
1.2400,188.3240365,-47.05569642,1233.727834
1.2450,188.3260549,-47.08891762,1233.724752
1.2500,188.3332791,-47.12581273,1233.720843
1.2550,188.344701,-47.16621026,1233.716238
1.2600,188.3591641,-47.20983812,1233.711098
1.2650,188.3749949,-47.25587755,1233.705654
1.2700,188.39137,-47.30345366,1233.700065
1.2750,188.4073658,-47.35265907,1233.694431
1.2800,188.4218049,-47.4036075,1233.688889
1.2850,188.4353131,-47.4559076,1233.683387
1.2900,188.4465646,-47.50972621,1233.678071
1.2950,188.4533944,-47.56530264,1233.67318
1.3000,188.4561453,-47.62292732,1233.668656
1.3050,188.4541525,-47.68150093,1233.664629
1.3100,188.4465721,-47.74101597,1233.661196
1.3150,188.4331822,-47.80203944,1233.658363
1.3200,188.4162044,-47.86418418,1233.655876
1.3250,188.3939708,-47.92764527,1233.653926
1.3300,188.3670008,-47.99312169,1233.65241
1.3350,188.3348833,-48.0608351,1233.651372
1.3400,188.2980505,-48.12999726,1233.650797
1.3450,188.2567505,-48.20229137,1233.650565
1.3500,188.2115309,-48.27640884,1233.650677
1.3550,188.1627439,-48.35249029,1233.651097
1.3600,188.1115229,-48.43066363,1233.651664
1.3650,188.0575088,-48.51103457,1233.652418
1.3700,188.000327,-48.59368965,1233.653399
1.3750,187.9412675,-48.67916993,1233.654434
1.3800,187.8799695,-48.76702874,1233.655577
1.3850,187.8156616,-48.85731507,1233.656914
1.3900,187.7479805,-48.95057263,1233.658446
1.3950,187.6777115,-49.0453459,1233.660146
1.4000,187.6040692,-49.14318899,1233.662043
1.4050,187.5278116,-49.24417058,1233.66402
1.4100,187.44924,-49.34592845,1233.666129
1.4150,187.3679572,-49.45055631,1233.668344
1.4200,187.2843313,-49.55718928,1233.670642
1.4250,187.1983528,-49.66543504,1233.673029
1.4300,187.1112522,-49.77583477,1233.675327
1.4350,187.0235121,-49.88935533,1233.677425
1.4400,186.9357405,-50.00492008,1233.679286
1.4450,186.8481455,-50.12188063,1233.680903
1.4500,186.7632175,-50.24000539,1233.681973
1.4550,186.6807678,-50.35906792,1233.682518
1.4600,186.600394,-50.47885034,1233.682589
1.4650,186.5239868,-50.5995912,1233.681949
1.4700,186.4525231,-50.72156861,1233.680441
1.4750,186.3863257,-50.8435929,1233.678062
1.4800,186.3256486,-50.96549873,1233.674777
1.4850,186.2710875,-51.08715725,1233.670507
1.4900,186.2217275,-51.20753479,1233.665383
1.4950,186.1767111,-51.32763195,1233.659461
1.5000,186.1362751,-51.44651003,1233.652733
1.5050,186.100342,-51.56478824,1233.645166
1.5100,186.0680743,-51.68116263,1233.636904
1.5150,186.0381811,-51.79732984,1233.628024
1.5200,186.0113016,-51.91294996,1233.618438
1.5250,185.9850251,-52.02774409,1233.608448
1.5300,185.9604278,-52.14132119,1233.597921
1.5350,185.9373265,-52.25477073,1233.586827
1.5400,185.9139163,-52.36719277,1233.575409
1.5450,185.8901044,-52.47759118,1233.563706
1.5500,185.8644068,-52.58692653,1233.551869
1.5550,185.8377016,-52.6945633,1233.539802
1.5600,185.8094859,-52.80083405,1233.527548
1.5650,185.7793564,-52.90553919,1233.51516
1.5700,185.7467152,-53.00894417,1233.502711
1.5750,185.7117454,-53.11029245,1233.490187
1.5800,185.6742575,-53.20932807,1233.477625
1.5850,185.6318169,-53.30535452,1233.46536
1.5900,185.5854482,-53.39711726,1233.453322
1.5950,185.5346601,-53.48443581,1233.441569
1.6000,185.4798859,-53.56667171,1233.430081
1.6050,185.4192551,-53.64427791,1233.419087
1.6100,185.3532508,-53.71670471,1233.40854
1.6150,185.2812843,-53.78395611,1233.398519
1.6200,185.201912,-53.84609275,1233.389219
1.6250,185.113878,-53.90318792,1233.380798
1.6300,185.017628,-53.95480339,1233.373221
1.6350,184.9134112,-54.0009995,1233.366471
1.6400,184.8005613,-54.04287859,1233.360599
1.6450,184.6793304,-54.07852219,1233.355652
1.6500,184.5487652,-54.11050687,1233.351691
1.6550,184.4087795,-54.13840575,1233.348753
1.6600,184.2596345,-54.16126084,1233.346844
1.6650,184.1019867,-54.17908324,1233.345898
1.6700,183.9372534,-54.19183138,1233.345752
1.6750,183.7652979,-54.19949362,1233.346432
1.6800,183.5869549,-54.20152879,1233.347871
1.6850,183.4022934,-54.19790286,1233.350075
1.6900,183.212805,-54.18901557,1233.352861
1.6950,183.0170633,-54.17588208,1233.356419
1.7000,182.8173703,-54.15786856,1233.360461
1.7050,182.6128947,-54.13395096,1233.365176
1.7100,182.4055746,-54.10593329,1233.370264
1.7150,182.1952536,-54.07173612,1233.375819
1.7200,181.9824737,-54.03172264,1233.381779
1.7250,181.7680831,-53.98622098,1233.388047
1.7300,181.553386,-53.93457526,1233.394463
1.7350,181.3387336,-53.87663969,1233.401009
1.7400,181.1245533,-53.81228565,1233.407645
1.7450,180.9114916,-53.7423634,1233.414259
1.7500,180.698938,-53.66633755,1233.420972
1.7550,180.4891242,-53.58507123,1233.427458
1.7600,180.2832668,-53.49900408,1233.433521
1.7650,180.0806158,-53.40719814,1233.439309
1.7700,179.8813419,-53.30974671,1233.444806
1.7750,179.6861133,-53.20721673,1233.449909
1.7800,179.4951537,-53.10023167,1233.454561
1.7850,179.3082141,-52.98898595,1233.458806
1.7900,179.1270267,-52.87358202,1233.462382
1.7950,178.9516391,-52.75427547,1233.465279
1.8000,178.7823641,-52.63234739,1233.467408
1.8050,178.6197134,-52.50613233,1233.468757
1.8100,178.4638494,-52.37752722,1233.469227
1.8150,178.315409,-52.24693954,1233.468712
1.8200,178.1734534,-52.11439843,1233.467344
1.8250,178.0398264,-51.97872113,1233.464897
1.8300,177.9143581,-51.84183012,1233.461302
1.8350,177.7966654,-51.70455231,1233.456596
1.8400,177.6873674,-51.56761189,1233.450664
1.8450,177.5862507,-51.43068923,1233.443541
1.8500,177.4930151,-51.29441839,1233.435249
1.8550,177.4086006,-51.15877322,1233.425643
1.8600,177.3330792,-51.02325428,1233.414728
1.8650,177.2671462,-50.88877046,1233.402361
1.8700,177.2116313,-50.75470074,1233.388428
1.8750,177.1654083,-50.62103656,1233.373123
1.8800,177.1292445,-50.48806499,1233.356295
1.8850,177.1034871,-50.35562649,1233.337912
1.8900,177.0875574,-50.22358167,1233.31805
1.8950,177.0816356,-50.09171884,1233.296705
1.9000,177.0839904,-49.96044055,1233.274113
1.9050,177.0955221,-49.82846274,1233.250189
1.9100,177.1146568,-49.69665596,1233.22515
1.9150,177.1405585,-49.56481678,1233.199128
1.9200,177.1735772,-49.43269398,1233.172082
1.9250,177.2130623,-49.30105449,1233.144085
1.9300,177.2579662,-49.16921932,1233.11534
1.9350,177.3072626,-49.03703311,1233.086
1.9400,177.3608674,-48.90422804,1233.056123
1.9450,177.4172959,-48.77122438,1233.025914
1.9500,177.4770277,-48.63730882,1232.995325
1.9550,177.5397907,-48.50289506,1232.964377
1.9600,177.6045914,-48.36847751,1232.933209
1.9650,177.671363,-48.2345036,1232.901819
1.9700,177.7383736,-48.10061999,1232.8705
1.9750,177.8055023,-47.96739865,1232.839241
1.9800,177.8721981,-47.833437,1232.808204
1.9850,177.9388939,-47.69978992,1232.777281
1.9900,178.0046309,-47.56608929,1232.746633
1.9950,178.0714184,-47.43225097,1232.715961
2.0000,178.1374745,-47.29748177,1232.685576
2.0050,178.2037195,-47.16272515,1232.655305
2.0100,178.269778,-47.02660619,1232.625256
2.0150,178.3357058,-46.89063458,1232.595364
2.0200,178.4026493,-46.75423236,1232.565455
2.0250,178.4706501,-46.61740998,1232.535518
2.0300,178.5392793,-46.48068248,1232.505609
2.0350,178.6081735,-46.34407146,1232.475777
2.0400,178.6767739,-46.20807883,1232.446075
2.0450,178.7448015,-46.07172763,1232.416607
2.0500,178.8118654,-45.93603551,1232.387367
2.0550,178.877469,-45.8005506,1232.358435
2.0600,178.9413415,-45.66580492,1232.329857
2.0650,179.0034951,-45.53176143,1232.301612
2.0700,179.0632044,-45.39795075,1232.273854
2.0750,179.1205917,-45.26534296,1232.246504
2.0800,179.1751331,-45.13345244,1232.219662
2.0850,179.2274415,-45.00219744,1232.193242
2.0900,179.2773689,-44.8710834,1232.167294
2.0950,179.3259942,-44.73901506,1232.14172
2.1000,179.3733604,-44.60597701,1232.116498
2.1050,179.4190415,-44.47302308,1232.091636
2.1100,179.4641364,-44.34059734,1232.066975
2.1150,179.508191,-44.20683582,1232.042673
2.1200,179.5514041,-44.07285888,1232.01865
2.1250,179.5936126,-43.94036357,1231.99483
2.1300,179.6347003,-43.80858012,1231.971287
2.1350,179.6744893,-43.67682091,1231.948074
2.1400,179.7141584,-43.54527048,1231.92499
2.1450,179.7528162,-43.41481711,1231.902114
2.1500,179.7921916,-43.28509538,1231.879194
2.1550,179.8309968,-43.15649734,1231.856399
2.1600,179.8691726,-43.02980458,1231.833715
2.1650,179.9066515,-42.90526178,1231.811116
2.1700,179.9428822,-42.7826277,1231.788697
2.1750,179.9788911,-42.66249486,1231.766264
2.1800,180.0123613,-42.54370016,1231.744241
2.1850,180.0438431,-42.42726203,1231.722468
2.1900,180.0728241,-42.31218565,1231.701057
2.1950,180.0993002,-42.19839929,1231.680012
2.2000,180.1246248,-42.0861072,1231.659126
2.2050,180.1467553,-41.97530435,1231.63869
2.2100,180.1674433,-41.8660542,1231.618461
2.2150,180.1868952,-41.7570521,1231.598496
2.2200,180.203855,-41.64859418,1231.578969
2.2250,180.2191557,-41.5383055,1231.559899
2.2300,180.2320381,-41.42742901,1231.541357
2.2350,180.2423877,-41.31524002,1231.523408
2.2400,180.250061,-41.20152729,1231.506073
2.2450,180.255247,-41.0856106,1231.48938
2.2500,180.2571307,-40.96596653,1231.473542
2.2550,180.2558792,-40.8429882,1231.458533
2.2600,180.251811,-40.71807371,1231.444231
2.2650,180.2424689,-40.58946251,1231.431135
2.2700,180.2289455,-40.45852698,1231.418982
2.2750,180.2103747,-40.32388231,1231.408013
2.2800,180.1873427,-40.18645258,1231.398084
2.2850,180.1596064,-40.04531033,1231.389281
2.2900,180.1274603,-39.90047441,1231.38159
2.2950,180.0906444,-39.75194234,1231.375053
2.3000,180.0495526,-39.59919731,1231.369658
2.3050,180.0030748,-39.44182362,1231.365583
2.3100,179.951429,-39.28122047,1231.362724
2.3150,179.8945846,-39.11581423,1231.361184
2.3200,179.8317149,-38.94658491,1231.361044
2.3250,179.7631045,-38.77244266,1231.362348
2.3300,179.6889349,-38.59376056,1231.365043
2.3350,179.6090454,-38.40950372,1231.369237
2.3400,179.5253032,-38.21939884,1231.374688
2.3450,179.4375188,-38.0233598,1231.381449
2.3500,179.3454426,-37.82079274,1231.389619
2.3550,179.2494773,-37.61056732,1231.399249
2.3600,179.1507575,-37.39187247,1231.41023
2.3650,179.04976,-37.16554544,1231.422453
2.3700,178.9467941,-36.93141833,1231.435906
2.3750,178.8419933,-36.68778301,1231.450735
2.3800,178.7358033,-36.43448392,1231.466916
2.3850,178.6281127,-36.17236919,1231.48443
2.3900,178.5182595,-35.90088545,1231.503469
2.3950,178.4056892,-35.62148911,1231.524016
2.4000,178.2915179,-35.33253417,1231.546077
2.4050,178.1760125,-35.0344198,1231.569601
2.4100,178.0592003,-34.72508438,1231.59477
2.4150,177.9412024,-34.4049999,1231.621552
2.4200,177.822568,-34.07506828,1231.649805
2.4250,177.7016762,-33.73339843,1231.679963
2.4300,177.580249,-33.38185237,1231.711629
2.4350,177.4580592,-33.01990405,1231.744912
2.4400,177.3340635,-32.64812977,1231.779982
2.4450,177.2092812,-32.2674014,1231.816635
2.4500,177.0823818,-31.87725083,1231.855164
2.4550,176.953773,-31.4796057,1231.895367
2.4600,176.8234096,-31.0728843,1231.937395
2.4650,176.6900818,-30.6570306,1231.981494
2.4700,176.5540127,-30.23294225,1232.027573
2.4750,176.4134157,-29.80059255,1232.075958
2.4800,176.2694717,-29.36020098,1232.126472
2.4850,176.1216996,-28.91061681,1232.179342
2.4900,175.9699767,-28.45271121,1232.234558
2.4950,175.8138609,-27.98590005,1232.292294
2.5000,175.6527917,-27.51025746,1232.352677
2.5050,175.4874701,-27.02663936,1232.415563
2.5100,175.3165182,-26.53380869,1232.481336
2.5150,175.1403316,-26.03232529,1232.549914
2.5200,174.9587109,-25.52334284,1232.621271
2.5250,174.7712697,-25.00771456,1232.695428
2.5300,174.5785345,-24.48465319,1232.772366
2.5350,174.3794982,-23.95558029,1232.85214
2.5400,174.1748108,-23.42142541,1232.934555
2.5450,173.9645229,-22.8827068,1233.019589
2.5500,173.7481232,-22.34108269,1233.107175
2.5550,173.5254696,-21.79682365,1233.197301
2.5600,173.2963988,-21.24974243,1233.290012
2.5650,173.0618714,-20.70213341,1233.384882
2.5700,172.8219079,-20.15485044,1233.481834
2.5750,172.5774346,-19.60917409,1233.580541
2.5800,172.3260135,-19.06615604,1233.681261
2.5850,172.0681575,-18.52692608,1233.783787
2.5900,171.8032754,-17.99157427,1233.888183
2.5950,171.53097,-17.45957142,1233.994593
2.6000,171.252548,-16.93300924,1234.102529
2.6050,170.9681471,-16.41245214,1234.211861
2.6100,170.6778708,-15.89591451,1234.322838
2.6150,170.3815522,-15.38520431,1234.43523
2.6200,170.0800017,-14.87907468,1234.549054
2.6250,169.7720835,-14.37789298,1234.664459
2.6300,169.4592761,-13.8802319,1234.781376
2.6350,169.1418716,-13.38671936,1234.899664
2.6400,168.8197304,-12.89660676,1235.019461
2.6450,168.4936124,-12.41044989,1235.140532
2.6500,168.164472,-11.92742048,1235.262815
2.6550,167.8330446,-11.44800181,1235.386158
2.6600,167.4995428,-10.97189817,1235.510526
2.6650,167.1645396,-10.49820582,1235.635953
2.6700,166.8275938,-10.02712404,1235.762483
2.6750,166.4889226,-9.558299405,1235.890129
2.6800,166.1489754,-9.092277526,1236.018682
2.6850,165.8067383,-8.627821663,1236.14853
2.6900,165.4629314,-8.16590606,1236.279373
2.6950,165.1178642,-7.705637689,1236.411295
2.7000,164.7706907,-7.248151322,1236.544261
2.7050,164.4206662,-6.792165762,1236.678627
2.7100,164.067996,-6.338821642,1236.81418
2.7150,163.7124883,-5.888731054,1236.95087
2.7200,163.3540297,-5.440050429,1237.089017
2.7250,162.9941785,-4.99339986,1237.228223
2.7300,162.6320886,-4.54706756,1237.368955
2.7350,162.2682697,-4.102352314,1237.510914
2.7400,161.9021995,-3.657729946,1237.654449
2.7450,161.5350805,-3.21152368,1237.799611
2.7500,161.1655683,-2.765350605,1237.946417
2.7550,160.7939598,-2.317709182,1238.09506
2.7600,160.4207835,-1.868496418,1238.245492
2.7650,160.0462205,-1.418836179,1238.397486
2.7700,159.6692761,-0.9683917314,1238.551322
2.7750,159.2906832,-0.5172236835,1238.70686
2.7800,158.9110396,-0.06600575853,1238.863843
2.7850,158.5298942,0.3840386831,1239.022171
2.7900,158.1462185,0.833536483,1239.182172
2.7950,157.7604721,1.281712086,1239.343599
2.8000,157.372949,1.728819625,1239.506447
2.8050,156.9832946,2.175042847,1239.670801
2.8100,156.5912799,2.618544831,1239.836361
2.8150,156.1966433,3.059512684,1240.003246
2.8200,155.7984577,3.498017981,1240.17162
2.8250,155.3966926,3.934490157,1240.341556
2.8300,154.9910996,4.368206127,1240.513022
2.8350,154.5833887,4.799307461,1240.685657
2.8400,154.172088,5.22768082,1240.85981
2.8450,153.7568957,5.653806415,1241.035591
2.8500,153.3378536,6.077858004,1241.213052
2.8550,152.9158981,6.498586038,1241.391721
2.8600,152.4905436,6.917018818,1241.571925
2.8650,152.0620848,7.332862071,1241.753514
2.8700,151.6291202,7.746539488,1241.936924
2.8750,151.1917731,8.15762135,1242.122027
2.8800,150.7506885,8.565316094,1242.308546
2.8850,150.3051872,8.96913297,1242.496555
2.8900,149.8561724,9.369597609,1242.685934
2.8950,149.4023956,9.764672431,1242.87656
2.9000,148.9442544,10.15478691,1243.068456
2.9050,148.4811831,10.54127691,1243.262023
2.9100,148.0129858,10.92318317,1243.457113
2.9150,147.5405159,11.30240778,1243.653907
2.9200,147.0641697,11.67800603,1243.852096
2.9250,146.5847567,12.0495768,1244.051386
2.9300,146.1012646,12.41759934,1244.252118
2.9350,145.6160391,12.78227464,1244.45375
2.9400,145.1279435,13.14403223,1244.656678
2.9450,144.6387301,13.50254079,1244.860363
2.9500,144.1476682,13.85772565,1245.064991
2.9550,143.6550996,14.20944986,1245.270401
2.9600,143.1606088,14.55663192,1245.476514
2.9650,142.6642863,14.89928769,1245.683304
2.9700,142.1676113,15.2383927,1245.890603
2.9750,141.6707368,15.57227056,1246.097963
2.9800,141.1735514,15.9018984,1246.305649
2.9850,140.6787058,16.22741112,1246.512966
2.9900,140.1858938,16.54799025,1246.719791
2.9950,139.6950863,16.86325388,1246.926047
3.0000,139.2063052,17.17401365,1247.131895
3.0050,138.7203957,17.47887124,1247.336761
3.0100,138.2368434,17.77826965,1247.540867
3.0150,137.7558501,18.07240677,1247.744189
3.0200,137.2771931,18.36133836,1247.946782
3.0250,136.8003046,18.64370581,1248.148447
3.0300,136.3249792,18.92076993,1248.349519
3.0350,135.8499938,19.19279907,1248.550419
3.0400,135.3770633,19.45870083,1248.750351
3.0450,134.9053356,19.71867344,1248.949587
3.0500,134.4358342,19.9736206,1249.148035
3.0550,133.9688934,20.22475759,1249.345864
3.0600,133.5045662,20.47100172,1249.54274
3.0650,133.0437469,20.71435674,1249.73888
3.0700,132.5873588,20.9547666,1249.933996
3.0750,132.1358943,21.19230323,1250.127912
3.0800,131.6884606,21.42649174,1250.320794
3.0850,131.2464212,21.65890443,1250.512559
3.0900,130.8098066,21.88691593,1250.702553
3.0950,130.3779063,22.11025381,1250.890902
3.1000,129.9493611,22.32854161,1251.07787
3.1050,129.5243043,22.54056713,1251.263119
3.1100,129.1030877,22.74663726,1251.446579
3.1150,128.6836515,22.94537288,1251.628493
3.1200,128.2671331,23.13688406,1251.808521
3.1250,127.8519175,23.31897329,1251.986622
3.1300,127.4380784,23.49281274,1252.162999
3.1350,127.0242273,23.65894026,1252.338193
3.1400,126.6103663,23.81810406,1252.512348
3.1450,126.1975072,23.96907818,1252.684816
3.1500,125.7848466,24.11328225,1252.856158
3.1550,125.3728499,24.25226812,1253.026626
3.1600,124.9613192,24.38650365,1253.196393
3.1650,124.5510304,24.51639503,1253.365333
3.1700,124.142761,24.64321666,1253.533454
3.1750,123.7362944,24.76912806,1253.701446
3.1800,123.3341749,24.89581632,1253.868873
3.1850,122.9370442,25.02491589,1254.035907
3.1900,122.5449177,25.15691017,1254.202702
3.1950,122.1604174,25.2938385,1254.368917
3.2000,121.7824734,25.43696444,1254.535217
3.2050,121.4137381,25.58736055,1254.701017
3.2100,121.0537168,25.74517224,1254.86649
3.2150,120.702651,25.91018545,1255.031509
3.2200,120.360175,26.0848289,1255.196822
3.2250,120.027551,26.26960097,1255.362124
3.2300,119.7054243,26.46434774,1255.527173
3.2350,119.3921879,26.67007584,1255.692769
3.2400,119.0886449,26.88629882,1255.858478
3.2450,118.7945072,27.11446054,1256.024788
3.2500,118.5103103,27.35442563,1256.191497
3.2550,118.2360854,27.60635952,1256.358614
3.2600,117.9706624,27.87115239,1256.526772
3.2650,117.7141341,28.14877886,1256.695938
3.2700,117.4659144,28.43750688,1256.865847
3.2750,117.2258167,28.73751822,1257.036628
3.2800,116.9933065,29.04805704,1257.208268
3.2850,116.7678433,29.36791819,1257.380619
3.2900,116.5489076,29.69727906,1257.553913
3.2950,116.3371094,30.03503171,1257.727625
3.3000,116.131597,30.37955977,1257.901615
3.3050,115.9319752,30.73008086,1258.075814
3.3100,115.7386534,31.08529665,1258.249711
3.3150,115.5513058,31.44455885,1258.423251
3.3200,115.3698678,31.80590036,1258.595886
3.3250,115.19404,32.16841235,1258.767493
3.3300,115.0222771,32.53088987,1258.938247
3.3350,114.856296,32.89258225,1259.107297
3.3400,114.6940554,33.25254982,1259.27511
3.3450,114.5355641,33.60931564,1259.441214
3.3500,114.3810397,33.96186268,1259.605198
3.3550,114.2284852,34.3090402,1259.767426
3.3600,114.077398,34.65022007,1259.927878
3.3650,113.9277163,34.98428815,1260.086209
3.3700,113.7787112,35.3111064,1260.242564
3.3750,113.6295561,35.62982262,1260.396989
3.3800,113.4815192,35.94037489,1260.548931
3.3850,113.333078,36.24148705,1260.698546
3.3900,113.1848555,36.53477553,1260.846037
3.3950,113.0364891,36.81972805,1260.991341
3.4000,112.8880937,37.09564305,1261.134212
3.4050,112.7393463,37.36448582,1261.275298
3.4100,112.590003,37.62473242,1261.4142
3.4150,112.4417177,37.87798295,1261.550758
3.4200,112.2936179,38.1242738,1261.685311
3.4250,112.1469394,38.36481217,1261.817713
3.4300,112.0001216,38.59872283,1261.948285
3.4350,111.8535697,38.82695914,1262.07716
3.4400,111.708344,39.05070628,1262.204288
3.4450,111.5631012,39.27203833,1262.330852
3.4500,111.4203945,39.49099845,1262.455951
3.4550,111.2779374,39.70850573,1262.580731
3.4600,111.1352723,39.92524834,1262.705632
3.4650,110.9923228,40.14307266,1262.831227
3.4700,110.8487382,40.36252679,1262.957876
3.4750,110.7049946,40.58419058,1263.085597
3.4800,110.5599489,40.80918724,1263.215191
3.4850,110.4130512,41.03837827,1263.347198
3.4900,110.2645755,41.27192431,1263.481585
3.4950,110.1135505,41.51066721,1263.619
3.5000,109.9591445,41.75643987,1263.760358
3.5050,109.8010823,42.00775514,1263.905347
3.5100,109.6387232,42.26675172,1264.054937
3.5150,109.4727196,42.5337667,1264.209026
3.5200,109.3029031,42.80874818,1264.367693
3.5250,109.1288335,43.09128421,1264.531007
3.5300,108.9499829,43.38130386,1264.699181
3.5350,108.7673511,43.67856619,1264.871746
3.5400,108.5807297,43.98336835,1265.048912
3.5450,108.3896604,44.29483737,1265.230612
3.5500,108.1946245,44.61281323,1265.416621
3.5550,107.994346,44.93594067,1265.607004
3.5600,107.7895335,45.26389744,1265.801404
3.5650,107.5800383,45.5966516,1265.999855
3.5700,107.3663813,45.93546144,1266.202599
3.5750,107.1469261,46.27878887,1266.409797
3.5800,106.9234404,46.62708738,1266.620925
3.5850,106.6953121,46.97978021,1266.836052
3.5900,106.463424,47.33653001,1267.054743
3.5950,106.2260766,47.69598359,1267.277211
3.6000,105.9837028,48.0575377,1267.503103
3.6050,105.7361655,48.42050304,1267.732269
3.6100,105.482188,48.78348211,1267.964787
3.6150,105.2220599,49.14503366,1268.200058
3.6200,104.9549384,49.50490306,1268.438368
3.6250,104.6795873,49.86257239,1268.680012
3.6300,104.3962881,50.21649806,1268.924384
3.6350,104.1031493,50.56613725,1269.172054
3.6400,103.8004616,50.91169781,1269.42297
3.6450,103.4867733,51.25253929,1269.677497
3.6500,103.1613821,51.58824283,1269.935809
3.6550,102.8248788,51.91766868,1270.19726
3.6600,102.4776215,52.24018909,1270.461509
3.6650,102.1185848,52.55485618,1270.728636
3.6700,101.7479865,52.86210245,1270.998729
3.6750,101.3654183,53.16092784,1271.271648
3.6800,100.9707694,53.45124107,1271.547427
3.6850,100.5640184,53.73321669,1271.826146
3.6900,100.1462339,54.00561675,1272.106929
3.6950,99.7168816,54.26928417,1272.390368
3.7000,99.2770535,54.52430674,1272.676066
3.7050,98.82647304,54.76944289,1272.963721
3.7100,98.3653355,55.00672728,1273.254058
3.7150,97.89270604,55.23518665,1273.547168
3.7200,97.40761726,55.45593644,1273.843937
3.7250,96.91038532,55.66902181,1274.144347
3.7300,96.40155846,55.87612581,1274.448879
3.7350,95.8806076,56.0774657,1274.757926
3.7400,95.34539507,56.27307998,1275.072608
3.7450,94.79627387,56.46458939,1275.393486
3.7500,94.2313513,56.65424102,1275.722368
3.7550,93.65144769,56.84353204,1276.059565
3.7600,93.05767768,57.03479904,1276.405602
3.7650,92.4492711,57.22993201,1276.761719
3.7700,91.82747394,57.43008092,1277.127942
3.7750,91.19145883,57.63710728,1277.505513
3.7800,90.54055835,57.85182663,1277.895225
3.7850,89.87653599,58.07550891,1278.296929
3.7900,89.1994238,58.31016188,1278.71153
3.7950,88.50998036,58.55569074,1279.138815
3.8000,87.81038784,58.81178459,1279.577787
3.8050,87.10232039,59.08055243,1280.028583
3.8100,86.38762677,59.36168611,1280.490308
3.8150,85.66845816,59.6557557,1280.96226
3.8200,84.94703347,59.96190259,1281.44312
3.8250,84.22391997,60.28064043,1281.932882
3.8300,83.50135666,60.61162638,1282.430387
3.8350,82.77980565,60.95372466,1282.935029
3.8400,82.06054252,61.30606178,1283.445875
3.8450,81.34397045,61.66780619,1283.962395
3.8500,80.63182249,62.0377589,1284.483235
3.8550,79.92653202,62.41630956,1285.007317
3.8600,79.22945662,62.80367378,1285.533993
3.8650,78.54161928,63.19734698,1286.061694
3.8700,77.86455912,63.59661687,1286.589229
3.8750,77.20007284,64.00141628,1287.115564
3.8800,76.54699366,64.40866628,1287.639938
3.8850,75.90568778,64.81739435,1288.16166
3.8900,75.27554486,65.22678255,1288.680615
3.8950,74.65801599,65.63497438,1289.195128
3.9000,74.05309605,66.04109324,1289.704742
3.9050,73.46086065,66.44410728,1290.208784
3.9100,72.88054178,66.84175767,1290.706551
3.9150,72.31137764,67.23204122,1291.197414
3.9200,71.75414563,67.61418124,1291.680405
3.9250,71.20859994,67.98585492,1292.154516
3.9300,70.67442192,68.34613405,1292.619284
3.9350,70.15150909,68.69317981,1293.073807
3.9400,69.63921032,69.02535175,1293.517566
3.9450,69.13734799,69.34187668,1293.950154
3.9500,68.64645607,69.6414638,1294.370511
3.9550,68.16610444,69.92420423,1294.778738
3.9600,67.69530355,70.19011986,1295.175237
3.9650,67.23522279,70.43907609,1295.55913
3.9700,66.78625061,70.67004589,1295.929588
3.9750,66.34885848,70.88338711,1296.286283
3.9800,65.92188598,71.07908787,1296.629763
3.9850,65.50549124,71.25654044,1296.959582
3.9900,65.09849788,71.41671932,1297.27673
3.9950,64.70167448,71.55980339,1297.580712
4.0000,64.31412381,71.68605282,1297.872051
4.0050,63.9363542,71.79579201,1298.150528
4.0100,63.56824492,71.88909885,1298.416157
4.0150,63.2094301,71.96701943,1298.66957
4.0200,62.86122887,72.029306,1298.909798
4.0250,62.52189012,72.07691236,1299.138242
4.0300,62.19169911,72.11056693,1299.354979
4.0350,61.87119537,72.13093565,1299.560002
4.0400,61.5606244,72.13947982,1299.753733
4.0450,61.26010172,72.13662711,1299.936252
4.0500,60.97012032,72.12141186,1300.10678
4.0550,60.69019503,72.09633228,1300.266767
4.0600,60.41964323,72.06117809,1300.416492
4.0650,60.15846176,72.01727012,1300.55655
4.0700,59.90667489,71.96583559,1300.687461
4.0750,59.66425716,71.90716007,1300.80934
4.0800,59.43237998,71.84323596,1300.922403
4.0850,59.21009471,71.77441635,1301.027365
4.0900,58.99769781,71.70149276,1301.124426
4.0950,58.79501851,71.62599593,1301.21437
4.1000,58.60244292,71.54872789,1301.297328
4.1050,58.41930646,71.47036535,1301.374048
4.1100,58.24557368,71.39040209,1301.44429
4.1150,58.08060688,71.30981074,1301.508936
4.1200,57.92333037,71.22936138,1301.568998
4.1250,57.77460759,71.14832225,1301.623626
4.1300,57.63290313,71.06791563,1301.674297
4.1350,57.49947941,70.98831434,1301.720276
4.1400,57.37363763,70.90956459,1301.761991
4.1450,57.25596378,70.83167172,1301.799082
4.1500,57.14488317,70.75375086,1301.832105
4.1550,57.04063977,70.67642607,1301.861179
4.1600,56.94239819,70.59809732,1301.886048
4.1650,56.8501487,70.51986585,1301.907228
4.1700,56.76319603,70.44086792,1301.924779
4.1750,56.68204,70.36134294,1301.93849
4.1800,56.60662427,70.2827437,1301.949039
4.1850,56.536431,70.20522683,1301.956836
4.1900,56.4723263,70.12940322,1301.961616
4.1950,56.41429017,70.05629476,1301.963848
4.2000,56.36102382,69.98419022,1301.963551
4.2050,56.31247683,69.91369366,1301.961046
4.2100,56.26886986,69.84491581,1301.956252
4.2150,56.23006839,69.77869085,1301.949645
4.2200,56.19445559,69.71214904,1301.94096
4.2250,56.16225856,69.64652187,1301.930583
4.2300,56.13215314,69.58125645,1301.919115
4.2350,56.10482952,69.51675682,1301.906284
4.2400,56.07934439,69.45205511,1301.892214
4.2450,56.05614555,69.3866293,1301.876392
4.2500,56.03421086,69.32155092,1301.859921
4.2550,56.01357624,69.25578688,1301.842303
4.2600,55.99365943,69.18928429,1301.823863
4.2650,55.97421273,69.1216201,1301.804571
4.2700,55.95403516,69.05234198,1301.784937
4.2750,55.93361032,68.98197209,1301.764929
4.2800,55.91323884,68.9108409,1301.744488
4.2850,55.89222706,68.83831048,1301.723747
4.2900,55.87119686,68.765207,1301.702709
4.2950,55.85077223,68.6911409,1301.680805
4.3000,55.83058298,68.61638683,1301.658395
4.3050,55.81119104,68.54179659,1301.635504
4.3100,55.7924679,68.46671948,1301.611922
4.3150,55.77425423,68.3914098,1301.587916
4.3200,55.75664608,68.31679015,1301.563816
4.3250,55.74046963,68.24293833,1301.539127
4.3300,55.72495159,68.16862849,1301.513819
4.3350,55.71027389,68.09413353,1301.487856
4.3400,55.69647738,68.01887495,1301.460992
4.3450,55.68374873,67.94300716,1301.433146
4.3500,55.67096349,67.86656297,1301.405058
4.3550,55.6580217,67.78861666,1301.376362
4.3600,55.64521516,67.70868855,1301.346633
4.3650,55.63175519,67.62689513,1301.316415
4.3700,55.61799781,67.54248466,1301.285125
4.3750,55.60372236,67.45560514,1301.252996
4.3800,55.58933082,67.36524275,1301.219296
4.3850,55.57493775,67.27208761,1301.184248
4.3900,55.56075055,67.1752247,1301.147306
4.3950,55.5464535,67.07473006,1301.108716
4.4000,55.53228008,66.97069048,1301.068373
4.4050,55.51714411,66.86283609,1301.026856
4.4100,55.50168526,66.75202835,1300.984171
4.4150,55.48528757,66.6371714,1300.940205
4.4200,55.46839799,66.51845913,1300.894772
4.4250,55.45120812,66.39751757,1300.848478
4.4300,55.43459666,66.27283985,1300.800129
4.4350,55.41775155,66.14587491,1300.750929
4.4400,55.40122821,66.01668431,1300.700565
4.4450,55.38499663,65.88568182,1300.649272
4.4500,55.36970854,65.75480781,1300.597484
4.4550,55.35352275,65.62336501,1300.546092
4.4600,55.33720381,65.49168343,1300.494799
4.4650,55.32067529,65.36121875,1300.44429
4.4700,55.30363564,65.23126357,1300.394452
4.4750,55.28540771,65.10161664,1300.345629
4.4800,55.26686717,64.97329941,1300.297727
4.4850,55.24817163,64.8455748,1300.250295
4.4900,55.22857624,64.71839975,1300.203773
4.4950,55.20831185,64.59203583,1300.158182
4.5000,55.18778167,64.46685588,1300.11339
4.5050,55.16736412,64.34252532,1300.069039
4.5100,55.14683289,64.21871216,1300.025077
4.5150,55.12686211,64.09576724,1299.981232
4.5200,55.10782314,63.97445999,1299.937622
4.5250,55.08848967,63.85282029,1299.894146
4.5300,55.07064159,63.73109779,1299.849794
4.5350,55.05320488,63.60814628,1299.804727
4.5400,55.03682128,63.48467447,1299.758864
4.5450,55.02128378,63.36040135,1299.712194
4.5500,55.00647381,63.23406406,1299.664233
4.5550,54.99285502,63.10659121,1299.61509
4.5600,54.98113028,62.97762888,1299.564198
4.5650,54.9704834,62.84800155,1299.512406
4.5700,54.96172573,62.71726149,1299.459049
4.5750,54.95463174,62.58467523,1299.403912
4.5800,54.94900167,62.44970428,1299.346896
4.5850,54.94596107,62.31362086,1299.287839
4.5900,54.94543231,62.17518385,1299.226246
4.5950,54.94676809,62.03416307,1299.162403
4.6000,54.95107362,61.89109244,1299.095856
4.6050,54.95855187,61.74577455,1299.026419
4.6100,54.96796972,61.59822932,1298.954865
4.6150,54.98112708,61.44789738,1298.879765
4.6200,54.99779466,61.29508897,1298.801423
4.6250,55.01804182,61.13864988,1298.719337
4.6300,55.04287582,60.9790228,1298.633077
4.6350,55.07149213,60.81616127,1298.543107
4.6400,55.10486008,60.65045983,1298.449007
4.6450,55.14210076,60.48090017,1298.350916
4.6500,55.18377868,60.30683685,1298.248206
4.6550,55.22929183,60.12794217,1298.141124
4.6600,55.27788246,59.94305197,1298.029703
4.6650,55.33079029,59.7525741,1297.913335
4.6700,55.38673856,59.55651566,1297.792849
4.6750,55.44643232,59.35478142,1297.66777
4.6800,55.50842463,59.14716175,1297.538918
4.6850,55.57326904,58.93333692,1297.405817
4.6900,55.64048785,58.71399435,1297.269086
4.6950,55.7105102,58.48933518,1297.128576
4.7000,55.7825333,58.2593875,1296.984818
4.7050,55.85715285,58.02428402,1296.837503
4.7100,55.93441969,57.78470887,1296.686922
4.7150,56.01332573,57.54127354,1296.533991
4.7200,56.09416376,57.29434699,1296.378714
4.7250,56.17665707,57.04403494,1296.221329
4.7300,56.26059887,56.79119761,1296.062346
4.7350,56.34630482,56.53641348,1295.90183
4.7400,56.43374676,56.27935726,1295.739663
4.7450,56.5221228,56.02205779,1295.577158
4.7500,56.61216207,55.76377009,1295.41359
4.7550,56.70447564,55.50611282,1295.249251
4.7600,56.79880927,55.24990672,1295.084649
4.7650,56.89508621,54.99485926,1294.919696
4.7700,56.99288278,54.74219684,1294.755154
4.7750,57.09360603,54.4926028,1294.590417
4.7800,57.19646572,54.24583773,1294.425899
4.7850,57.30126216,54.0034477,1294.26235
4.7900,57.40794473,53.76432778,1294.099352
4.7950,57.51588325,53.52958842,1293.937703
4.8000,57.6259792,53.29996688,1293.777143
4.8050,57.73762303,53.07556451,1293.618069
4.8100,57.85182368,52.85670917,1293.459987
4.8150,57.96763852,52.64265658,1293.303227
4.8200,58.08497306,52.43368684,1293.14788
4.8250,58.20513277,52.23167011,1292.993889
4.8300,58.3275581,52.03609878,1292.841425
4.8350,58.45285219,51.8469698,1292.690107
4.8400,58.58057262,51.66446587,1292.540235
4.8450,58.71097276,51.48834041,1292.391582
4.8500,58.8441481,51.31901501,1292.244247
4.8550,58.97901761,51.15591837,1292.098654
4.8600,59.11615612,50.99836241,1291.954178
4.8650,59.25550259,50.84572606,1291.810589
4.8700,59.39631936,50.6983273,1291.66844
4.8750,59.53825221,50.55579665,1291.527789
4.8800,59.68165353,50.41805356,1291.388405
4.8850,59.8263681,50.28462437,1291.250165
4.8900,59.97188857,50.15592486,1291.113507
4.8950,60.11831296,50.03133328,1290.978144
4.9000,60.26617797,49.91068561,1290.843648
4.9050,60.41351955,49.79277157,1290.710731
4.9100,60.56202934,49.67802885,1290.57852
4.9150,60.709618,49.56507858,1290.447757
4.9200,60.85643482,49.45289302,1290.317972
4.9250,61.00198509,49.3426776,1290.189881
4.9300,61.14582616,49.23418339,1290.063628
4.9350,61.28809453,49.12647792,1289.938802
4.9400,61.42822559,49.01920709,1289.815526
4.9450,61.56707695,48.91110442,1289.692875
4.9500,61.70443666,48.80318807,1289.571305
4.9550,61.84041387,48.695018,1289.450589
4.9600,61.97589367,48.58850765,1289.330894
4.9650,62.11123498,48.48151653,1289.211221
4.9700,62.24633301,48.37531903,1289.092116
4.9750,62.38075388,48.26873236,1288.973406
4.9800,62.51585392,48.16123769,1288.854093
4.9850,62.65044662,48.05310078,1288.735028
4.9900,62.78480974,47.94314576,1288.615591
4.9950,62.91866279,47.8314088,1288.495954
5.0000,63.05243322,47.71823095,1288.375977
5.0050,63.18626245,47.60291634,1288.255333
5.0100,63.31921289,47.48409565,1288.134047
5.0150,63.45309775,47.36230885,1288.011261
5.0200,63.58657599,47.23781673,1287.887843
5.0250,63.71924983,47.110377,1287.76391
5.0300,63.85221635,46.97972153,1287.638731
5.0350,63.98522063,46.84617188,1287.512557
5.0400,64.11892972,46.71067954,1287.385362
5.0450,64.25438157,46.57185747,1287.256058
5.0500,64.39183213,46.43035549,1287.124738
5.0550,64.53087195,46.28536416,1286.991359
5.0600,64.67185949,46.13787742,1286.856043
5.0650,64.81521967,45.9867611,1286.718195
5.0700,64.96182649,45.83337798,1286.577789
5.0750,65.11104648,45.67759209,1286.435148
5.0800,65.26427443,45.5187022,1286.289226
5.0850,65.42165072,45.35706725,1286.140066
5.0900,65.58388093,45.19295617,1285.987355
5.0950,65.7515783,45.02698048,1285.830966
5.1000,65.92449063,44.85834426,1285.670795
5.1050,66.10389459,44.68687403,1285.506081
5.1100,66.28977655,44.51268887,1285.336919
5.1150,66.48277106,44.33551587,1285.16283
5.1200,66.68333904,44.15536548,1284.983637
5.1250,66.89167043,43.9711389,1284.798886
5.1300,67.10722906,43.7815248,1284.608462
5.1350,67.33055413,43.58801232,1284.412579
5.1400,67.56164063,43.38969279,1284.210991
5.1450,67.80087572,43.18753532,1284.003833
5.1500,68.04855522,42.98066335,1283.790663
5.1550,68.30506352,42.76917449,1283.57135
5.1600,68.56887495,42.55334892,1283.346885
5.1650,68.83910902,42.3326543,1283.117615
5.1700,69.11688759,42.10730634,1282.883022
5.1750,69.40199703,41.87761688,1282.643419
5.1800,69.69371833,41.64383919,1282.399291
5.1850,69.99326631,41.40592118,1282.150044
5.1900,70.30056982,41.16389728,1281.89579
5.1950,70.61533354,40.91760508,1281.636703
5.2000,70.93643509,40.66643213,1281.373249
5.2050,71.26516775,40.41013552,1281.104674
5.2100,71.5994654,40.14837275,1280.832078
5.2150,71.94020435,39.88122499,1280.555054
5.2200,72.28569667,39.60812671,1280.274363
5.2250,72.63650619,39.3291446,1279.989742
5.2300,72.99237905,39.04354044,1279.701143
5.2350,73.35159902,38.751965,1279.409712
5.2400,73.71484712,38.45477914,1279.115264
5.2450,74.07955453,38.15285174,1278.819459
5.2500,74.44710028,37.84646547,1278.521741
5.2550,74.81764167,37.53488068,1278.221845
5.2600,75.19071776,37.21778941,1277.919919
5.2650,75.56567395,36.89651438,1277.616787
5.2700,75.94201619,36.570223,1277.312441
5.2750,76.32080809,36.23966856,1277.006576
5.2800,76.70091237,35.90574654,1276.700106
5.2850,77.08291824,35.56730543,1276.392359
5.2900,77.4657661,35.22602265,1276.084436
5.2950,77.85039324,34.88186128,1275.775855
5.3000,78.23628007,34.53432415,1275.466774
5.3050,78.62318364,34.1839926,1275.157513
5.3100,79.01097164,33.83171026,1274.848458
5.3150,79.39965769,33.47734131,1274.539595
5.3200,79.79082873,33.11940251,1274.229691
5.3250,80.18520859,32.75873711,1273.918763
5.3300,80.58298798,32.39552533,1273.606791
5.3350,80.98483187,32.02933306,1273.293354
5.3400,81.39085314,31.65871657,1272.978051
5.3450,81.8016814,31.28418821,1272.660737
5.3500,82.21678653,30.90512888,1272.341564
5.3550,82.63782693,30.521842,1272.01982
5.3600,83.06490344,30.13315803,1271.695185
5.3650,83.49824946,29.74163072,1271.368312
5.3700,83.93696016,29.34509569,1271.039071
5.3750,84.38192968,28.94377464,1270.70713
5.3800,84.83363612,28.53850268,1270.372561
5.3850,85.29270122,28.12970861,1270.035225
5.3900,85.75920705,27.71759324,1269.695218
5.3950,86.23338036,27.30171249,1269.352341
5.4000,86.71615053,26.88328643,1269.006543
5.4050,87.20714723,26.46166361,1268.657842
5.4100,87.70575366,26.03826008,1268.306957
5.4150,88.21146276,25.61290969,1267.954132
5.4200,88.72454181,25.18628355,1267.599456
5.4250,89.24466018,24.75864258,1267.243185
5.4300,89.77139136,24.33120743,1266.88585
5.4350,90.30392225,23.90317188,1266.527692
5.4400,90.84075079,23.47550683,1266.169682
5.4450,91.38069456,23.04747873,1265.812209
5.4500,91.92287534,22.62067884,1265.456136
5.4550,92.46677495,22.19504244,1265.101683
5.4600,93.01244998,21.77061664,1264.748847
5.4650,93.55999709,21.34811007,1264.397816
5.4700,94.10869852,20.92748552,1264.048903
5.4750,94.65722374,20.50901267,1263.70272
5.4800,95.20496429,20.09127933,1263.35919
5.4850,95.74993609,19.67386684,1263.019002
5.4900,96.29127361,19.25536627,1262.682135
5.4950,96.82770574,18.83734425,1262.349478
5.5000,97.35787006,18.41892707,1262.021342
5.5050,97.8807086,18.00045417,1261.698207
5.5100,98.39643936,17.58174916,1261.379845
5.5150,98.90378068,17.16352018,1261.066918
5.5200,99.40341331,16.74615713,1260.759141
5.5250,99.8953201,16.32958676,1260.45648
5.5300,100.3795596,15.91479782,1260.159078
5.5350,100.8566141,15.50159757,1259.866621
5.5400,101.325857,15.09005635,1259.57934
5.5450,101.7885391,14.67939797,1259.29644
5.5500,102.2422224,14.27051441,1259.019033
5.5550,102.6868733,13.86359171,1258.747086
5.5600,103.1219991,13.45940525,1258.480899
5.5650,103.547399,13.05772124,1258.22042
5.5700,103.964131,12.65885673,1257.965252
5.5750,104.3708109,12.26285499,1257.715888
5.5800,104.7676029,11.8704076,1257.472348
5.5850,105.1540846,11.48198607,1257.234847
5.5900,105.5320433,11.09759148,1257.002619
5.5950,105.9011581,10.71668795,1256.775606
5.6000,106.2620339,10.34069486,1256.553848
5.6050,106.6151698,9.969892529,1256.337142
5.6100,106.9622737,9.603520849,1256.124625
5.6150,107.3037899,9.241918616,1255.916154
5.6200,107.639508,8.885549195,1255.711898
5.6250,107.9698174,8.533773401,1255.511473
5.6300,108.2944473,8.185846091,1255.314803
5.6350,108.614692,7.841776686,1255.121396
5.6400,108.9296817,7.502246384,1254.931671
5.6450,109.2407519,7.166418011,1254.744931
5.6500,109.5493787,6.833672988,1254.560466
5.6550,109.8551,6.503938287,1254.378427
5.6600,110.1593813,6.177812793,1254.198347
5.6650,110.4632634,5.852812423,1254.019326
5.6700,110.7673702,5.53035717,1253.841394
5.6750,111.0725772,5.210439448,1253.664244
5.6800,111.3786602,4.893407875,1253.487979
5.6850,111.6863165,4.578190157,1253.31217
5.6900,111.995518,4.263610149,1253.136608
5.6950,112.3061764,3.948805314,1252.961178
5.7000,112.6179742,3.632714946,1252.785791
5.7050,112.929078,3.315053428,1252.611085
5.7100,113.2398099,2.99489146,1252.436781
5.7150,113.5508821,2.671740896,1252.262523
5.7200,113.8613319,2.345323113,1252.08864
5.7250,114.1704638,2.016274618,1251.915502
5.7300,114.4779959,1.68391176,1251.743098
5.7350,114.7832288,1.348384059,1251.571689
5.7400,115.0880163,1.009993907,1251.400687
5.7450,115.3919786,0.6700660571,1251.230447
5.7500,115.6949182,0.3281687669,1251.060999
5.7550,115.9968739,-0.01566295958,1250.892344
5.7600,116.2995956,-0.3600253519,1250.724144
5.7650,116.6030411,-0.7062807021,1250.556176
5.7700,116.9068684,-1.052662927,1250.388914
5.7750,117.2125037,-1.40025709,1250.22169
5.7800,117.5198895,-1.746932676,1250.054912
5.7850,117.8295021,-2.092414366,1249.88852
5.7900,118.1413561,-2.436209755,1249.722599
5.7950,118.4564043,-2.778482712,1249.556761
5.8000,118.7758526,-3.118171616,1249.390788
5.8050,119.0998616,-3.45565694,1249.224557
5.8100,119.4284244,-3.789759565,1249.058288
5.8150,119.7614808,-4.121086683,1248.891887
5.8200,120.0980185,-4.449817358,1248.725655
5.8250,120.4361846,-4.776342412,1248.560121
5.8300,120.7755244,-5.101498883,1248.395286
5.8350,121.1163896,-5.425527764,1248.230993
5.8400,121.4578766,-5.748772533,1248.067485
5.8450,121.7993851,-6.069999285,1247.905185
5.8500,122.140645,-6.391455598,1247.7438
5.8550,122.4811477,-6.712019092,1247.583683
5.8600,122.8202181,-7.032349174,1247.424971
5.8650,123.1577562,-7.353288128,1247.267537
5.8700,123.4927635,-7.673841973,1247.111861
5.8750,123.8251719,-7.994145436,1246.957928
5.8800,124.1548644,-8.314014451,1246.805821
5.8850,124.481548,-8.633865854,1246.655536
5.8900,124.8043302,-8.95344096,1246.507396
5.8950,125.1236493,-9.272535231,1246.361275
5.9000,125.4386193,-9.591892265,1246.21733
5.9050,125.749506,-9.911054794,1246.075551
5.9100,126.0555631,-10.22967124,1245.936201
5.9150,126.3568833,-10.54817742,1245.799169
5.9200,126.6538911,-10.8663346,1245.66435
5.9250,126.9471358,-11.18435257,1245.531517
5.9300,127.2367093,-11.50105173,1245.400801
5.9350,127.5217198,-11.81772692,1245.272235
5.9400,127.8045098,-12.13284568,1245.145321
5.9450,128.0840192,-12.44567777,1245.020454
5.9500,128.3599326,-12.75545592,1244.89781
5.9550,128.6331769,-13.0628743,1244.776971
5.9600,128.9033954,-13.36759994,1244.658102
5.9650,129.1709335,-13.66925455,1244.541105
5.9700,129.435673,-13.9681943,1244.425962
5.9750,129.6974172,-14.26366109,1244.312784
5.9800,129.9562309,-14.55697673,1244.201403
5.9850,130.21252,-14.84842497,1244.091608
5.9900,130.4685129,-15.13570666,1243.983016
5.9950,130.7241931,-15.41984433,1243.875477
6.0000,130.9795059,-15.69933767,1243.7692
6.0050,131.2365436,-15.97390506,1243.6636
6.0100,131.4948035,-16.24469828,1243.558633
6.0150,131.7540939,-16.51082824,1243.45449
6.0200,132.0148997,-16.77295936,1243.350907
6.0250,132.2777091,-17.03079763,1243.247774
6.0300,132.5431787,-17.28400473,1243.144919
6.0350,132.8122806,-17.53218597,1243.042122
6.0400,133.0837648,-17.77623559,1242.939605
6.0450,133.3587996,-18.01666716,1242.837005
6.0500,133.6365642,-18.2537626,1242.734506
6.0550,133.9178044,-18.48616553,1242.632072
6.0600,134.2013641,-18.71415812,1242.529971
6.0650,134.4877976,-18.93672,1242.428182
6.0700,134.7781047,-19.15533098,1242.326209
6.0750,135.0701794,-19.3686303,1242.224858
6.0800,135.3656595,-19.57775605,1242.123514
6.0850,135.6623264,-19.78286498,1242.02279
6.0900,135.9604251,-19.98332713,1241.922709
6.0950,136.2603206,-20.18024528,1241.823054
6.1000,136.5600639,-20.37325864,1241.724427
6.1050,136.8598242,-20.5613842,1241.626909
6.1100,137.1592688,-20.74588313,1241.530437
6.1150,137.4593371,-20.92584601,1241.434863
6.1200,137.7608027,-21.10075575,1241.34006
6.1250,138.0642475,-21.27063345,1241.245874
6.1300,138.3686002,-21.43516478,1241.152618
6.1350,138.6739348,-21.593409,1241.06041
6.1400,138.9806843,-21.74544063,1240.969094
6.1450,139.2886745,-21.89184677,1240.878642
6.1500,139.5982037,-22.03127308,1240.78912
6.1550,139.9091261,-22.16441633,1240.700477
6.1600,140.222945,-22.29151254,1240.612247
6.1650,140.5385112,-22.41160017,1240.52485
6.1700,140.8557537,-22.52616109,1240.438121
6.1750,141.1755467,-22.63531495,1240.35182
6.1800,141.4972338,-22.73990874,1240.266001
6.1850,141.8208797,-22.83940014,1240.180728
6.1900,142.146884,-22.9347353,1240.095769
6.1950,142.472271,-23.02636192,1240.011876
6.2000,142.798368,-23.11628204,1239.928474
6.2050,143.1240377,-23.20494321,1239.845811
6.2100,143.448556,-23.29377924,1239.763893
6.2150,143.7709632,-23.38282658,1239.682939
6.2200,144.0902985,-23.47353333,1239.60301
6.2250,144.4043301,-23.56688554,1239.524595
6.2300,144.7132973,-23.66307391,1239.447585
6.2350,145.0156652,-23.7633859,1239.372214
6.2400,145.3107544,-23.86841675,1239.298579
6.2450,145.5986913,-23.97958715,1239.226466
6.2500,145.8781389,-24.09636181,1239.156268
6.2550,146.1480967,-24.21957769,1239.088132
6.2600,146.4082985,-24.34950761,1239.02209
6.2650,146.6586168,-24.4859132,1238.958182
6.2700,146.9003347,-24.62772927,1238.896197
6.2750,147.1331861,-24.77662503,1238.836022
6.2800,147.3573298,-24.93163429,1238.777676
6.2850,147.5713837,-25.09296045,1238.721458
6.2900,147.7735386,-25.26228767,1238.667613
6.2950,147.9640277,-25.43859531,1238.616192
6.3000,148.1441817,-25.62220536,1238.566801
6.3050,148.3118975,-25.81319118,1238.519956
6.3100,148.4700434,-26.01003759,1238.475095
6.3150,148.618419,-26.21258608,1238.432286
6.3200,148.7583379,-26.41988104,1238.391317
6.3250,148.8904187,-26.63193225,1238.352029
6.3300,149.0163382,-26.84816127,1238.314116
6.3350,149.136018,-27.06918955,1238.277519
6.3400,149.2510795,-27.2938305,1238.242006
6.3450,149.3621306,-27.52113387,1238.207504
6.3500,149.4707346,-27.74941744,1238.173816
6.3550,149.5768044,-27.98017989,1238.140825
6.3600,149.6807385,-28.21290834,1238.108486
6.3650,149.7830011,-28.44564125,1238.076898
6.3700,149.883705,-28.67832468,1238.046011
6.3750,149.9856939,-28.91075563,1238.015134
6.3800,150.0883297,-29.1421043,1237.984482
6.3850,150.1953629,-29.37096954,1237.953293
6.3900,150.3075235,-29.59672481,1237.921446
6.3950,150.4256029,-29.81878297,1237.88881
6.4000,150.5517067,-30.03680416,1237.854913
6.4050,150.6862906,-30.25039363,1237.81969
6.4100,150.8304166,-30.45794452,1237.783009
6.4150,150.9834741,-30.65950892,1237.745065
6.4200,151.1451505,-30.85482529,1237.70593
6.4250,151.3162637,-31.043298,1237.66548
6.4300,151.4981756,-31.22434392,1237.623454
6.4350,151.6899839,-31.39817001,1237.580031
6.4400,151.8912427,-31.56440113,1237.535355
6.4450,152.1015475,-31.72272065,1237.489548
6.4500,152.3204158,-31.87334438,1237.442702
6.4550,152.5478111,-32.0164811,1237.394819
6.4600,152.7816881,-32.15072769,1237.346518
6.4650,153.0226297,-32.27701135,1237.297586
6.4700,153.2696295,-32.39509545,1237.248307
6.4750,153.5201304,-32.50457476,1237.199311
6.4800,153.7733376,-32.60638214,1237.150716
6.4850,154.0274614,-32.70073822,1237.10291
6.4900,154.2806335,-32.78800486,1237.056289
6.4950,154.5338181,-32.86835832,1237.010602
6.5000,154.784053,-32.94247488,1236.966459
6.5050,155.0308467,-33.01228911,1236.923758
6.5100,155.2731917,-33.07725484,1236.882784
6.5150,155.5086123,-33.14100826,1236.843757
6.5200,155.7361605,-33.20357071,1236.80687
6.5250,155.9555411,-33.26668232,1236.772003
6.5300,156.1648353,-33.33175453,1236.73945
6.5350,156.3648279,-33.39833683,1236.709048
6.5400,156.5539654,-33.46812435,1236.680972
6.5450,156.7315449,-33.54110284,1236.655392
6.5500,156.8981111,-33.61758838,1236.632141
6.5550,157.0547462,-33.69826419,1236.610913
6.5600,157.2015699,-33.78290382,1236.591662
6.5650,157.3380064,-33.87274072,1236.5744
6.5700,157.4640865,-33.96833434,1236.559064
6.5750,157.580316,-34.06810858,1236.54564
6.5800,157.6864814,-34.1735192,1236.534053
6.5850,157.7830456,-34.28384309,1236.524266
6.5900,157.8708966,-34.39819213,1236.516137
6.5950,157.9511595,-34.51612424,1236.509445
6.6000,158.0240155,-34.6376543,1236.504151
6.6050,158.0911135,-34.76215556,1236.499936
6.6100,158.1512998,-34.88985232,1236.497036
6.6150,158.2054167,-35.02069905,1236.49528
6.6200,158.2537984,-35.1538586,1236.494664
6.6250,158.2967945,-35.29004649,1236.495078
6.6300,158.3336547,-35.42927161,1236.496661
6.6350,158.3647157,-35.57105257,1236.499401
6.6400,158.3912724,-35.71538389,1236.503009
6.6450,158.4128246,-35.86261749,1236.507564
6.6500,158.4306081,-36.01394582,1236.512719
6.6550,158.4454007,-36.16813845,1236.518396
6.6600,158.4579063,-36.32542206,1236.52444
6.6650,158.4691214,-36.48797547,1236.530446
6.6700,158.479401,-36.65504157,1236.536415
6.6750,158.4890737,-36.82578714,1236.542345
6.6800,158.49949,-36.99962979,1236.547989
6.6850,158.5104861,-37.17713489,1236.553333
6.6900,158.5223661,-37.35827585,1236.558329
6.6950,158.5356908,-37.54154687,1236.562978
6.7000,158.5505893,-37.7273255,1236.567218
6.7050,158.5664479,-37.91498812,1236.571226
6.7100,158.5842186,-38.10475676,1236.574812
6.7150,158.6038383,-38.29591735,1236.577992
6.7200,158.6254311,-38.48808711,1236.580799
6.7250,158.6477457,-38.68055544,1236.583557
6.7300,158.6690488,-38.87311523,1236.586627
6.7350,158.6894694,-39.06468897,1236.590079
6.7400,158.7077645,-39.2553229,1236.594167
6.7450,158.7233623,-39.44336264,1236.59914
6.7500,158.7358278,-39.62818191,1236.605129
6.7550,158.7445858,-39.80855214,1236.612358
6.7600,158.7489382,-39.98480132,1236.62094
6.7650,158.7474476,-40.1557618,1236.631275
6.7700,158.7405446,-40.32073799,1236.643284
6.7750,158.7281852,-40.47996325,1236.656972
6.7800,158.7102184,-40.63287168,1236.672397
6.7850,158.6861924,-40.77988911,1236.689605
6.7900,158.657026,-40.92090913,1236.708405
6.7950,158.6206135,-41.05519918,1236.72929
6.8000,158.5775276,-41.18283705,1236.752122
6.8050,158.5263785,-41.30412852,1236.777196
6.8100,158.468115,-41.41925328,1236.804282
6.8150,158.4038781,-41.52689134,1236.833231
6.8200,158.3347572,-41.62778305,1236.863759
6.8250,158.2611027,-41.72092681,1236.895862
6.8300,158.1835649,-41.80684185,1236.929343
6.8350,158.1012857,-41.88525288,1236.964422
6.8400,158.0158467,-41.95729587,1237.000681
6.8450,157.9268525,-42.02239999,1237.038224
6.8500,157.8351716,-42.08241575,1237.076741
6.8550,157.740784,-42.13690998,1237.116254
6.8600,157.643985,-42.1874931,1237.156588
6.8650,157.5458113,-42.23374793,1237.197538
6.8700,157.446266,-42.27748936,1237.238956
6.8750,157.3465205,-42.32044705,1237.280474
6.8800,157.2477078,-42.36232732,1237.321854
6.8850,157.1515411,-42.40435907,1237.362624
6.8900,157.0599189,-42.44671507,1237.402356
6.8950,156.9733613,-42.49061429,1237.440856
6.9000,156.89321,-42.53641315,1237.477785
6.9050,156.8207596,-42.58498178,1237.512782
6.9100,156.7567517,-42.63708084,1237.54563
6.9150,156.703018,-42.69352086,1237.575836
6.9200,156.6584682,-42.75587196,1237.603534
6.9250,156.6238333,-42.82448797,1237.628517
6.9300,156.598233,-42.8997964,1237.650932
6.9350,156.582075,-42.9830545,1237.670605
6.9400,156.5736438,-43.07527552,1237.687833
6.9450,156.5733453,-43.17750691,1237.702478
6.9500,156.5801933,-43.28944039,1237.714745
6.9550,156.5935839,-43.41297644,1237.724676
6.9600,156.6118793,-43.54812657,1237.732633
6.9650,156.6345624,-43.69455676,1237.738772
6.9700,156.6607009,-43.85240827,1237.743298
6.9750,156.6903566,-44.02154985,1237.746223
6.9800,156.7225541,-44.20295531,1237.747733
6.9850,156.7573118,-44.39599601,1237.747867
6.9900,156.7942108,-44.59939889,1237.746813
6.9950,156.8330792,-44.81433331,1237.744549
7.0000,156.8739184,-45.03894965,1237.741213
7.0050,156.91749,-45.27324331,1237.736651
7.0100,156.9629842,-45.51629026,1237.731096
7.0150,157.0105905,-45.76599556,1237.724636
7.0200,157.0595608,-46.0227343,1237.717439
7.0250,157.1090242,-46.2848296,1237.70979
7.0300,157.1587883,-46.55042339,1237.701848
7.0350,157.2078689,-46.81967022,1237.693828
7.0400,157.2556716,-47.09161286,1237.685927
7.0450,157.3002914,-47.36502276,1237.678622
7.0500,157.3407156,-47.63895537,1237.672196
7.0550,157.3748512,-47.91273748,1237.66714
7.0600,157.4002204,-48.18473482,1237.664064
7.0650,157.4162907,-48.45419351,1237.663116
7.0700,157.4203912,-48.72100457,1237.664883
7.0750,157.412158,-48.98449261,1237.669474
7.0800,157.3898859,-49.24358966,1237.677294
7.0850,157.3531885,-49.49713829,1237.688499
7.0900,157.2999014,-49.74523485,1237.703546
7.0950,157.2321317,-49.988034,1237.721975
7.1000,157.148248,-50.22408929,1237.744207
7.1050,157.0500065,-50.45269294,1237.769905
7.1100,156.9372431,-50.67275764,1237.799157
7.1150,156.8099166,-50.88278091,1237.832035
7.1200,156.6680665,-51.08223793,1237.868559
7.1250,156.5132387,-51.26953952,1237.908448
7.1300,156.3468429,-51.4450734,1237.951404
7.1350,156.1710594,-51.60732116,1237.996994
7.1400,155.9857068,-51.75609605,1238.045255
7.1450,155.792426,-51.89208577,1238.095814
7.1500,155.5920018,-52.01431674,1238.148533
7.1550,155.3857157,-52.1233916,1238.203108
7.1600,155.1735538,-52.21965738,1238.259524
7.1650,154.9568676,-52.30303454,1238.317484
7.1700,154.7363017,-52.37456882,1238.376801
7.1750,154.5116565,-52.43458126,1238.437521
7.1800,154.2837548,-52.48332957,1238.499445
7.1850,154.0540193,-52.52057093,1238.562262
7.1900,153.8220515,-52.5483233,1238.625997
7.1950,153.5892953,-52.56690555,1238.690306
7.2000,153.3560259,-52.57768581,1238.755093
7.2050,153.1236722,-52.58184028,1238.819979
7.2100,152.8931609,-52.57920852,1238.88476
7.2150,152.6659282,-52.57133972,1238.94905
7.2200,152.44249,-52.55886622,1239.012701
7.2250,152.2242919,-52.54176845,1239.075372
7.2300,152.0132586,-52.52233873,1239.136538
7.2350,151.8114538,-52.50031869,1239.195706
7.2400,151.6198075,-52.47688117,1239.252608
7.2450,151.4390302,-52.45180353,1239.307053
7.2500,151.2697704,-52.42626314,1239.358843
7.2550,151.1130725,-52.3994228,1239.407741
7.2600,150.9697499,-52.37237128,1239.453504
7.2650,150.8396112,-52.3448254,1239.496168
7.2700,150.7225414,-52.31694347,1239.535745
7.2750,150.6176442,-52.28947372,1239.572403
7.2800,150.5251859,-52.26242841,1239.606062
7.2850,150.4432519,-52.23502527,1239.637201
7.2900,150.371475,-52.20884634,1239.665842
7.2950,150.3085545,-52.18354305,1239.692289
7.3000,150.2527146,-52.16016103,1239.716926
7.3050,150.2034162,-52.13863467,1239.739888
7.3100,150.159237,-52.11988781,1239.76148
7.3150,150.1196468,-52.10478333,1239.781785
7.3200,150.0844289,-52.09261205,1239.800869
7.3250,150.0544888,-52.08446781,1239.818474
7.3300,150.0291772,-52.08023044,1239.834762
7.3350,150.0081094,-52.07977737,1239.849828
7.3400,149.9913518,-52.0830281,1239.863643
7.3450,149.9800656,-52.09021099,1239.875927
7.3500,149.9742892,-52.10129322,1239.886667
7.3550,149.9743783,-52.11570316,1239.895791
7.3600,149.9822042,-52.1341816,1239.90283
7.3650,149.9969868,-52.15670656,1239.907984
7.3700,150.0195016,-52.18274256,1239.911092
7.3750,150.049417,-52.21179505,1239.912236
7.3800,150.0875618,-52.24418349,1239.911227
7.3850,150.1325797,-52.27989821,1239.908386
7.3900,150.1844078,-52.31781722,1239.903769
7.3950,150.2421264,-52.35874798,1239.897586
7.4000,150.3058258,-52.40151556,1239.889844
7.4050,150.3744091,-52.44593743,1239.880814
7.4100,150.4463662,-52.49246693,1239.870852
7.4150,150.5211353,-52.54095883,1239.860087
7.4200,150.5975189,-52.5914201,1239.848816
7.4250,150.6748625,-52.64424691,1239.837181
7.4300,150.7515302,-52.69857553,1239.825596
7.4350,150.826738,-52.7559436,1239.814199
7.4400,150.9000227,-52.81484678,1239.803158
7.4450,150.970561,-52.87640308,1239.792627
7.4500,151.0379257,-52.94019062,1239.782704
7.4550,151.1017519,-53.00565418,1239.773497
7.4600,151.161955,-53.07232489,1239.765038
7.4650,151.2179016,-53.14123273,1239.757442
7.4700,151.2706484,-53.21170293,1239.750489
7.4750,151.3195644,-53.28269338,1239.744341
7.4800,151.3652012,-53.35511218,1239.738864
7.4850,151.4065142,-53.42937116,1239.734273
7.4900,151.4444491,-53.50477884,1239.730367
7.4950,151.4793245,-53.58162237,1239.727068
7.5000,151.5108142,-53.65932195,1239.724461
7.5050,151.5401929,-53.7370878,1239.722282
7.5100,151.5669333,-53.81637394,1239.720597
7.5150,151.5905,-53.89619791,1239.719569
7.5200,151.6129106,-53.97633684,1239.718735
7.5250,151.6337982,-54.0573053,1239.718152
7.5300,151.6538095,-54.13807484,1239.717713
7.5350,151.672215,-54.21820047,1239.717582
7.5400,151.6902675,-54.29769861,1239.717477
7.5450,151.7078275,-54.37658093,1239.717429
7.5500,151.7249732,-54.45491657,1239.717411
7.5550,151.7417227,-54.53275258,1239.717418
7.5600,151.7577755,-54.61018509,1239.717515
7.5650,151.7742934,-54.68624686,1239.717448
7.5700,151.7916757,-54.76298228,1239.717064
7.5750,151.8107833,-54.8394691,1239.716191
7.5800,151.8312943,-54.91537631,1239.714915
7.5850,151.8545514,-54.99224036,1239.712891
7.5900,151.8814722,-55.06965851,1239.709905
7.5950,151.9122559,-55.14722569,1239.70593
7.6000,151.9482565,-55.2254237,1239.700642
7.6050,151.9895231,-55.30346067,1239.694045
7.6100,152.0376822,-55.38184455,1239.685747
7.6150,152.0923233,-55.46022341,1239.675876
7.6200,152.1544716,-55.53867183,1239.664189
7.6250,152.2238209,-55.61740022,1239.650754
7.6300,152.3016312,-55.69677787,1239.63529
7.6350,152.3880813,-55.77541857,1239.617788
7.6400,152.4831653,-55.85424647,1239.598239
7.6450,152.5867921,-55.93231074,1239.576695
7.6500,152.6988813,-56.01009539,1239.553177
7.6550,152.8195755,-56.08757953,1239.527662
7.6600,152.9475837,-56.16531758,1239.50045
7.6650,153.081941,-56.24294697,1239.471765
7.6700,153.2224636,-56.32088692,1239.441646
7.6750,153.3680239,-56.3991634,1239.41037
7.6800,153.5171303,-56.4768424,1239.378292
7.6850,153.6708203,-56.55482639,1239.345159
7.6900,153.8272053,-56.63359215,1239.311399
7.6950,153.9846191,-56.71218955,1239.277405
7.7000,154.1422048,-56.79113887,1239.243376
7.7050,154.2987038,-56.86945225,1239.209605
7.7100,154.4537437,-56.94751093,1239.176159
7.7150,154.6068478,-57.02575895,1239.143135
7.7200,154.7568934,-57.10364922,1239.110793
7.7250,154.9029599,-57.18115946,1239.079325
7.7300,155.0447726,-57.25820621,1239.048786
7.7350,155.1818862,-57.33419904,1239.019279
7.7400,155.3129822,-57.41020842,1238.991066
7.7450,155.4383622,-57.4841565,1238.964104
7.7500,155.556572,-57.55710955,1238.938691
7.7550,155.6673709,-57.62911659,1238.914863
7.7600,155.7715266,-57.70060547,1238.892425
7.7650,155.8688958,-57.77003881,1238.87143
7.7700,155.9587494,-57.83807686,1238.852017
7.7750,156.0419662,-57.90565642,1238.833962
7.7800,156.1187795,-57.97176473,1238.817215
7.7850,156.1894365,-58.0375234,1238.801707
7.7900,156.254065,-58.10291217,1238.787397
7.7950,156.3121957,-58.16661968,1238.774394
7.8000,156.3652417,-58.22948925,1238.762375
7.8050,156.4121738,-58.2911999,1238.751559
7.8100,156.4543144,-58.35157043,1238.741658
7.8150,156.491446,-58.41063551,1238.732707
7.8200,156.5235106,-58.46824118,1238.724713
7.8250,156.5513529,-58.52427474,1238.7175
7.8300,156.5746607,-58.57815796,1238.711129
7.8350,156.5936682,-58.631277,1238.705542
7.8400,156.6083344,-58.68242098,1238.700753
7.8450,156.6184476,-58.73254803,1238.696787
7.8500,156.6246094,-58.78047693,1238.693537
7.8550,156.6276934,-58.82711181,1238.690786
7.8600,156.6284134,-58.87139827,1238.688398
7.8650,156.6263689,-58.91435967,1238.686445
7.8700,156.6227092,-58.95396032,1238.684707
7.8750,156.6168398,-58.9922711,1238.683273
7.8800,156.609861,-59.02878774,1238.68192
7.8850,156.6018699,-59.06261031,1238.680613
7.8900,156.5931413,-59.09482423,1238.679286
7.8950,156.5833388,-59.12556224,1238.678001
7.9000,156.5731888,-59.15450434,1238.676596
7.9050,156.5624825,-59.18331606,1238.675093
7.9100,156.5508565,-59.21027855,1238.673597
7.9150,156.5401659,-59.2374056,1238.671657
7.9200,156.5297662,-59.26342718,1238.669437
7.9250,156.520546,-59.28892854,1238.66673
7.9300,156.5118898,-59.31358276,1238.66367
7.9350,156.5046379,-59.33787655,1238.660073
7.9400,156.4996073,-59.36136818,1238.655759
7.9450,156.4964556,-59.38468308,1238.650794
7.9500,156.4951499,-59.40790435,1238.645178
7.9550,156.4958033,-59.43155626,1238.638874
7.9600,156.4984486,-59.45477348,1238.631879
7.9650,156.5041027,-59.47844785,1238.623963
7.9700,156.5119805,-59.50273566,1238.615296
7.9750,156.5218292,-59.5276191,1238.605933
7.9800,156.5334426,-59.55403204,1238.595907
7.9850,156.5459839,-59.58046183,1238.585425
7.9900,156.5601041,-59.60722355,1238.574344
7.9950,156.575943,-59.63375344,1238.562637
8.0000,156.5939974,-59.66025302,1238.550185
8.0050,156.6136038,-59.68819107,1238.537117
8.0100,156.6333234,-59.71608967,1238.523761
8.0150,156.6538008,-59.74428642,1238.50998
8.0200,156.6750848,-59.77219997,1238.495755
8.0250,156.6956924,-59.80135527,1238.481403
8.0300,156.7162794,-59.83009609,1238.466798
8.0350,156.7352891,-59.8590106,1238.452263
8.0400,156.754693,-59.88835093,1238.437359
8.0450,156.7732576,-59.91771241,1238.422362
8.0500,156.7922669,-59.94745496,1238.406985
8.0550,156.8116521,-59.97661824,1238.391259
8.0600,156.8318187,-60.00566961,1238.375095
8.0650,156.8533693,-60.03524849,1238.358349
8.0700,156.8770307,-60.06492562,1238.340866
8.0750,156.9027372,-60.09493316,1238.322663
8.0800,156.9313047,-60.125968,1238.303541
8.0850,156.9623136,-60.15730594,1238.283601
8.0900,156.9966906,-60.18868668,1238.262644
8.0950,157.0356551,-60.22226917,1238.240372
8.1000,157.0785692,-60.25689697,1238.216941
8.1050,157.1256869,-60.29325082,1238.192293
8.1100,157.1774126,-60.3314608,1238.16634
8.1150,157.2332725,-60.37070802,1238.139196
8.1200,157.2934026,-60.4120969,1238.110817
8.1250,157.3577295,-60.45514008,1238.081225
8.1300,157.4260865,-60.49932855,1238.050461
8.1350,157.4978027,-60.54421177,1238.018674
8.1400,157.5718137,-60.58936653,1237.986105
8.1450,157.6488167,-60.63462863,1237.952611
8.1500,157.728305,-60.67997622,1237.91829
8.1550,157.8081903,-60.72492348,1237.883611
8.1600,157.888859,-60.76978074,1237.848477
8.1650,157.9698469,-60.81432768,1237.812991
8.1700,158.0493979,-60.85851188,1237.777536
8.1750,158.1268212,-60.90163867,1237.742267
8.1800,158.2015022,-60.94404473,1237.707314
8.1850,158.2729767,-60.98546334,1237.67279
8.1900,158.340441,-61.02522172,1237.638857
8.1950,158.4039106,-61.06364236,1237.605511
8.2000,158.4623086,-61.1005547,1237.57299
8.2050,158.51657,-61.13461032,1237.541097
8.2100,158.5663502,-61.16656081,1237.509914
8.2150,158.6102561,-61.1958323,1237.479747
8.2200,158.6489483,-61.22264488,1237.450433
8.2250,158.6811783,-61.2463345,1237.422261
8.2300,158.7083161,-61.26697732,1237.394934
8.2350,158.7287773,-61.28502601,1237.368786
8.2400,158.742973,-61.29918404,1237.343744
8.2450,158.7508717,-61.31073622,1237.31982
8.2500,158.7523888,-61.31796227,1237.297049
8.2550,158.7471622,-61.320244,1237.275522
8.2600,158.7363594,-61.31829449,1237.255
8.2650,158.7191378,-61.31165533,1237.235664
8.2700,158.6956047,-61.29927236,1237.21752
8.2750,158.6664109,-61.28167314,1237.200431
8.2800,158.6318515,-61.25799916,1237.184338
8.2850,158.5917342,-61.22936121,1237.169298
8.2900,158.5466864,-61.19546507,1237.155181
8.2950,158.4956016,-61.15616778,1237.142246
8.3000,158.4393097,-61.11173131,1237.130315
8.3050,158.3769642,-61.06198949,1237.119599
8.3100,158.3104145,-61.00753913,1237.109707
8.3150,158.239471,-60.94769684,1237.100695
8.3200,158.1639918,-60.88374503,1237.092595
8.3250,158.0851643,-60.81476155,1237.085159
8.3300,158.0034159,-60.74188676,1237.078304
8.3350,157.9197292,-60.66615716,1237.071831
8.3400,157.8328003,-60.58628531,1237.066035
8.3450,157.7445229,-60.50259545,1237.060523
8.3500,157.6552807,-60.41556643,1237.055229
8.3550,157.5658291,-60.3255596,1237.04998
8.3600,157.4760863,-60.23307301,1237.044781
8.3650,157.3863099,-60.13790711,1237.039603
8.3700,157.2976193,-60.03927249,1237.034221
8.3750,157.2111748,-59.93737903,1237.028391
8.3800,157.1261645,-59.83204477,1237.022309
8.3850,157.045079,-59.72228322,1237.015448
8.3900,156.9671713,-59.60937841,1237.00797
8.3950,156.8916868,-59.49061665,1237.000114
8.4000,156.8193683,-59.3676442,1236.991691
8.4050,156.7501271,-59.23974254,1236.982721
8.4100,156.6833741,-59.10676485,1236.973369
8.4150,156.6202435,-58.96940381,1236.963376
8.4200,156.5599281,-58.82711049,1236.952942
8.4250,156.5025799,-58.6803497,1236.942045
8.4300,156.4481796,-58.52915506,1236.93069
8.4350,156.3962533,-58.37418227,1236.918991
8.4400,156.3480249,-58.21598729,1236.90667
8.4450,156.3029717,-58.05395435,1236.893863
8.4500,156.2608635,-57.88998148,1236.880598
8.4550,156.2223526,-57.72346551,1236.866728
8.4600,156.1868738,-57.55646957,1236.852356
8.4650,156.1545026,-57.38812806,1236.837485
8.4700,156.1265336,-57.21980179,1236.821792
8.4750,156.1035964,-57.0519759,1236.805134
8.4800,156.085997,-56.88464701,1236.787443
8.4850,156.0728666,-56.71887152,1236.768893
8.4900,156.0648424,-56.55450771,1236.749326
8.4950,156.062448,-56.39180788,1236.728658
8.5000,156.0667919,-56.23097127,1236.706603
8.5050,156.0759927,-56.07287802,1236.683578
8.5100,156.0903451,-55.91814368,1236.659473
8.5150,156.1095322,-55.76579988,1236.634393
8.5200,156.1323313,-55.61643799,1236.608621
8.5250,156.1582414,-55.4695817,1236.582266
8.5300,156.1862129,-55.3258163,1236.555539
8.5350,156.2165947,-55.18433984,1236.528397
8.5400,156.2483375,-55.04516886,1236.501061
8.5450,156.2812984,-54.90762171,1236.473578
8.5500,156.3152802,-54.77201625,1236.445979
8.5550,156.3491655,-54.63877407,1236.418515
8.5600,156.381451,-54.50685174,1236.391537
8.5650,156.412974,-54.3764567,1236.364865
8.5700,156.4423891,-54.24846432,1236.338767
8.5750,156.4693035,-54.12168772,1236.313376
8.5800,156.4936645,-53.9969544,1236.288672
8.5850,156.5147024,-53.87364131,1236.264836
8.5900,156.5327813,-53.75199452,1236.241793
8.5950,156.5485563,-53.63223808,1236.219348
8.6000,156.5606239,-53.51427406,1236.197853
8.6050,156.5698869,-53.39781456,1236.177091
8.6100,156.5754866,-53.283285,1236.15725
8.6150,156.5774708,-53.16996753,1236.138349
8.6200,156.5769238,-53.05749844,1236.120157
8.6250,156.5739086,-52.94533386,1236.102686
8.6300,156.5672739,-52.83342093,1236.086192
8.6350,156.5582604,-52.7200114,1236.070439
8.6400,156.5473161,-52.60552048,1236.055331
8.6450,156.534845,-52.49081029,1236.04074
8.6500,156.5208426,-52.37380468,1236.02673
8.6550,156.5059538,-52.25483477,1236.013159
8.6600,156.4905932,-52.13276055,1235.999989
8.6650,156.4753794,-52.00794533,1235.987065
8.6700,156.4594695,-51.88101806,1235.974554
8.6750,156.4426843,-51.75145333,1235.962511
8.6800,156.4255087,-51.61929442,1235.95085
8.6850,156.4080195,-51.48454385,1235.939542
8.6900,156.3913296,-51.34715451,1235.928339
8.6950,156.3756407,-51.20817331,1235.917138
8.7000,156.3616894,-51.06660475,1235.905822
8.7050,156.3495165,-50.92298445,1235.894373
8.7100,156.33878,-50.77698281,1235.882855
8.7150,156.331071,-50.62836692,1235.870918
8.7200,156.326284,-50.47716983,1235.858573
8.7250,156.3228192,-50.32301222,1235.846181
8.7300,156.3226645,-50.1660688,1235.833294
8.7350,156.3259242,-50.00567762,1235.819912
8.7400,156.3319264,-49.84129017,1235.806188
8.7450,156.3403766,-49.67420035,1235.792141
8.7500,156.3513977,-49.50272857,1235.777823
8.7550,156.3651756,-49.32816598,1235.763154
8.7600,156.3811744,-49.14843004,1235.748346
8.7650,156.3993057,-48.96494292,1235.733348
8.7700,156.4182297,-48.77680891,1235.718491
8.7750,156.4375904,-48.58412656,1235.703857
8.7800,156.4574845,-48.38794438,1235.689366
8.7850,156.4779518,-48.18791438,1235.67503
8.7900,156.4980113,-47.9833492,1235.661132
8.7950,156.5166668,-47.7755919,1235.647818
8.8000,156.533309,-47.5645187,1235.635262
8.8050,156.5481584,-47.35036271,1235.6234
8.8100,156.5607588,-47.13299943,1235.612346
8.8150,156.5697685,-46.91385511,1235.602338
8.8200,156.5760991,-46.69301628,1235.593168
8.8250,156.5790345,-46.47072719,1235.584987
8.8300,156.5788673,-46.24709942,1235.577733
8.8350,156.5748513,-46.02289139,1235.571513
8.8400,156.5663348,-45.79820801,1235.566486
8.8450,156.5531926,-45.57257303,1235.562697
8.8500,156.5354572,-45.34557001,1235.560155
8.8550,156.5131046,-45.11811933,1235.558807
8.8600,156.4857284,-44.88977708,1235.558776
8.8650,156.4534569,-44.66095357,1235.560006
8.8700,156.4156586,-44.43020299,1235.562711
8.8750,156.3719159,-44.19804864,1235.566945
8.8800,156.3219653,-43.96449029,1235.572793
8.8850,156.267788,-43.72927105,1235.579816
8.8900,156.2076512,-43.4925129,1235.588387
8.8950,156.1408411,-43.25479376,1235.59868
8.9000,156.0689077,-43.0163684,1235.610309
8.9050,155.993108,-42.77597982,1235.623086
8.9100,155.9131995,-42.53408468,1235.63704
8.9150,155.828937,-42.29120094,1235.652212
8.9200,155.7391941,-42.0469836,1235.668892
8.9250,155.6452556,-41.80166801,1235.686775
8.9300,155.5468479,-41.55581271,1235.705915
8.9350,155.4434458,-41.30998315,1235.726417
8.9400,155.3365097,-41.06350149,1235.747986
8.9450,155.2256271,-40.81647763,1235.770734
8.9500,155.1105257,-40.5695337,1235.794688
8.9550,154.9911618,-40.32175625,1235.819925
8.9600,154.8670487,-40.07380342,1235.846525
8.9650,154.7387569,-39.82618391,1235.874344
8.9700,154.6071174,-39.57779878,1235.903272
8.9750,154.4723659,-39.32876809,1235.933244
8.9800,154.3344071,-39.07909765,1235.964287
8.9850,154.1932187,-38.82892753,1235.996405
8.9900,154.0474015,-38.57699655,1236.030017
8.9950,153.8983784,-38.32423213,1236.06476
9.0000,153.7453643,-38.07090574,1236.100773
9.0050,153.5896651,-37.81647399,1236.137819
9.0100,153.4311822,-37.56105188,1236.175916
9.0150,153.2678426,-37.3040684,1236.215606
9.0200,153.1006008,-37.04659872,1236.256572
9.0250,152.9305357,-36.78907039,1236.298569
9.0300,152.7558236,-36.53233823,1236.341943
9.0350,152.5774549,-36.27530117,1236.386575
9.0400,152.3947227,-36.01906008,1236.432566
9.0450,152.208683,-35.76347945,1236.479685
9.0500,152.0194522,-35.50787446,1236.527958
9.0550,151.8260527,-35.25224232,1236.577612
9.0600,151.6297785,-34.99622747,1236.628373
9.0650,151.430869,-34.73897642,1236.680279
9.0700,151.2305026,-34.48063513,1236.733053
9.0750,151.0289185,-34.22035062,1236.786714
9.0800,150.8256337,-33.95733123,1236.841478
9.0850,150.622021,-33.69108509,1236.897051
9.0900,150.4180836,-33.42227751,1236.953409
9.0950,150.2129501,-33.15032209,1237.010798
9.1000,150.0068983,-32.8748432,1237.069214
9.1050,149.8002167,-32.59620224,1237.128559
9.1100,149.5922799,-32.31375543,1237.189052
9.1150,149.3850282,-32.02658948,1237.25033
9.1200,149.1772686,-31.73485957,1237.312664
9.1250,148.970735,-31.43827826,1237.375693
9.1300,148.7632492,-31.13661504,1237.439955
9.1350,148.556405,-30.82924957,1237.505158
9.1400,148.348605,-30.51699041,1237.571608
9.1450,148.1403646,-30.20092886,1237.639118
9.1500,147.9308187,-29.88122753,1237.707917
9.1550,147.7202627,-29.55720652,1237.777977
9.1600,147.5087671,-29.22998563,1237.849183
9.1650,147.2952305,-28.89842442,1237.92195
9.1700,147.0808146,-28.56354736,1237.995911
9.1750,146.8649605,-28.22608032,1238.071127
9.1800,146.6475527,-27.88551062,1238.147716
9.1850,146.4285509,-27.54283111,1238.225583
9.1900,146.2081099,-27.19703195,1238.304794
9.1950,145.9867805,-26.84793341,1238.385236
9.2000,145.7635213,-26.49511347,1238.467219
9.2050,145.5368658,-26.13918604,1238.551081
9.2100,145.3075787,-25.77902812,1238.636734
9.2150,145.0757714,-25.41496281,1238.724137
9.2200,144.8428928,-25.04678276,1238.812971
9.2250,144.6083443,-24.67391141,1238.903479
9.2300,144.3729825,-24.29586034,1238.99547
9.2350,144.1364995,-23.91260268,1239.089041
9.2400,143.8969972,-23.52485814,1239.184635
9.2450,143.6549261,-23.13257467,1239.282137
9.2500,143.4116876,-22.73504109,1239.38129
9.2550,143.1658097,-22.33394377,1239.482289
9.2600,142.9186076,-21.92954206,1239.584795
9.2650,142.668516,-21.52114978,1239.68927
9.2700,142.4158178,-21.10977648,1239.795527
9.2750,142.1611065,-20.6952943,1239.90347
9.2800,141.9047432,-20.27777753,1240.012981
9.2850,141.6455288,-19.85687458,1240.124443
9.2900,141.385007,-19.4345022,1240.237212
9.2950,141.1221155,-19.00983759,1240.351674
9.3000,140.8563667,-18.58287856,1240.467988
9.3050,140.5871235,-18.15425872,1240.586275
9.3100,140.3151945,-17.72381718,1240.706345
9.3150,140.0413333,-17.29196722,1240.827979
9.3200,139.7653072,-16.85824994,1240.951317
9.3250,139.4876754,-16.42306042,1241.076163
9.3300,139.2092941,-15.98567899,1241.20243
9.3350,138.929872,-15.54765692,1241.329973
9.3400,138.650286,-15.10835673,1241.458671
9.3450,138.3695968,-14.66689855,1241.588868
9.3500,138.0889795,-14.22323601,1241.720298
9.3550,137.8095157,-13.77727978,1241.852656
9.3600,137.5308322,-13.32916891,1241.986052
9.3650,137.2534561,-12.88001928,1242.120201
9.3700,136.9779645,-12.43091837,1242.254805
9.3750,136.7043483,-11.98117696,1242.38999
9.3800,136.4317547,-11.53184915,1242.525809
9.3850,136.1602738,-11.08373484,1242.662178
9.3900,135.8899493,-10.63685685,1242.799019
9.3950,135.6223712,-10.19128003,1242.935947
9.4000,135.3568081,-9.747972491,1243.072983
9.4050,135.0928612,-9.306902234,1243.210243
9.4100,134.8307863,-8.867775013,1243.347682
9.4150,134.5689797,-8.431162095,1243.48564
9.4200,134.3085773,-7.995935325,1243.623985
9.4250,134.0480676,-7.562846935,1243.762999
9.4300,133.7893049,-7.131201574,1243.902257
9.4350,133.5316591,-6.702003496,1244.04177
9.4400,133.2768078,-6.2738065,1244.181319
9.4450,133.0239261,-5.845971249,1244.321219
9.4500,132.7726149,-5.419389936,1244.461418
9.4550,132.5212991,-4.99440324,1244.602354
9.4600,132.2702403,-4.571592234,1244.743849
9.4650,132.0187042,-4.151579342,1244.886003
9.4700,131.7657155,-3.734477563,1245.029073
9.4750,131.5113014,-3.319736639,1245.17315
9.4800,131.2552664,-2.907725006,1245.318216
9.4850,130.9961,-2.498021933,1245.464785
9.4900,130.7339527,-2.08992759,1245.612951
9.4950,130.4686511,-1.682874012,1245.762804
9.5000,130.1995457,-1.276428944,1245.914635
9.5050,129.9282389,-0.8697777741,1246.068085
9.5100,129.653898,-0.4639628403,1246.223221
9.5150,129.3760057,-0.05825474707,1246.380299
9.5200,129.0945116,0.347316083,1246.539296
9.5250,128.8084296,0.7523917365,1246.700443
9.5300,128.5180782,1.157840245,1246.863803
9.5350,128.2258411,1.564110382,1247.028741
9.5400,127.9328896,1.970980933,1247.194822
9.5450,127.6392526,2.379333086,1247.36222
9.5500,127.3444047,2.788304724,1247.53089
9.5550,127.0506273,3.198190879,1247.700174
9.5600,126.7588519,3.608299154,1247.869627
9.5650,126.470001,4.018441417,1248.038924
9.5700,126.1852676,4.427075684,1248.207377
9.5750,125.9052376,4.833567683,1248.374638
9.5800,125.6298221,5.236072819,1248.540381
9.5850,125.3610672,5.632443442,1248.703518
9.5900,125.0976884,6.022512123,1248.864378
9.5950,124.8407737,6.405038804,1249.022356
9.6000,124.5898897,6.778564022,1249.177247
9.6050,124.3447617,7.142021247,1249.328882
9.6100,124.1047206,7.493774969,1249.477099
9.6150,123.8696408,7.833225641,1249.621786
9.6200,123.6395217,8.16095215,1249.763032
9.6250,123.4135539,8.477060566,1249.901085
9.6300,123.1912207,8.781974938,1250.036141
9.6350,122.971477,9.076786691,1250.168752
9.6400,122.755102,9.362060451,1250.298741
9.6450,122.5419597,9.637752003,1250.426155
9.6500,122.3305868,9.90447408,1250.551597
9.6550,122.1213182,10.16343004,1250.675197
9.6600,121.91363,10.41446391,1250.797091
9.6650,121.7066362,10.65915791,1250.917864
9.6700,121.4995044,10.89886094,1251.038103
9.6750,121.2923919,11.13380547,1251.157745
9.6800,121.0858109,11.36552853,1251.276966
9.6850,120.8787612,11.59355427,1251.395958
9.6900,120.6714927,11.81919923,1251.514942
9.6950,120.4640268,12.04260323,1251.633869
9.7000,120.2563844,12.26474177,1251.752955
9.7050,120.0479354,12.48590331,1251.872502
9.7100,119.8391982,12.70567866,1251.992257
9.7150,119.6298959,12.92562807,1252.112661
9.7200,119.4193005,13.14489298,1252.233791
9.7250,119.2078096,13.36415675,1252.355707
9.7300,118.9939124,13.58318049,1252.478898
9.7350,118.7765441,13.80305303,1252.603963
9.7400,118.5545486,14.02436295,1252.731438
9.7450,118.3277127,14.24738643,1252.861457
9.7500,118.0956887,14.47339401,1252.994474
9.7550,117.8601552,14.7029204,1253.13002
9.7600,117.6202509,14.93788725,1253.268856
9.7650,117.3757922,15.17782446,1253.410972
9.7700,117.1269514,15.4233454,1253.556487
9.7750,116.8725432,15.6751133,1253.705998
9.7800,116.6121143,15.93279725,1253.859586
9.7850,116.344953,16.19689306,1254.017672
9.7900,116.0709259,16.46657671,1254.180117
9.7950,115.7903935,16.74108114,1254.346686
9.8000,115.5032451,17.01999957,1254.517346
9.8050,115.2072281,17.30255244,1254.692756
9.8100,114.9032625,17.5888217,1254.872637
9.8150,114.5906878,17.87936754,1255.057393
9.8200,114.2693545,18.17426564,1255.247133
9.8250,113.9405781,18.47278579,1255.441247
9.8300,113.6035783,18.77329831,1255.639666
9.8350,113.2570536,19.07636671,1255.843004
9.8400,112.9006851,19.38182315,1256.051382
9.8450,112.5357755,19.68932417,1256.264272
9.8500,112.1627447,19.99865977,1256.481553
9.8550,111.7816584,20.30995051,1256.703283
9.8600,111.3920626,20.62440339,1256.929936
9.8650,110.9959786,20.94189812,1257.1608
9.8700,110.5926332,21.26259052,1257.396243
9.8750,110.1826313,21.58660825,1257.636108
9.8800,109.7676156,21.91437322,1257.879903
9.8850,109.3472324,22.24510734,1258.127566
9.8900,108.9237053,22.57931267,1258.378427
9.8950,108.4963444,22.91521914,1258.632297
9.9000,108.0663742,23.25379697,1258.88901
9.9050,107.6353963,23.59353292,1259.147532
9.9100,107.2038661,23.93532113,1259.407966
9.9150,106.772874,24.27829716,1259.669605
9.9200,106.3423156,24.62125833,1259.932207
9.9250,105.913659,24.96469573,1260.195297
9.9300,105.4869346,25.30781415,1260.458652
9.9350,105.0638076,25.65050474,1260.721541
9.9400,104.6439814,25.99188027,1260.983841
9.9450,104.2285216,26.33256756,1261.245266
9.9500,103.8182534,26.67066558,1261.504893
9.9550,103.414293,27.00674401,1261.762431
9.9600,103.0174916,27.34089738,1262.017481
9.9650,102.6294457,27.67310712,1262.269381
9.9700,102.2502399,28.00246993,1262.517763
9.9750,101.8794865,28.32776174,1262.762449
9.9800,101.5185068,28.64877395,1263.002783
9.9850,101.1674912,28.96618055,1263.238817
9.9900,100.8272411,29.27856095,1263.469756
9.9950,100.4975832,29.58698575,1263.695945
10.0000,100.1788113,29.89015069,1263.916822
10.0050,99.87296908,30.18776809,1264.131359
10.0100,99.57919419,30.48090298,1264.340162
10.0150,99.29884399,30.76794932,1264.542171
10.0200,99.0314302,31.0494183,1264.737614
10.0250,98.7771395,31.32449176,1264.926122
10.0300,98.5359251,31.59385545,1265.107854
10.0350,98.3071984,31.85669344,1265.282792
10.0400,98.09127738,32.11337975,1265.45085
10.0450,97.88755532,32.36307049,1265.612035
10.0500,97.69552492,32.60650964,1265.766735
10.0550,97.51352854,32.84402339,1265.915776
10.0600,97.34064312,33.0754196,1266.05946
10.0650,97.17705536,33.30112148,1266.197805
10.0700,97.0226275,33.52199695,1266.331102
10.0750,96.8761728,33.73750483,1266.459701
10.0800,96.7371978,33.94886943,1266.584183
10.0850,96.60521393,34.15567756,1266.704604
10.0900,96.47919873,34.35846836,1266.821573
10.0950,96.35857234,34.55840498,1266.935661
10.1000,96.24280619,34.75562485,1267.047133
10.1050,96.13071619,34.95086142,1267.156688
10.1100,96.020992,35.14402884,1267.26488
10.1150,95.9137411,35.33472248,1267.371541
10.1200,95.80807756,35.52316664,1267.477142
10.1250,95.700231,35.70933023,1267.583292
10.1300,95.59055496,35.89464389,1267.690298
10.1350,95.4778437,36.07896702,1267.798637
10.1400,95.36161692,36.26264606,1267.908675
10.1450,95.23986681,36.44687055,1268.021638
10.1500,95.11137305,36.63182518,1268.138125
10.1550,94.97546552,36.81769941,1268.258497
10.1600,94.8334118,37.00504729,1268.382408
10.1650,94.6823334,37.19272932,1268.510774
10.1700,94.52353626,37.38309048,1268.643773
10.1750,94.35585692,37.57521799,1268.781684
10.1800,94.17768195,37.76888923,1268.925143
10.1850,93.9884504,37.96491182,1269.07472
10.1900,93.78727688,38.16116664,1269.230208
10.1950,93.57513333,38.35979476,1269.391839
10.2000,93.35237063,38.55904803,1269.558904
10.2050,93.11853605,38.76052212,1269.732168
10.2100,92.8746236,38.96332939,1269.910872
10.2150,92.62040316,39.16750793,1270.095166
10.2200,92.3576724,39.37394685,1270.284548
10.2250,92.08530897,39.58192571,1270.479273
10.2300,91.80534352,39.79062838,1270.67818
10.2350,91.51783185,40.00054388,1270.881424
10.2400,91.22388061,40.21192671,1271.08855
10.2450,90.92613449,40.4242986,1271.298205
10.2500,90.62517268,40.63833834,1271.510381
10.2550,90.32099799,40.85332895,1271.72483
10.2600,90.0153677,41.06991193,1271.94098
10.2650,89.70816209,41.28640954,1272.158355
10.2700,89.40001423,41.50383376,1272.376987
10.2750,89.09415285,41.7226637,1272.595512
10.2800,88.79133276,41.94249431,1272.813445
10.2850,88.49233974,42.16282466,1273.030234
10.2900,88.19836616,42.38279346,1273.245018
10.2950,87.91095419,42.60132093,1273.45668
10.3000,87.63118622,42.81832146,1273.664654
10.3050,87.35854376,43.03388153,1273.869173
10.3100,87.09481011,43.24517845,1274.068448
10.3150,86.8405995,43.45246591,1274.262177
10.3200,86.59628112,43.65451717,1274.449787
10.3250,86.36158715,43.85052102,1274.631028
10.3300,86.137761,44.04005882,1274.805143
10.3350,85.92559613,44.22367283,1274.971863
10.3400,85.72453954,44.39900465,1275.130644
10.3450,85.53497114,44.56785568,1275.281838
10.3500,85.3574744,44.73015678,1275.425099
10.3550,85.19278721,44.88585279,1275.559981
10.3600,85.04171796,45.03419392,1275.685828
10.3650,84.90315513,45.17671973,1275.803646
10.3700,84.77696575,45.31205878,1275.913018
10.3750,84.66362253,45.44098665,1276.013912
10.3800,84.56223009,45.56339134,1276.10673
10.3850,84.47235705,45.67991184,1276.191882
10.3900,84.39268649,45.79129086,1276.270213
10.3950,84.32219948,45.8968285,1276.341995
10.4000,84.25990211,45.99754597,1276.40805
10.4050,84.20550563,46.09219716,1276.468133
10.4100,84.15775224,46.18218516,1276.52335
10.4150,84.11590696,46.26801766,1276.574247
10.4200,84.07815255,46.34930792,1276.62157
10.4250,84.0457547,46.42821174,1276.665463
10.4300,84.01660993,46.50385646,1276.706646
10.4350,83.98945966,46.5764346,1276.745819
10.4400,83.96348461,46.64775453,1276.783978
10.4450,83.93843194,46.71570446,1276.820514
10.4500,83.91407036,46.78151551,1276.855987
10.4550,83.88900769,46.84550328,1276.891175
10.4600,83.86087527,46.90704253,1276.927047
10.4650,83.82993545,46.96778946,1276.964013
10.4700,83.79441576,47.02619708,1277.002416
10.4750,83.75428809,47.08342145,1277.042652
10.4800,83.71024393,47.13900875,1277.084252
10.4850,83.66179921,47.19338746,1277.127598
10.4900,83.60874097,47.24776403,1277.173199
10.4950,83.54977877,47.30197377,1277.221632
10.5000,83.48553295,47.35542081,1277.27243
10.5050,83.41549645,47.40841209,1277.325942
10.5100,83.34043456,47.46031677,1277.381595
10.5150,83.25954774,47.51230961,1277.440185
10.5200,83.17267044,47.56320295,1277.501367
10.5250,83.08072483,47.6130698,1277.564777
10.5300,82.98258448,47.66356171,1277.631516
10.5350,82.87902483,47.71465422,1277.701225
10.5400,82.77037507,47.76490305,1277.773274
10.5450,82.65454334,47.81594591,1277.84929
10.5500,82.53184283,47.86739317,1277.928977
10.5550,82.40360709,47.91978764,1278.011886
10.5600,82.26812321,47.97328188,1278.098942
10.5650,82.12644254,48.02830222,1278.18977
10.5700,81.97971504,48.08578482,1278.284149
10.5750,81.82762131,48.14533078,1278.382109
10.5800,81.67071013,48.20699231,1278.483398
10.5850,81.51000393,48.27084013,1278.587523
10.5900,81.34484679,48.33708265,1278.694924
10.5950,81.17584728,48.40530645,1278.805138
10.6000,81.00321929,48.47497012,1278.917886
10.6050,80.8288846,48.54672141,1279.032452
10.6100,80.65239654,48.6206852,1279.149102
10.6150,80.4733928,48.69475249,1279.267273
10.6200,80.29323415,48.76952821,1279.386473
10.6250,80.11199343,48.84595063,1279.507032
10.6300,79.93053401,48.92246136,1279.627942
10.6350,79.74914539,48.99932214,1279.749132
10.6400,79.56965499,49.07747895,1279.869972
10.6450,79.39156022,49.15570649,1279.990294
10.6500,79.21627748,49.23388115,1280.109304
10.6550,79.04461898,49.3124082,1280.226756
10.6600,78.87661994,49.39174788,1280.34275
10.6650,78.71242374,49.47165672,1280.45715
10.6700,78.55173787,49.55204902,1280.570047
10.6750,78.39519598,49.63255651,1280.681047
10.6800,78.24248243,49.71278325,1280.79013
10.6850,78.09309393,49.79355862,1280.89786
10.6900,77.94809142,49.87303324,1281.003038
10.6950,77.80684055,49.95058188,1281.105747
10.7000,77.66866563,50.02559204,1281.206104
10.7050,77.53459504,50.09965568,1281.304136
10.7100,77.40474319,50.17150924,1281.399264
10.7150,77.27802245,50.2402186,1281.491705
10.7200,77.15443312,50.30517584,1281.581199
10.7250,77.03361217,50.36509025,1281.667467
10.7300,76.91642662,50.42175815,1281.75067
10.7350,76.80227682,50.47412212,1281.83072
10.7400,76.69162763,50.52094939,1281.906926
10.7450,76.58508654,50.5647203,1281.979903
10.7500,76.48278303,50.60428652,1282.04914
10.7550,76.38499374,50.64070885,1282.114872
10.7600,76.2921476,50.67471139,1282.177133
10.7650,76.20440202,50.70538033,1282.23556
10.7700,76.12275242,50.73510989,1282.290478
10.7750,76.04790537,50.76277747,1282.341129
10.7800,75.97974813,50.79009534,1282.388197
10.7850,75.91896754,50.81736545,1282.431424
10.7900,75.86569921,50.84384516,1282.470461
10.7950,75.82029219,50.86854892,1282.504813
10.8000,75.78264798,50.89216582,1282.534728
10.8050,75.7514554,50.91371191,1282.560531
10.8100,75.72696925,50.93220063,1282.581732
10.8150,75.70865685,50.94700723,1282.598373
10.8200,75.6965722,50.9578544,1282.610331
10.8250,75.69088498,50.96532497,1282.617692
10.8300,75.69145248,50.96748722,1282.61983
10.8350,75.69883201,50.96521979,1282.61675
10.8400,75.71359802,50.96011141,1282.608717
10.8450,75.73550535,50.95065387,1282.595293
10.8500,75.76418824,50.93667971,1282.576627
10.8550,75.79938317,50.91966675,1282.553379
10.8600,75.84288783,50.89903379,1282.524402
10.8650,75.8947305,50.87618215,1282.490203
10.8700,75.95452585,50.84979214,1282.4505
10.8750,76.02216309,50.82077843,1282.405697
10.8800,76.09753624,50.79000926,1282.35617
10.8850,76.18141909,50.75685795,1282.301327
10.8900,76.27436955,50.72132012,1282.240843
10.8950,76.37650914,50.68437331,1282.175023
10.9000,76.48809515,50.64580909,1282.103696
10.9050,76.60831174,50.60372369,1282.026563
10.9100,76.73818144,50.55869314,1281.943264
10.9150,76.87856493,50.51086411,1281.853467
10.9200,77.02882298,50.45897082,1281.757042
10.9250,77.18921994,50.40210592,1281.653502
10.9300,77.35905275,50.34072628,1281.543407
10.9350,77.53950674,50.27298198,1281.42551
10.9400,77.72897913,50.19744545,1281.30013
10.9450,77.92825576,50.1141953,1281.166903
10.9500,78.13594987,50.02124521,1281.025877
10.9550,78.35166418,49.91902058,1280.877424
10.9600,78.57460905,49.80704473,1280.721785
10.9650,78.80520921,49.68516285,1280.55874
10.9700,79.04355065,49.55377787,1280.388418
10.9750,79.28832595,49.41202068,1280.211171
10.9800,79.54056215,49.26162389,1280.027165
10.9850,79.7998726,49.10115359,1279.836116
10.9900,80.06566638,48.93146361,1279.638688
10.9950,80.33799294,48.7532988,1279.435185
11.0000,80.61695019,48.56748286,1279.225911
11.0050,80.90135887,48.37307037,1279.011163
11.0100,81.19051369,48.1716213,1278.791921
11.0150,81.48493556,47.96282937,1278.567879
11.0200,81.78455822,47.74738783,1278.339385
11.0250,82.08862327,47.52587706,1278.107031
11.0300,82.39618775,47.29749172,1277.871067
11.0350,82.7087246,47.06323179,1277.631158
11.0400,83.02515172,46.82320618,1277.387922
11.0450,83.34427708,46.57579657,1277.141406
11.0500,83.66511754,46.32181727,1276.892389
11.0550,83.98902845,46.06235332,1276.640636
11.0600,84.31596645,45.79745993,1276.386202
11.0650,84.64661968,45.52864825,1276.129306
11.0700,84.98004357,45.25432762,1275.869901
11.0750,85.31653565,44.97645631,1275.608549
11.0800,85.65528161,44.69504457,1275.345677
11.0850,85.99662545,44.40943341,1275.080944
11.0900,86.34098932,44.12191052,1274.814937
11.0950,86.68831558,43.833118,1274.54792
11.1000,87.03802345,43.54285128,1274.280159
11.1050,87.39109881,43.25123231,1274.011256
11.1100,87.74674018,42.95996821,1273.74216
11.1150,88.10493418,42.66798477,1273.472579
11.1200,88.46487381,42.37522487,1273.202839
11.1250,88.82576996,42.08223004,1272.933515
11.1300,89.18812489,41.78936106,1272.664467
11.1350,89.55050513,41.49543687,1272.39602
11.1400,89.9117526,41.20009901,1272.128604
11.1450,90.27255886,40.90430273,1271.862199
11.1500,90.63337333,40.60826328,1271.59665
11.1550,90.99317206,40.31168893,1271.332347
11.1600,91.35140498,40.0143737,1271.06944
11.1650,91.70740464,39.71567372,1270.808017
11.1700,92.06207844,39.41671575,1270.548036
11.1750,92.415825,39.11726395,1270.289215
11.1800,92.76755828,38.81683431,1270.031886
11.1850,93.11750274,38.51580407,1269.776054
11.1900,93.4649445,38.21453235,1269.522122
11.1950,93.8105984,37.91299978,1269.26979
11.2000,94.15477641,37.61029306,1269.018599
11.2050,94.49725946,37.30793321,1268.76914
11.2100,94.83825527,37.00445862,1268.52089
11.2150,95.17728115,36.70137845,1268.274473
11.2200,95.51534084,36.39871609,1268.029466
11.2250,95.85227081,36.09579253,1267.785773
11.2300,96.18795895,35.79172687,1267.543158
11.2350,96.52185296,35.48772938,1267.30223
11.2400,96.85432241,35.18431044,1267.062982
11.2450,97.18655022,34.88141477,1266.824923
11.2500,97.51785734,34.57924934,1266.588376
11.2550,97.84870865,34.27866241,1266.3534
11.2600,98.18004859,33.97921762,1266.119498
11.2650,98.51135606,33.68121365,1265.886945
11.2700,98.84332376,33.38546129,1265.6557
11.2750,99.17693478,33.09382208,1265.425896
11.2800,99.51081658,32.8050646,1265.197721
11.2850,99.84616314,32.52045044,1264.971051
11.2900,100.1832923,32.23938287,1264.745581
11.2950,100.521242,31.96225831,1264.52182
11.3000,100.8598622,31.68722126,1264.299269
11.3050,101.1987879,31.41441749,1264.078099
11.3100,101.5384776,31.14266266,1263.857801
11.3150,101.8773772,30.87182538,1263.638936
11.3200,102.2153093,30.60257446,1263.421756
11.3250,102.5533114,30.33319022,1263.205388
11.3300,102.8903019,30.06416547,1262.990394
11.3350,103.2265261,29.79593217,1262.776765
11.3400,103.5631423,29.52834255,1262.563928
11.3450,103.8998809,29.26230238,1262.352201
11.3500,104.2384646,28.99754635,1262.140839
11.3550,104.5774473,28.73081633,1261.929493
11.3600,104.9169695,28.46315331,1261.718358
11.3650,105.2573792,28.19407648,1261.507161
11.3700,105.5989173,27.92304485,1261.295673
11.3750,105.9412147,27.64941994,1261.083846
11.3800,106.2852486,27.37158968,1260.870851
11.3850,106.6311686,27.09017791,1260.656783
11.3900,106.9784929,26.80459668,1260.441732
11.3950,107.326803,26.51374431,1260.225525
11.4000,107.6764832,26.22052836,1260.008831
11.4050,108.0298529,25.924547,1259.790673
11.4100,108.3868803,25.62667999,1259.571329
11.4150,108.7480489,25.32694247,1259.350627
11.4200,109.1135349,25.02605705,1259.12875
11.4250,109.4833979,24.72241409,1258.905287
11.4300,109.8577069,24.41611451,1258.680309
11.4350,110.236628,24.10694853,1258.453687
11.4400,110.6205231,23.79457517,1258.225215
11.4450,111.0091043,23.47892223,1257.995035
11.4500,111.4029827,23.15993056,1257.76294
11.4550,111.8012937,22.83622787,1257.528903
11.4600,112.2038945,22.50754895,1257.292961
11.4650,112.6109313,22.17488343,1257.05535
11.4700,113.0222983,21.83792625,1256.816052
11.4750,113.4374818,21.49637822,1256.575249
11.4800,113.8577752,21.15116607,1256.332745
11.4850,114.2846701,20.80361623,1256.088363
11.4900,114.7190235,20.45358234,1255.841827
11.4950,115.1602627,20.10094296,1255.593351
11.5000,115.6083759,19.7460951,1255.343087
11.5050,116.0633247,19.38848829,1255.090964
11.5100,116.5248221,19.02864603,1254.837282
11.5150,116.9926426,18.66593542,1254.582034
11.5200,117.4658141,18.30086852,1254.325733
11.5250,117.9442569,17.93245769,1254.06818
11.5300,118.4276423,17.56192788,1253.809816
11.5350,118.9150555,17.18866446,1253.550854
11.5400,119.4063398,16.81254079,1253.291355
11.5450,119.9018129,16.43407143,1253.031308
11.5500,120.4026978,16.05446382,1252.770609
11.5550,120.9079797,15.67174518,1252.509217
11.5600,121.4174612,15.28711079,1252.24749
11.5650,121.9312756,14.90104455,1251.985578
11.5700,122.4478468,14.51266857,1251.723834
11.5750,122.9667797,14.12124527,1251.462264
11.5800,123.4887677,13.72654447,1251.200614
11.5850,124.012662,13.32873201,1250.939344
11.5900,124.5369341,12.92842111,1250.679107
11.5950,125.0612512,12.52646354,1250.420196
11.6000,125.5849222,12.12318591,1250.162912
11.6050,126.1090148,11.7193879,1249.907099
11.6100,126.6320909,11.31536136,1249.653244
11.6150,127.15539,10.90940403,1249.400595
11.6200,127.6795291,10.50229192,1249.149095
11.6250,128.2030357,10.09408039,1248.8992
11.6300,128.7273212,9.683993496,1248.650309
11.6350,129.2497946,9.271535762,1248.403136
11.6400,129.7703673,8.856432867,1248.157728
11.6450,130.2888551,8.438424089,1247.914099
11.6500,130.8038099,8.018361589,1247.672855
11.6550,131.3154712,7.597835131,1247.434236
11.6600,131.8224258,7.176408349,1247.198585
11.6650,132.3249247,6.754196963,1246.965808
11.6700,132.8214536,6.333190951,1246.736699
11.6750,133.3126975,5.913174943,1246.510967
11.6800,133.7983624,5.49646777,1246.289131
11.6850,134.2787209,5.082904061,1246.071012
11.6900,134.7530286,4.671667536,1245.856597
11.6950,135.2229191,4.264816085,1245.645765
11.7000,135.688515,3.860538724,1245.438078
11.7050,136.1490952,3.459902385,1245.233854
11.7100,136.605571,3.062311842,1245.032709
11.7150,137.0579132,2.667754289,1244.834601
11.7200,137.5067206,2.276367841,1244.639335
11.7250,137.9524087,1.888225583,1244.446804
11.7300,138.3945805,1.503193205,1244.257097
11.7350,138.8343459,1.121254907,1244.069882
11.7400,139.2708857,0.742183498,1243.885345
11.7450,139.7043288,0.3653158714,1243.703314
11.7500,140.1354536,-0.008611499497,1243.52369
11.7550,140.5642244,-0.3806601578,1243.346328
11.7600,140.9919452,-0.7492145434,1243.171149
11.7650,141.4196279,-1.114294599,1242.997871
11.7700,141.8468568,-1.47684962,1242.826433
11.7750,142.274724,-1.835228691,1242.656814
11.7800,142.7044367,-2.190133948,1242.488544
11.7850,143.1347538,-2.541143084,1242.322012
11.7900,143.5657459,-2.888982434,1242.157081
11.7950,143.9978122,-3.232969664,1241.993712
11.8000,144.4312933,-3.573552791,1241.831746
11.8050,144.8667527,-3.910302174,1241.671091
11.8100,145.3030843,-4.242438262,1241.512106
11.8150,145.7413109,-4.570086558,1241.354513
11.8200,146.1818478,-4.894519956,1241.197971
11.8250,146.6254186,-5.213973127,1241.04256
11.8300,147.0724473,-5.530332921,1240.887862
11.8350,147.5220784,-5.84356394,1240.734084
11.8400,147.9739278,-6.154049358,1240.581259
11.8450,148.4265916,-6.462804035,1240.42959
11.8500,148.8795899,-6.770338219,1240.27911
11.8550,149.3334434,-7.077081278,1240.129571
11.8600,149.787896,-7.382965501,1239.981082
11.8650,150.2427255,-7.688937072,1239.833497
11.8700,150.6981996,-7.995267657,1239.686742
11.8750,151.1538816,-8.30222695,1239.540896
11.8800,151.6094367,-8.609512212,1239.396105
11.8850,152.0646014,-8.918185131,1239.252272
11.8900,152.5192855,-9.227164491,1239.109623
11.8950,152.9742772,-9.538250023,1238.967709
11.9000,153.4291919,-9.850214841,1238.826822
11.9050,153.8820957,-10.16457748,1238.687169
11.9100,154.3344589,-10.48087492,1238.54848
11.9150,154.7848567,-10.79694015,1238.411401
11.9200,155.2319028,-11.11369128,1238.276096
11.9250,155.6755505,-11.42954222,1238.142759
11.9300,156.115563,-11.7442791,1238.011457
11.9350,156.5525421,-12.0577872,1237.882045
11.9400,156.9842718,-12.37021374,1237.75494
11.9450,157.4103443,-12.68206394,1237.630142
11.9500,157.8295887,-12.99291111,1237.507909
11.9550,158.2409774,-13.30295736,1237.388403
11.9600,158.6453729,-13.61304452,1237.271295
11.9650,159.0411773,-13.92198614,1237.157059
11.9700,159.4289747,-14.23165658,1237.04531
11.9750,159.8068468,-14.54128938,1236.936532
11.9800,160.1762944,-14.8501962,1236.830469
11.9850,160.5367725,-15.15842184,1236.72721
11.9900,160.8895956,-15.46372679,1236.626767
11.9950,161.2339987,-15.76717051,1236.52913
12.0000,161.5705277,-16.06805405,1236.434271
12.0050,161.8973981,-16.36647948,1236.342575
12.0100,162.2136018,-16.66309365,1236.254092
12.0150,162.5190997,-16.95783002,1236.168845
12.0200,162.81298,-17.25133032,1236.086909
12.0250,163.0958977,-17.54299257,1236.008153
12.0300,163.3668365,-17.83245602,1235.932771
12.0350,163.6242307,-18.1202883,1235.86094
12.0400,163.8693021,-18.40619406,1235.792415
12.0450,164.101781,-18.68951333,1235.72727
12.0500,164.3211388,-18.97042693,1235.665516
12.0550,164.5293868,-19.2467828,1235.60699
12.0600,164.7266271,-19.51909447,1235.551575
12.0650,164.9136966,-19.78761237,1235.499039
12.0700,165.092384,-20.04998251,1235.449304
12.0750,165.2625909,-20.30704378,1235.402242
12.0800,165.424286,-20.55809493,1235.357977
12.0850,165.57899,-20.80281184,1235.316218
12.0900,165.7283693,-21.04041628,1235.276711
12.0950,165.8744291,-21.27069938,1235.239111
12.1000,166.0171741,-21.49221521,1235.203545
12.1050,166.1580317,-21.70554962,1235.169647
12.1100,166.2993323,-21.91132885,1235.136875
12.1150,166.4416566,-22.10898009,1235.105145
12.1200,166.5871976,-22.29695156,1235.0742
12.1250,166.737267,-22.47689253,1235.043585
12.1300,166.8921872,-22.64874,1235.01323
12.1350,167.0543874,-22.81232564,1234.982657
12.1400,167.2260987,-22.96725205,1234.951496
12.1450,167.407256,-23.1144538,1234.91965
12.1500,167.5981237,-23.25541421,1234.886912
12.1550,167.7974331,-23.38982618,1234.853562
12.1600,168.0038348,-23.51994321,1234.819577
12.1650,168.2165351,-23.64692049,1234.785007
12.1700,168.4350777,-23.77131298,1234.749848
12.1750,168.6587377,-23.89365302,1234.714185
12.1800,168.8848374,-24.01659507,1234.678203
12.1850,169.1130419,-24.13986806,1234.642009
12.1900,169.3409443,-24.26685921,1234.605642
12.1950,169.5683706,-24.39551251,1234.569372
12.2000,169.7937131,-24.52788701,1234.533259
12.2050,170.0162311,-24.66316621,1234.497556
12.2100,170.2347484,-24.80199839,1234.46242
12.2150,170.4489962,-24.94373027,1234.427996
12.2200,170.6586348,-25.08863344,1234.394343
12.2250,170.8636545,-25.23577085,1234.361614
12.2300,171.0642629,-25.38464039,1234.329831
12.2350,171.2609528,-25.53555637,1234.298881
12.2400,171.4540084,-25.68727794,1234.268843
12.2450,171.6439383,-25.83850847,1234.239737
12.2500,171.8321464,-25.98970182,1234.211284
12.2550,172.0184164,-26.13898243,1234.183722
12.2600,172.2028089,-26.28548702,1234.157114
12.2650,172.3857895,-26.42924439,1234.131355
12.2700,172.5673298,-26.56899993,1234.10653
12.2750,172.7486089,-26.70477448,1234.082459
12.2800,172.928676,-26.8370604,1234.059216
12.2850,173.1064122,-26.96491019,1234.037093
12.2900,173.2822537,-27.08984455,1234.015872
12.2950,173.4558667,-27.21167212,1233.995603
12.3000,173.6267445,-27.3318562,1233.97621
12.3050,173.7946779,-27.44958207,1233.95778
12.3100,173.9582732,-27.56523172,1233.940509
12.3150,174.1169331,-27.67829326,1233.924526
12.3200,174.2706287,-27.78877103,1233.909809
12.3250,174.4182761,-27.89628659,1233.896568
12.3300,174.5609795,-28.00171679,1233.884488
12.3350,174.6984234,-28.10507787,1233.873642
12.3400,174.830352,-28.20685437,1233.864018
12.3450,174.9563425,-28.30748054,1233.855647
12.3500,175.0767799,-28.40726838,1233.848432
12.3550,175.1908149,-28.50714207,1233.842388
12.3600,175.2981854,-28.60787464,1233.837447
12.3650,175.4002307,-28.70909998,1233.83343
12.3700,175.4963689,-28.81207151,1233.830285
12.3750,175.5871778,-28.91741059,1233.82789
12.3800,175.6733947,-29.02381832,1233.826225
12.3850,175.7549368,-29.13200297,1233.825243
12.3900,175.8316833,-29.24174625,1233.825002
12.3950,175.9038377,-29.35321965,1233.825445
12.4000,175.9737017,-29.46540747,1233.826312
12.4050,176.0415311,-29.57798842,1233.827568
12.4100,176.1085674,-29.69000368,1233.829114
12.4150,176.1755631,-29.8014827,1233.830826
12.4200,176.2421296,-29.91399615,1233.832606
12.4250,176.3075669,-30.02660981,1233.834655
12.4300,176.3727598,-30.13911223,1233.836836
12.4350,176.4370108,-30.2523456,1233.839175
12.4400,176.499674,-30.36710351,1233.841667
12.4450,176.5599969,-30.48364501,1233.844395
12.4500,176.6174879,-30.60117312,1233.847499
12.4550,176.6722844,-30.72087162,1233.850841
12.4600,176.7234391,-30.84216742,1233.854633
12.4650,176.7715696,-30.96535305,1233.858728
12.4700,176.8150547,-31.0901791,1233.863424
12.4750,176.8541765,-31.2166997,1233.868661
12.4800,176.8888292,-31.34410702,1233.87453
12.4850,176.9179364,-31.47323647,1233.881144
12.4900,176.9418599,-31.6017242,1233.88864
12.4950,176.9595262,-31.73083657,1233.897084
12.5000,176.9699828,-31.86020854,1233.906654
12.5050,176.973516,-31.98979808,1233.917292
12.5100,176.9693983,-32.11902136,1233.929183
12.5150,176.9584223,-32.24855991,1233.942102
12.5200,176.9398966,-32.3775721,1233.956258
12.5250,176.9129262,-32.50676207,1233.971722
12.5300,176.8756544,-32.63740599,1233.988668
12.5350,176.828473,-32.76755846,1234.007203
12.5400,176.7725415,-32.89672981,1234.027195
12.5450,176.7071414,-33.02567222,1234.048692
12.5500,176.6319252,-33.15373702,1234.071826
12.5550,176.5482047,-33.28064516,1234.096392
12.5600,176.4560379,-33.40633308,1234.122417
12.5650,176.3551661,-33.53029444,1234.149993
12.5700,176.2467296,-33.65188793,1234.179025
12.5750,176.1301901,-33.77066584,1234.209614
12.5800,176.0062657,-33.88643177,1234.241681
12.5850,175.8758514,-33.99897961,1234.27509
12.5900,175.7379377,-34.10823373,1234.309995
12.5950,175.5925553,-34.21243106,1234.346567
12.6000,175.4396052,-34.31232119,1234.384752
12.6050,175.2804801,-34.40795133,1234.424345
12.6100,175.1163208,-34.49896814,1234.465181
12.6150,174.9478238,-34.58656735,1234.507064
12.6200,174.7760704,-34.6705214,1234.549837
12.6250,174.6012035,-34.75185029,1234.593398
12.6300,174.4233026,-34.83067427,1234.637732
12.6350,174.2433494,-34.90765939,1234.682618
12.6400,174.0630901,-34.98200197,1234.727801
12.6450,173.8837756,-35.05401721,1234.77303
12.6500,173.7061169,-35.12458321,1234.818119
12.6550,173.5322553,-35.19338616,1234.862724
12.6600,173.3637164,-35.25917719,1234.906702
12.6650,173.1991426,-35.32247555,1234.950208
12.6700,173.0407105,-35.38289418,1234.992905
12.6750,172.888432,-35.43921824,1235.034862
12.6800,172.7423625,-35.49315934,1235.075905
12.6850,172.6017988,-35.54487246,1235.116135
12.6900,172.467244,-35.59491173,1235.155381
12.6950,172.3365518,-35.64315106,1235.19403
12.7000,172.209897,-35.69012642,1235.231995
12.7050,172.0862068,-35.73704054,1235.269363
12.7100,171.9648883,-35.78463843,1235.306167
12.7150,171.8438068,-35.83384526,1235.342682
12.7200,171.7221811,-35.8845061,1235.379066
12.7250,171.5998481,-35.93732606,1235.415294
12.7300,171.4755003,-35.9926499,1235.451562
12.7350,171.3483919,-36.0497312,1235.488088
12.7400,171.2185328,-36.10862831,1235.524887
12.7450,171.0857194,-36.16841778,1235.562067
12.7500,170.9499334,-36.23006047,1235.599573
12.7550,170.8110258,-36.29345239,1235.637451
12.7600,170.669634,-36.35830798,1235.6756
12.7650,170.5247982,-36.42497595,1235.714183
12.7700,170.3766486,-36.49362529,1235.753156
12.7750,170.2248359,-36.56392274,1235.792612
12.7800,170.069257,-36.63601243,1235.832566
12.7850,169.9096083,-36.70998967,1235.873055
12.7900,169.746988,-36.78586823,1235.913895
12.7950,169.5806716,-36.8638601,1235.955207
12.8000,169.4121101,-36.94297793,1235.996813
12.8050,169.2420561,-37.02286214,1236.038604
12.8100,169.0707808,-37.10333191,1236.080559
12.8150,168.8976178,-37.18436616,1236.1228
12.8200,168.7241627,-37.26540174,1236.165072
12.8250,168.550711,-37.3464606,1236.207322
12.8300,168.3778699,-37.42658945,1236.249523
12.8350,168.2056547,-37.50744279,1236.291556
12.8400,168.0323675,-37.58890595,1236.333739
12.8450,167.8586366,-37.67112526,1236.375964
12.8500,167.6845626,-37.75384456,1236.418214
12.8550,167.5092691,-37.8379313,1236.460605
12.8600,167.3321952,-37.92368129,1236.503198
12.8650,167.1538599,-38.0117561,1236.545853
12.8700,166.9746887,-38.10322042,1236.588409
12.8750,166.7940814,-38.19829256,1236.630962
12.8800,166.6117751,-38.29660479,1236.673585
12.8850,166.4285895,-38.39910014,1236.716064
12.8900,166.2451751,-38.50431205,1236.758394
12.8950,166.0613003,-38.61381448,1236.800489
12.9000,165.8778371,-38.72604553,1236.842325
12.9050,165.6941036,-38.8426241,1236.883893
12.9100,165.5105029,-38.96249338,1236.925213
12.9150,165.3268146,-39.08523726,1236.966333
12.9200,165.141845,-39.21140585,1237.007467
12.9250,164.9566535,-39.34085381,1237.048408
12.9300,164.7722517,-39.47344344,1237.088988
12.9350,164.5883037,-39.60859279,1237.129323
12.9400,164.4047241,-39.74625327,1237.169426
12.9450,164.2228577,-39.88623523,1237.209064
12.9500,164.0435545,-40.02840091,1237.248075
12.9550,163.8662671,-40.17283515,1237.286561
12.9600,163.6917411,-40.3209338,1237.324283
12.9650,163.5211409,-40.4715651,1237.36109
12.9700,163.3545671,-40.62518606,1237.396937
12.9750,163.192477,-40.78224337,1237.431714
12.9800,163.0352636,-40.94217307,1237.465367
12.9850,162.8838346,-41.10549206,1237.497688
12.9900,162.7388913,-41.2706467,1237.528634
12.9950,162.6015072,-41.43965593,1237.557837
13.0000,162.4704509,-41.61183636,1237.585589
13.0050,162.3466851,-41.78727035,1237.611688
13.0100,162.2290924,-41.96575282,1237.636366
13.0150,162.119675,-42.14826176,1237.65916
13.0200,162.0177555,-42.33499962,1237.680184
13.0250,161.9240687,-42.52463049,1237.699377
13.0300,161.8385185,-42.71623821,1237.716819
13.0350,161.7622889,-42.91133175,1237.732154
13.0400,161.6942392,-43.11016135,1237.745594
13.0450,161.6349931,-43.31268401,1237.757019
13.0500,161.5838383,-43.51798436,1237.766632
13.0550,161.5411723,-43.72596246,1237.77436
13.0600,161.5072823,-43.93649765,1237.780155
13.0650,161.4817954,-44.14907344,1237.784119
13.0700,161.465058,-44.36350437,1237.786208
13.0750,161.4562972,-44.57974735,1237.786573
13.0800,161.4554639,-44.79715372,1237.785271
13.0850,161.4629511,-45.01565503,1237.782222
13.0900,161.4784166,-45.23515623,1237.777526
13.0950,161.5006918,-45.45577653,1237.771405
13.1000,161.5291957,-45.67749613,1237.763985
13.1050,161.5629292,-45.89985805,1237.755511
13.1100,161.600655,-46.12241505,1237.746242
13.1150,161.641686,-46.3450756,1237.736334
13.1200,161.6838795,-46.56736601,1237.726247
13.1250,161.7272883,-46.79011067,1237.715925
13.1300,161.7715852,-47.01171487,1237.705523
13.1350,161.8151191,-47.23161326,1237.69539
13.1400,161.8571553,-47.45067261,1237.68563
13.1450,161.8970574,-47.66769806,1237.676433
13.1500,161.9334889,-47.88303935,1237.668038
13.1550,161.9665874,-48.09726255,1237.66038
13.1600,161.9957111,-48.30911285,1237.653656
13.1650,162.0196619,-48.51981785,1237.648028
13.1700,162.0373986,-48.72762889,1237.643794
13.1750,162.0489397,-48.93171484,1237.64098
13.1800,162.052605,-49.1328421,1237.639885
13.1850,162.0474693,-49.32931071,1237.640762
13.1900,162.0333405,-49.52175562,1237.643602
13.1950,162.0116691,-49.70972783,1237.648153
13.2000,161.9804105,-49.89264373,1237.654816
13.2050,161.9395666,-50.06973539,1237.66363
13.2100,161.8887634,-50.24178431,1237.674638
13.2150,161.8293381,-50.4084402,1237.687582
13.2200,161.7610322,-50.56964817,1237.702505
13.2250,161.6841363,-50.72577161,1237.71934
13.2300,161.599198,-50.87572702,1237.738014
13.2350,161.5066351,-51.01958952,1237.758424
13.2400,161.4060733,-51.15793442,1237.780635
13.2450,161.2988841,-51.2917694,1237.804337
13.2500,161.1849379,-51.42032962,1237.829584
13.2550,161.0658024,-51.54381262,1237.856054
13.2600,160.9430484,-51.66093881,1237.883459
13.2650,160.8176011,-51.77409809,1237.911529
13.2700,160.6897414,-51.88279764,1237.940217
13.2750,160.5624241,-51.98633728,1237.968923
13.2800,160.436813,-52.08668512,1237.997346
13.2850,160.3143068,-52.18331802,1238.025194
13.2900,160.1964063,-52.2772609,1238.052129
13.2950,160.084556,-52.36750854,1238.077874
13.3000,159.9807491,-52.45549311,1238.101949
13.3050,159.8851939,-52.54174044,1238.124278
13.3100,159.7991259,-52.6266361,1238.144571
13.3150,159.7225856,-52.70972177,1238.162832
13.3200,159.6571356,-52.79187466,1238.178685
13.3250,159.6020621,-52.87346896,1238.192245
13.3300,159.5570712,-52.95548556,1238.203535
13.3350,159.5223435,-53.03865553,1238.212497
13.3400,159.4964247,-53.12184795,1238.219464
13.3450,159.4791871,-53.2056584,1238.224443
13.3500,159.4698237,-53.29168958,1238.227546
13.3550,159.4668621,-53.37805624,1238.229143
13.3600,159.4683245,-53.4662623,1238.229606
13.3650,159.472942,-53.55463116,1238.229254
13.3700,159.4794201,-53.643904,1238.228339
13.3750,159.4873131,-53.73420315,1238.226969
13.3800,159.4956975,-53.82470342,1238.225369
13.3850,159.5025357,-53.91454369,1238.22399
13.3900,159.5074168,-54.00326309,1238.222921
13.3950,159.5104144,-54.09075833,1238.222159
13.4000,159.5113167,-54.17700185,1238.221762
13.4050,159.5101693,-54.26144631,1238.221732
13.4100,159.5072971,-54.34350922,1238.222024
13.4150,159.5028872,-54.42322031,1238.2226
13.4200,159.4979661,-54.50064703,1238.223251
13.4250,159.4931418,-54.57491209,1238.223868
13.4300,159.4893085,-54.64616993,1238.224263
13.4350,159.4871164,-54.7141382,1238.22431
13.4400,159.4879697,-54.77806386,1238.223735
13.4450,159.4924609,-54.8383629,1238.222399
13.4500,159.5019213,-54.89477912,1238.220043
13.4550,159.5160901,-54.9469435,1238.216723
13.4600,159.5355957,-54.99479011,1238.2123
13.4650,159.5608464,-55.03786943,1238.20671
13.4700,159.5911437,-55.07688548,1238.200073
13.4750,159.6266024,-55.11236797,1238.19235
13.4800,159.6674141,-55.1434803,1238.183535
13.4850,159.7122937,-55.17050005,1238.173885
13.4900,159.7603896,-55.19414109,1238.163564
13.4950,159.8103289,-55.2141398,1238.152854
13.5000,159.861487,-55.23073334,1238.141879
13.5050,159.913187,-55.2446025,1238.130763
13.5100,159.9631385,-55.25467761,1238.119996
13.5150,160.0105657,-55.26170638,1238.109728
13.5200,160.0553304,-55.26588465,1238.099983
13.5250,160.0962272,-55.26704352,1238.09101
13.5300,160.1317595,-55.26594379,1238.083088
13.5350,160.16333,-55.26363738,1238.075907
13.5400,160.19127,-55.25973369,1238.069399
13.5450,160.2141048,-55.25342451,1238.063878
13.5500,160.2330265,-55.24522999,1238.059084
13.5550,160.2488524,-55.23557802,1238.054842
13.5600,160.2615021,-55.22454804,1238.051159
13.5650,160.271986,-55.21207003,1238.047822
13.5700,160.2814608,-55.19855317,1238.044582
13.5750,160.2892596,-55.1845144,1238.041564
13.5800,160.2957312,-55.17044645,1238.038668
13.5850,160.3022313,-55.15625448,1238.035626
13.5900,160.3076468,-55.14104182,1238.032671
13.5950,160.3125816,-55.12569537,1238.029657
13.6000,160.316682,-55.11076361,1238.026631
13.6050,160.3216417,-55.09569158,1238.023253
13.6100,160.3274223,-55.08059513,1238.01953
13.6150,160.3343266,-55.06499044,1238.015401
13.6200,160.3431297,-55.04891021,1238.01071
13.6250,160.3536825,-55.03305319,1238.005467
13.6300,160.3677358,-55.0175226,1237.999295
13.6350,160.3832101,-55.00219038,1237.992617
13.6400,160.4028903,-54.98809378,1237.984834
13.6450,160.4261212,-54.97457668,1237.9761
13.6500,160.4540382,-54.96131431,1237.96618
13.6550,160.4858543,-54.94914951,1237.955205
13.6600,160.5236876,-54.93829851,1237.94274
13.6650,160.568135,-54.92950032,1237.928627
13.6700,160.6186382,-54.92208216,1237.913
13.6750,160.6759863,-54.91676564,1237.895668
13.6800,160.7400443,-54.914295,1237.876627
13.6850,160.8122311,-54.91381074,1237.855611
13.6900,160.8918305,-54.91695918,1237.832731
13.6950,160.9785315,-54.9234014,1237.808045
13.7000,161.0725706,-54.93218981,1237.781524
13.7050,161.1735425,-54.94283245,1237.753276
13.7100,161.2800805,-54.95686156,1237.72352
13.7150,161.3918806,-54.97220822,1237.692384
13.7200,161.5089226,-54.98906522,1237.65986
13.7250,161.6295781,-55.00722185,1237.626281
13.7300,161.752631,-55.02632608,1237.591898
13.7350,161.8779302,-55.04597932,1237.556759
13.7400,162.0047304,-55.06670221,1237.520995
13.7450,162.1329626,-55.0859645,1237.484679
13.7500,162.2605056,-55.1044184,1237.44822
