type,name,time_units,begin_time,frequency,count,units
signal_3d,"Noraxon MyoMotion-Trajectories-Radial styloid process RT","s",0.0000,200,5108,"mm"

time,x,y,z
0.0000,191.2944402,35.37431165,982.1297819
0.0050,191.2562465,35.43612124,982.1448782
0.0100,191.2180452,35.49792302,982.1599845
0.0150,191.1798361,35.55971698,982.1751007
0.0200,191.1372281,35.62680488,982.1916322
0.0250,191.0901913,35.69888228,982.2095268
0.0300,191.0387415,35.77558355,982.2287161
0.0350,190.9829419,35.85649954,982.2491186
0.0400,190.9229087,35.94118942,982.2706417
0.0450,190.8588174,36.02918292,982.293182
0.0500,190.7909048,36.11997888,982.3166251
0.0550,190.7194568,36.21304495,982.3408475
0.0600,190.6447927,36.30782071,982.3657182
0.0650,190.5672599,36.40372911,982.3911013
0.0700,190.4872403,36.50019192,982.4168576
0.0750,190.4051597,36.5966391,982.442845
0.0800,190.3214902,36.69251376,982.4689198
0.0850,190.2367468,36.78727737,982.4949389
0.0900,190.1514851,36.88041422,982.5207607
0.0950,190.0662968,36.97143488,982.5462455
0.1000,189.9817969,37.05988186,982.5712561
0.1050,189.8986069,37.14533683,982.5956593
0.1100,189.8173416,37.22742209,982.6193256
0.1150,189.7385992,37.30579663,982.6421305
0.1200,189.6629547,37.38015491,982.6639561
0.1250,189.5909542,37.45022837,982.6846923
0.1300,189.5231044,37.5157858,982.7042382
0.1350,189.4598544,37.57663617,982.722504
0.1400,189.4015716,37.6326371,982.7394149
0.1450,189.348522,37.68370652,982.7549154
0.1500,189.3008556,37.72983289,982.7689731
0.1550,189.1846881,37.83109298,982.8002851
0.1600,189.0738582,37.92623343,982.8299269
0.1650,188.9679121,38.01484136,982.8579355
0.1700,188.8663812,38.09722104,982.8842576
0.1750,188.7700247,38.17360721,982.9089763
0.1800,188.6768121,38.24322868,982.9320708
0.1850,188.5876126,38.30767961,982.9536353
0.1900,188.5014983,38.3671826,982.9739357
0.1950,188.4179267,38.42209074,982.9929437
0.2000,188.3383664,38.47297033,983.0106466
0.2050,188.2614396,38.52013756,983.0273636
0.2100,188.1872189,38.56258169,983.042725
0.2150,188.1125575,38.60116102,983.0573855
0.2200,188.0385855,38.63603207,983.0711326
0.2250,187.9657739,38.66711993,983.0839048
0.2300,187.8942558,38.69312956,983.09558
0.2350,187.8243468,38.71608983,983.1064797
0.2400,187.7541826,38.73515589,983.1166301
0.2450,187.6849275,38.7510493,983.1259474
0.2500,187.6169093,38.76334631,983.1346652
0.2550,187.5494114,38.77258972,983.1427692
0.2600,187.4826311,38.7795537,983.1503981
0.2650,187.4156477,38.78452825,983.1575982
0.2700,187.3501785,38.78580871,983.1641289
0.2750,187.2847214,38.78518281,983.1703074
0.2800,187.2206932,38.78134383,983.1759936
0.2850,187.1577748,38.77569366,983.1813012
0.2900,187.0954895,38.76647641,983.1859547
0.2950,187.0350766,38.75433793,983.1900664
0.3000,186.975207,38.74014171,983.1937287
0.3050,186.9153858,38.72274174,983.1969184
0.3100,186.8563941,38.70296182,983.1995391
0.3150,186.7978058,38.68054587,983.2016808
0.3200,186.7399433,38.65566575,983.2032477
0.3250,186.6813434,38.62844793,983.2044449
0.3300,186.622984,38.59777151,983.2051316
0.3350,186.5647636,38.56533767,983.2054804
0.3400,186.5065231,38.53020823,983.20538
0.3450,186.4482086,38.49358526,983.2049709
0.3500,186.3909818,38.45389804,983.203925
0.3550,186.3333189,38.4124185,983.2027458
0.3600,186.2765422,38.36944408,983.2010903
0.3650,186.2202291,38.32483876,983.1990922
0.3700,186.1646056,38.27832096,983.1967075
0.3750,186.10966,38.23015717,983.1939768
0.3800,186.0558712,38.18236253,983.1911743
0.3850,186.0034481,38.13385498,983.1880313
0.3900,185.951785,38.08507348,983.1845905
0.3950,185.9023561,38.03560029,983.1808515
0.4000,185.8546176,37.98620367,983.1770705
0.4050,185.8087094,37.93624822,983.1728383
0.4100,185.7644572,37.88760091,983.1686308
0.4150,185.7227851,37.83975072,983.1643363
0.4200,185.6833949,37.79217864,983.1598161
0.4250,185.6459326,37.74439675,983.1550875
0.4300,185.6105683,37.69733445,983.1501485
0.4350,185.5771201,37.65112067,983.1451551
0.4400,185.5449813,37.60516349,983.1399897
0.4450,185.5139347,37.56013655,983.1346374
0.4500,185.484982,37.5148182,983.1290686
0.4550,185.4569692,37.47022463,983.1235821
0.4600,185.4301219,37.42604085,983.117946
0.4650,185.4033693,37.38222278,983.1123804
0.4700,185.3764768,37.33809655,983.1066743
0.4750,185.3489406,37.29500755,983.1012445
0.4800,185.3212334,37.25314651,983.095821
0.4850,185.2925026,37.2107058,983.0906411
0.4900,185.2619176,37.16911057,983.0856388
0.4950,185.2293664,37.12793696,983.0809238
0.5000,185.1941743,37.08605255,983.0762372
0.5050,185.1561707,37.04367132,983.0717255
0.5100,185.1159593,37.00191703,983.0676105
0.5150,185.074855,36.95917558,983.0632454
0.5200,185.0316454,36.91674288,983.0591766
0.5250,184.9852452,36.87521211,983.0556755
0.5300,184.9366484,36.83469707,983.0524363
0.5350,184.8847427,36.79417468,983.0495275
0.5400,184.831316,36.75412223,983.0469434
0.5450,184.7761175,36.71424715,983.0446086
0.5500,184.718367,36.67476806,983.0425701
0.5550,184.6587601,36.63483202,983.0406383
0.5600,184.5981953,36.59452027,983.0386507
0.5650,184.5352059,36.55307883,983.0369294
0.5700,184.4701708,36.51210395,983.0355817
0.5750,184.4033516,36.47121279,983.0344551
0.5800,184.3341594,36.42904401,983.0333427
0.5850,184.2648194,36.38526493,983.0321035
0.5900,184.1928103,36.34045333,983.0309842
0.5950,184.119525,36.29375273,983.0298044
0.6000,184.0438917,36.24498727,983.0286206
0.6050,183.9681823,36.19459772,983.0272217
0.6100,183.8908176,36.14267067,983.0257981
0.6150,183.8135072,36.08843997,983.024039
0.6200,183.7371738,36.03158212,983.0219806
0.6250,183.6610062,35.97255367,983.0194293
0.6300,183.5853315,35.91215188,983.0165925
0.6350,183.5092456,35.84946611,983.0133676
0.6400,183.4339033,35.78506911,983.0098856
0.6450,183.3597999,35.71806574,983.0059244
0.6500,183.2854389,35.65009274,983.0017144
0.6550,183.212572,35.57950263,982.9969384
0.6600,183.1405867,35.50684245,982.9917099
0.6650,183.0679088,35.43248308,982.9863456
0.6700,182.9966392,35.35703536,982.9807536
0.6750,182.9264193,35.28039671,982.9748982
0.6800,182.8568525,35.20155394,982.9687287
0.6850,182.7875952,35.12190619,982.9623694
0.6900,182.7190932,35.04071791,982.955726
0.6950,182.6512058,34.96011113,982.9490821
0.7000,182.5839501,34.87938001,982.9423472
0.7050,182.5170504,34.79793272,982.9356114
0.7100,182.4502938,34.71578667,982.9287602
0.7150,182.3838358,34.63270679,982.9220096
0.7200,182.3176203,34.54949362,982.9151829
0.7250,182.2512409,34.4659784,982.9082332
0.7300,182.1855127,34.38160716,982.9012125
0.7350,182.1206757,34.29680208,982.8939689
0.7400,182.057376,34.21156718,982.8865923
0.7450,181.9955235,34.12577023,982.8789869
0.7500,181.9345321,34.0395364,982.871099
0.7550,181.8743679,33.95310863,982.8629968
0.7600,181.8148848,33.86729153,982.8550894
0.7650,181.7583886,33.78138361,982.8468317
0.7700,181.7035134,33.69578378,982.8385984
0.7750,181.649816,33.61035446,982.8303057
0.7800,181.5977232,33.52420901,982.8218571
0.7850,181.5475174,33.43798191,982.8131793
0.7900,181.5003991,33.35178129,982.804361
0.7950,181.4546827,33.26577363,982.795589
0.8000,181.4120712,33.18016399,982.7866967
0.8050,181.371664,33.09606307,982.7778291
0.8100,181.3326124,33.01198943,982.7688546
0.8150,181.2951004,32.92831111,982.7599721
0.8200,181.2592795,32.8457007,982.7509832
0.8250,181.2260327,32.76368714,982.7418486
0.8300,181.1941349,32.68314901,982.7327951
0.8350,181.1639398,32.60324893,982.7236833
0.8400,181.1341101,32.52445972,982.7148061
0.8450,181.1072481,32.44624627,982.7057948
0.8500,181.0815662,32.3688281,982.6968401
0.8550,181.0576779,32.2928819,982.6879684
0.8600,181.0351675,32.21711784,982.6791117
0.8650,181.015238,32.1424904,982.6700284
0.8700,180.9963871,32.0681583,982.6608569
0.8750,180.9786224,31.99337755,982.6516451
0.8800,180.9621563,31.92058811,982.6426341
0.8850,180.945788,31.84820831,982.6336898
0.8900,180.9304802,31.77765324,982.6252229
0.8950,180.9143426,31.70902884,982.6170863
0.9000,180.8994739,31.64081559,982.6090129
0.9050,180.8839641,31.57452405,982.6014206
0.9100,180.8682128,31.50906337,982.5940132
0.9150,180.8511934,31.44516989,982.58702
0.9200,180.832626,31.38437609,982.5807303
0.9250,180.8141324,31.32488952,982.5748269
0.9300,180.7950782,31.26738293,982.5692373
0.9350,180.7747444,31.21274125,982.5643011
0.9400,180.7534203,31.15979165,982.5595684
0.9450,180.7311544,31.10865557,982.5551652
0.9500,180.7075547,31.05991364,982.5512841
0.9550,180.6813667,31.01436573,982.548002
0.9600,180.653489,30.97154477,982.5453421
0.9650,180.6260149,30.93073657,982.5427511
0.9700,180.5960569,30.89225806,982.5406665
0.9750,180.5653801,30.85628148,982.5389068
0.9800,180.533749,30.82267305,982.5373232
0.9850,180.5007116,30.79160847,982.5362285
0.9900,180.4660963,30.76307404,982.5357189
0.9950,180.430077,30.7360281,982.5354172
1.0000,180.3917754,30.7109305,982.5355116
1.0050,180.3517923,30.68702014,982.5358289
1.0100,180.3093103,30.66500331,982.5365596
1.0150,180.2646443,30.64529586,982.5376853
1.0200,180.2164597,30.62728193,982.5394652
1.0250,180.167171,30.61084716,982.5416442
1.0300,180.1149334,30.595778,982.5441868
1.0350,180.060579,30.58193534,982.5471568
1.0400,180.0035631,30.56955621,982.5505254
1.0450,179.9435996,30.55812242,982.5543177
1.0500,179.8817714,30.54826431,982.5585137
1.0550,179.8174603,30.54038301,982.563267
1.0600,179.7510199,30.53297976,982.5681471
1.0650,179.6810827,30.52627423,982.5734477
1.0700,179.6089729,30.52143634,982.5791457
1.0750,179.5344173,30.51816815,982.5852684
1.0800,179.4573457,30.51673914,982.5920692
1.0850,179.3774319,30.5173959,982.5994343
1.0900,179.2947029,30.51950139,982.6071556
1.0950,179.210153,30.52310635,982.6152872
1.1000,179.1224689,30.52934475,982.6242448
1.1050,179.0331282,30.53669822,982.6335314
1.1100,178.9412189,30.54465867,982.6432969
1.1150,178.8477304,30.55479823,982.6536593
1.1200,178.7537472,30.56547632,982.664439
1.1250,178.658512,30.57708964,982.6755965
1.1300,178.5615196,30.58929932,982.6872451
1.1350,178.4636105,30.60308974,982.6993311
1.1400,178.3652004,30.61751407,982.7116253
1.1450,178.2641339,30.63279538,982.724361
1.1500,178.1629236,30.64834247,982.7373256
1.1550,178.0593467,30.66477183,982.7507859
1.1600,177.9532975,30.68353665,982.7648529
1.1650,177.8438189,30.70411078,982.7796415
1.1700,177.7309335,30.72627546,982.7950315
1.1750,177.6130598,30.75117736,982.8112608
1.1800,177.4904464,30.77703466,982.8281492
1.1850,177.3609695,30.80566065,982.8461484
1.1900,177.2257942,30.8347252,982.8647166
1.1950,177.0840857,30.8655049,982.8841915
1.2000,176.9339195,30.89884876,982.9049106
1.2050,176.7754859,30.93272452,982.9266604
1.2100,176.6092679,30.9681844,982.9497996
1.2150,176.4359559,31.00557667,982.9742753
1.2200,176.2552812,31.04301124,982.9996252
1.2250,176.0679075,31.08093832,983.0262947
1.2300,175.8734127,31.11839341,983.0541814
1.2350,175.6731996,31.15499835,983.0829543
1.2400,175.4686985,31.19088568,983.112604
1.2450,175.2589787,31.22538001,983.1431821
1.2500,175.046427,31.25843375,983.1743383
1.2550,174.8306332,31.28989052,983.2060863
1.2600,174.6103222,31.31952618,983.2384471
1.2650,174.3845053,31.34859781,983.2717689
1.2700,174.1540305,31.37687662,983.3057635
1.2750,173.9169824,31.40451049,983.3406847
1.2800,173.6732418,31.43120759,983.3765666
1.2850,173.4235819,31.45714114,983.4132917
1.2900,173.1655299,31.48225299,983.4511293
1.2950,172.8971831,31.50664925,983.4904345
1.3000,172.6180825,31.53014828,983.5312633
1.3050,172.3276419,31.55394878,983.5737853
1.3100,172.0252197,31.57825389,983.6181722
1.3150,171.7099262,31.60227479,983.6644293
1.3200,171.3827506,31.6271858,983.7126751
1.3250,171.0421097,31.65252222,983.7630398
1.3300,170.6890101,31.67835015,983.8156806
1.3350,170.3228378,31.70402759,983.8705547
1.3400,169.9442378,31.73042261,983.9276878
1.3450,169.5532953,31.75682708,983.98735
1.3500,169.1506258,31.78432218,984.0494883
1.3550,168.7368147,31.81209579,984.1138653
1.3600,168.3118993,31.8413819,984.1809062
1.3650,167.8761592,31.87229705,984.2507165
1.3700,167.428473,31.90471763,984.3234337
1.3750,166.9693895,31.93803769,984.3989806
1.3800,166.4978632,31.97325542,984.4777078
1.3850,166.0137454,32.01088401,984.5598931
1.3900,165.5151252,32.05176446,984.6462089
1.3950,165.001838,32.09697805,984.7366522
1.4000,164.4727252,32.14515419,984.8314392
1.4050,163.9276149,32.19792623,984.9312065
1.4100,163.3658947,32.25832201,985.0364002
1.4150,162.7865178,32.32349016,985.1469242
1.4200,162.1874484,32.39522787,985.2634265
1.4250,161.5680455,32.47470002,985.3863762
1.4300,160.9292329,32.5619023,985.5159652
1.4350,160.2709139,32.65662338,985.6525741
1.4400,159.5927466,32.76025712,985.7965427
1.4450,158.8958569,32.87389983,985.948094
1.4500,158.180785,32.99795353,986.1073993
1.4550,157.4473535,33.13298494,986.2748063
1.4600,156.6954443,33.27935204,986.450598
1.4650,155.926481,33.43586455,986.6344939
1.4700,155.141322,33.60350865,986.8270388
1.4750,154.3406048,33.78351814,987.028445
1.4800,153.523662,33.9761637,987.2390932
1.4850,152.6918594,34.18161802,987.4590911
1.4900,151.8425769,34.40162588,987.6893328
1.4950,150.9759044,34.63560337,987.9302057
1.5000,150.0914286,34.88491231,988.1822537
1.5050,149.1889341,35.149517,988.4460195
1.5100,148.2659944,35.43032568,988.7220875
1.5150,147.32155,35.72668348,989.011276
1.5200,146.355217,36.03970969,989.3143471
1.5250,145.3644293,36.36951702,989.6319933
1.5300,144.3494398,36.71668078,989.9647346
1.5350,143.3094846,37.08036127,990.3132238
1.5400,142.2418434,37.46163154,990.6784274
1.5450,141.1474042,37.86125081,991.0606377
1.5500,140.0246355,38.2777734,991.4603727
1.5550,138.8752861,38.71169189,991.8778602
1.5600,137.6992915,39.1624196,992.3135205
1.5650,136.4974594,39.62982979,992.7675967
1.5700,135.2691384,40.11250578,993.2402826
1.5750,134.0152525,40.61151933,993.7321003
1.5800,132.7368657,41.12620907,994.2430183
1.5850,131.4326014,41.65638025,994.7733291
1.5900,130.1043214,42.20174422,995.3226751
1.5950,128.752638,42.76244543,995.8913818
1.6000,127.378815,43.33772024,996.47917
1.6050,125.9817639,43.92644868,997.0863152
1.6100,124.5619669,44.52873156,997.7130937
1.6150,123.1207298,45.14425822,998.3594752
1.6200,121.6575195,45.77211531,999.0255336
1.6250,120.1717514,46.41231397,999.7117611
1.6300,118.6641821,47.06457422,1000.418199
1.6350,117.1352082,47.72794546,1001.14487
1.6400,115.5849816,48.40171324,1001.892248
1.6450,114.0145251,49.08644529,1002.659994
1.6500,112.4235057,49.77914263,1003.448265
1.6550,110.8130224,50.47997059,1004.257045
1.6600,109.1846039,51.18972748,1005.08628
1.6650,107.5389028,51.90726969,1005.935788
1.6700,105.8790048,52.63202193,1006.80495
1.6750,104.2059014,53.36417721,1007.69386
1.6800,102.5226713,54.10337367,1008.601559
1.6850,100.8291549,54.84935884,1009.528296
1.6900,99.1288508,55.60079414,1010.472983
1.6950,97.4210599,56.35595791,1011.435433
1.7000,95.70903385,57.11565092,1012.415309
1.7050,93.99253418,57.87889912,1013.411732
1.7100,92.27491493,58.64394783,1014.424043
1.7150,90.55614204,59.41274361,1015.452344
1.7200,88.83817095,60.18434428,1016.495813
1.7250,87.12246174,60.95762997,1017.553761
1.7300,85.41047779,61.73322734,1018.626026
1.7350,83.70300932,62.51041825,1019.711987
1.7400,82.0012149,63.28881307,1020.811035
1.7450,80.30581181,64.06755489,1021.923064
1.7500,78.61672844,64.84653779,1023.047597
1.7550,76.93643796,65.62389579,1024.183632
1.7600,75.26698129,66.3997064,1025.330863
1.7650,73.60750753,67.17438343,1026.489144
1.7700,71.95911592,67.94720946,1027.657582
1.7750,70.32287181,68.71691788,1028.835382
1.7800,68.69892192,69.48319204,1030.022637
1.7850,67.08778529,70.2452511,1031.218526
1.7900,65.49157516,71.00329847,1032.422655
1.7950,63.90984592,71.75650121,1033.634818
1.8000,62.34376751,72.50345542,1034.85425
1.8050,60.79329834,73.24532316,1036.080782
1.8100,59.25902846,73.98059995,1037.3142
1.8150,57.74088942,74.70812247,1038.5542
1.8200,56.23812195,75.42805409,1039.800801
1.8250,54.75232955,76.14086502,1041.0533
1.8300,53.28311189,76.84546586,1042.312231
1.8350,51.82979535,77.54063852,1043.577437
1.8400,50.3932986,78.22529944,1044.848239
1.8450,48.97335993,78.90024391,1046.124901
1.8500,47.5691088,79.56439751,1047.407413
1.8550,46.18095092,80.21750896,1048.695698
1.8600,44.80916018,80.86008048,1049.989518
1.8650,43.45374904,81.49058846,1051.288687
1.8700,42.11553789,82.10992046,1052.593201
1.8750,40.79405782,82.71721953,1053.902017
1.8800,39.48857008,83.31244468,1055.216212
1.8850,38.19984391,83.8949123,1056.534709
1.8900,36.9273946,84.46548073,1057.857977
1.8950,35.67170012,85.02371338,1059.185171
1.9000,34.43089405,85.56988069,1060.517072
1.9050,33.20631558,86.10543792,1061.853266
1.9100,31.99662959,86.62911604,1063.193355
1.9150,30.8003829,87.14143851,1064.538141
1.9200,29.61795413,87.64241504,1065.88728
1.9250,28.44913792,88.13161197,1067.240633
1.9300,27.29284625,88.60974991,1068.598359
1.9350,26.14830829,89.07776128,1069.960943
1.9400,25.01529522,89.53523242,1071.327878
1.9450,23.89247617,89.982291,1072.699605
1.9500,22.77991322,90.4199678,1074.076666
1.9550,21.67723615,90.84804358,1075.459295
1.9600,20.58391149,91.26602239,1076.847125
1.9650,19.49990141,91.67369905,1078.240264
1.9700,18.42386388,92.07155178,1079.638641
1.9750,17.35552064,92.4591493,1081.04247
1.9800,16.29403362,92.83766796,1082.451916
1.9850,15.2405821,93.20602406,1083.865988
1.9900,14.19381775,93.56465719,1085.285247
1.9950,13.15613941,93.91365248,1086.708886
2.0000,12.1253805,94.25366757,1088.137423
2.0050,11.10266748,94.58356158,1089.570173
2.0100,10.08764732,94.90482506,1091.007254
2.0150,9.080431762,95.21530126,1092.447792
2.0200,8.082466859,95.5168178,1093.89243
2.0250,7.09447927,95.8096588,1095.340536
2.0300,6.115962781,96.09293424,1096.791737
2.0350,5.146949088,96.36715316,1098.246011
2.0400,4.187353859,96.63254829,1099.703449
2.0450,3.23628366,96.88959048,1101.164249
2.0500,2.294165489,97.1382095,1102.628238
2.0550,1.361008058,97.37990197,1104.095832
2.0600,0.4364862658,97.6131126,1105.565831
2.0650,-0.4792175361,97.83904849,1107.039129
2.0700,-1.387196118,98.05808031,1108.516107
2.0750,-2.287004469,98.26968308,1109.996614
2.0800,-3.179110837,98.47458452,1111.480812
2.0850,-4.06372878,98.67249145,1112.969274
2.0900,-4.940490006,98.86403729,1114.461329
2.0950,-5.808084605,99.05052347,1115.956625
2.1000,-6.667568756,99.23193913,1117.456741
2.1050,-7.518261029,99.40806627,1118.960889
2.1100,-8.359424225,99.57757036,1120.468234
2.1150,-9.19094744,99.74354525,1121.979448
2.1200,-10.01307373,99.90432808,1123.494381
2.1250,-10.8256112,100.0585188,1125.012651
2.1300,-11.62906851,100.2063044,1126.534102
2.1350,-12.423214,100.3488132,1128.058547
2.1400,-13.20647578,100.4863212,1129.585586
2.1450,-13.980947,100.6165583,1131.11549
2.1500,-14.74416947,100.7408255,1132.647849
2.1550,-15.49763818,100.8588506,1134.183275
2.1600,-16.24152437,100.9694985,1135.721314
2.1650,-16.97583974,101.0731025,1137.262602
2.1700,-17.70091752,101.1704303,1138.807482
2.1750,-18.41607498,101.260657,1140.356065
2.1800,-19.12290538,101.3452061,1141.907535
2.1850,-19.82119976,101.4230548,1143.462385
2.1900,-20.51144055,101.4954473,1145.021016
2.1950,-21.19382356,101.5623878,1146.583693
2.2000,-21.86706043,101.6234135,1148.149871
2.2050,-22.53325316,101.6785945,1149.720061
2.2100,-23.19108571,101.727561,1151.294468
2.2150,-23.84062874,101.7710075,1152.872745
2.2200,-24.48322228,101.8089292,1154.455784
2.2250,-25.11783156,101.8438213,1156.043333
2.2300,-25.74573937,101.8737091,1157.635454
2.2350,-26.36715491,101.8990109,1159.231928
2.2400,-26.98238557,101.9200109,1160.833456
2.2450,-27.59178861,101.9366501,1162.440239
2.2500,-28.19525012,101.9514732,1164.051951
2.2550,-28.79260937,101.9638772,1165.668172
2.2600,-29.38410425,101.9718571,1167.289265
2.2650,-29.97176515,101.9773351,1168.914755
2.2700,-30.55482692,101.9788917,1170.545462
2.2750,-31.13380379,101.9779372,1172.180562
2.2800,-31.70865886,101.9730724,1173.820791
2.2850,-32.27891993,101.9662383,1175.466304
2.2900,-32.84494882,101.9561113,1177.116354
2.2950,-33.40668585,101.9433064,1178.771454
2.3000,-33.96347394,101.9284174,1180.43088
2.3050,-34.51624635,101.9122319,1182.095266
2.3100,-35.06493556,101.8931326,1183.764639
2.3150,-35.60888925,101.8735551,1185.438807
2.3200,-36.14910063,101.8518989,1187.116832
2.3250,-36.68583875,101.8286212,1188.799481
2.3300,-37.21859243,101.8037062,1190.486422
2.3350,-37.74742645,101.7782403,1192.177561
2.3400,-38.27032159,101.752577,1193.8722
2.3450,-38.78774435,101.7263879,1195.570504
2.3500,-39.30007354,101.6999845,1197.272346
2.3550,-39.80693901,101.6743501,1198.977426
2.3600,-40.30736846,101.6502904,1200.686837
2.3650,-40.80116705,101.626399,1202.4002
2.3700,-41.28813437,101.6025905,1204.117402
2.3750,-41.76818141,101.5804681,1205.838628
2.3800,-42.24103013,101.5598004,1207.563536
2.3850,-42.70652391,101.5400919,1209.292026
2.3900,-43.1656929,101.5211794,1211.023749
2.3950,-43.61900152,101.5018555,1212.759833
2.4000,-44.06542783,101.4832592,1214.498232
2.4050,-44.50481678,101.4648636,1216.239626
2.4100,-44.93691642,101.4490059,1217.983962
2.4150,-45.36201746,101.4344291,1219.730796
2.4200,-45.7795997,101.4201182,1221.480008
2.4250,-46.19112016,101.4081769,1223.232029
2.4300,-46.59493621,101.3965235,1224.986189
2.4350,-46.99086837,101.3862898,1226.742192
2.4400,-47.38044193,101.3760811,1228.500069
2.4450,-47.76226402,101.3656144,1230.25962
2.4500,-48.13766136,101.355328,1232.020543
2.4550,-48.50645517,101.3428897,1233.782211
2.4600,-48.868349,101.3304217,1235.544208
2.4650,-49.22474628,101.31768,1237.307014
2.4700,-49.57541198,101.303817,1239.069274
2.4750,-49.92194738,101.2892365,1240.831215
2.4800,-50.26331239,101.2735058,1242.592897
2.4850,-50.59978832,101.2581578,1244.354571
2.4900,-50.93155508,101.2423462,1246.115466
2.4950,-51.25909794,101.2266169,1247.876057
2.5000,-51.58277375,101.2113288,1249.636257
2.5050,-51.90177644,101.1958884,1251.395902
2.5100,-52.21747417,101.1817189,1253.154526
2.5150,-52.5291219,101.1689034,1254.912452
2.5200,-52.83691643,101.1566415,1256.668247
2.5250,-53.14158776,101.1435652,1258.422139
2.5300,-53.44199149,101.1316341,1260.174064
2.5350,-53.73895909,101.1197899,1261.924487
2.5400,-54.031478,101.1079202,1263.672971
2.5450,-54.31936852,101.0960675,1265.418776
2.5500,-54.6034543,101.0822671,1267.161491
2.5550,-54.88360466,101.0666608,1268.901946
2.5600,-55.15934673,101.050852,1270.639766
2.5650,-55.42969768,101.0325872,1272.375069
2.5700,-55.69466814,101.0114497,1274.106774
2.5750,-55.95303691,100.9868699,1275.834626
2.5800,-56.20668776,100.9591263,1277.558555
2.5850,-56.45565525,100.9261647,1279.278749
2.5900,-56.7001975,100.888704,1280.995268
2.5950,-56.94100816,100.8470693,1282.70788
2.6000,-57.17675437,100.7998119,1284.415228
2.6050,-57.40718807,100.746702,1286.117453
2.6100,-57.63278923,100.6889789,1287.814506
2.6150,-57.85357212,100.6251748,1289.506599
2.6200,-58.06895906,100.5563354,1291.193694
2.6250,-58.28042091,100.4818747,1292.875518
2.6300,-58.48632121,100.404151,1294.551274
2.6350,-58.68658552,100.3218511,1296.221855
2.6400,-58.88192984,100.2350029,1297.887037
2.6450,-59.07130784,100.1440858,1299.546146
2.6500,-59.25376005,100.0499227,1301.199603
2.6550,-59.42934089,99.95046627,1302.847728
2.6600,-59.59745951,99.84726625,1304.489952
2.6650,-59.75782256,99.74125251,1306.125749
2.6700,-59.91106915,99.63221318,1307.754942
2.6750,-60.0570539,99.52027358,1309.378082
2.6800,-60.19482946,99.4059269,1310.995242
2.6850,-60.32612373,99.28953967,1312.606265
2.6900,-60.44973092,99.17100438,1314.211405
2.6950,-60.56629126,99.05051423,1315.809277
2.7000,-60.67606663,98.92786132,1317.400621
2.7050,-60.78045342,98.80287524,1318.986231
2.7100,-60.87933611,98.67506818,1320.565112
2.7150,-60.97318912,98.5436606,1322.137032
2.7200,-61.06181456,98.41115327,1323.702643
2.7250,-61.14391374,98.27618605,1325.262095
2.7300,-61.22067448,98.14042035,1326.815324
2.7350,-61.292079,98.00175252,1328.362047
2.7400,-61.3581801,97.86223855,1329.903403
2.7450,-61.41823487,97.72354479,1331.438566
2.7500,-61.47363984,97.58332943,1332.968494
2.7550,-61.52422059,97.44358627,1334.49275
2.7600,-61.56958186,97.30337795,1336.012339
2.7650,-61.60983174,97.16206576,1337.526048
2.7700,-61.64577364,97.01951902,1339.035269
2.7750,-61.67665331,96.87609165,1340.539675
2.7800,-61.70164711,96.73146828,1342.039301
2.7850,-61.72151847,96.58380272,1343.534145
2.7900,-61.73722187,96.43413835,1345.02443
2.7950,-61.74830077,96.28223238,1346.509546
2.8000,-61.75455872,96.1278974,1347.989853
2.8050,-61.75602692,95.97193383,1349.46564
2.8100,-61.75286272,95.81278834,1350.936643
2.8150,-61.74613506,95.65001613,1352.402078
2.8200,-61.73613417,95.48451074,1353.862747
2.8250,-61.72241387,95.31717019,1355.319363
2.8300,-61.70580335,95.1466989,1356.771428
2.8350,-61.68467667,94.97335839,1358.218446
2.8400,-61.66114428,94.79623852,1359.660371
2.8450,-61.63491926,94.61697235,1361.097573
2.8500,-61.6060574,94.43537575,1362.530341
2.8550,-61.57358735,94.25059732,1363.958087
2.8600,-61.53833756,94.06346646,1365.380798
2.8650,-61.4997466,93.87447439,1366.798333
2.8700,-61.45919449,93.68364388,1368.211588
2.8750,-61.41701144,93.49087052,1369.619539
2.8800,-61.37249481,93.29555624,1371.022059
2.8850,-61.3264154,93.09728444,1372.419166
2.8900,-61.27786168,92.89792257,1373.810007
2.8950,-61.22794199,92.69574452,1375.194666
2.9000,-61.17609399,92.48950572,1376.574672
2.9050,-61.12287768,92.28207473,1377.949551
2.9100,-61.0686982,92.07292714,1379.31871
2.9150,-61.01278884,91.86373143,1380.682456
2.9200,-60.95473417,91.65356804,1382.040635
2.9250,-60.89385461,91.44320351,1383.392214
2.9300,-60.83070682,91.23293777,1384.73846
2.9350,-60.76356042,91.02320157,1386.077936
2.9400,-60.69368754,90.81437262,1387.411042
2.9450,-60.61912128,90.60659939,1388.737445
2.9500,-60.5411236,90.39972129,1390.056792
2.9550,-60.45916537,90.19502799,1391.368569
2.9600,-60.3745225,89.99048549,1392.672242
2.9650,-60.28688054,89.78608886,1393.968302
2.9700,-60.19489334,89.58344296,1395.256262
2.9750,-60.09871694,89.38114717,1396.5353
2.9800,-59.99857477,89.18057874,1397.805549
2.9850,-59.89205375,88.98192009,1399.066193
2.9900,-59.77973856,88.7833632,1400.317428
2.9950,-59.66116669,88.58509087,1401.559775
3.0000,-59.53681335,88.38737672,1402.793172
3.0050,-59.40632309,88.18947204,1404.016325
3.0100,-59.27001519,87.99108562,1405.230232
3.0150,-59.12716592,87.7920898,1406.435845
3.0200,-58.9789123,87.59300449,1407.632028
3.0250,-58.82550418,87.39182975,1408.819419
3.0300,-58.66663669,87.18990903,1409.999079
3.0350,-58.50379642,86.98696865,1411.171482
3.0400,-58.33558546,86.78113048,1412.335894
3.0450,-58.16246447,86.57175356,1413.493509
3.0500,-57.98396998,86.35955778,1414.64374
3.0550,-57.79933824,86.14498517,1415.787643
3.0600,-57.60811285,85.92754463,1416.925164
3.0650,-57.40965497,85.70860006,1418.056541
3.0700,-57.20309519,85.48758713,1419.181702
3.0750,-56.98824424,85.2643186,1420.300265
3.0800,-56.76600489,85.03807931,1421.412569
3.0850,-56.53489598,84.81156707,1422.518254
3.0900,-56.29524158,84.58218191,1423.616374
3.0950,-56.04815141,84.34896268,1424.706952
3.1000,-55.79490296,84.11344331,1425.7897
3.1050,-55.53622342,83.87406008,1426.86361
3.1100,-55.27174324,83.63126353,1427.928674
3.1150,-55.00351062,83.38494663,1428.984801
3.1200,-54.73084064,83.13580845,1430.03111
3.1250,-54.45640951,82.88155752,1431.066674
3.1300,-54.17963294,82.62446374,1432.091957
3.1350,-53.90249517,82.36596096,1433.106734
3.1400,-53.62496397,82.10718222,1434.111195
3.1450,-53.34697233,81.84689491,1435.10394
3.1500,-53.06904157,81.58684853,1436.085844
3.1550,-52.79141339,81.32847748,1437.056688
3.1600,-52.51457292,81.0724259,1438.016494
3.1650,-52.23819965,80.8180329,1438.965249
3.1700,-51.96123444,80.56750946,1439.903077
3.1750,-51.68420362,80.32111706,1440.831171
3.1800,-51.40466606,80.08005757,1441.749281
3.1850,-51.12265338,79.84612096,1442.657041
3.1900,-50.83824265,79.61845652,1443.555118
3.1950,-50.54885692,79.3984915,1444.443463
3.2000,-50.25633378,79.18795487,1445.32205
3.2050,-49.95873221,78.98585948,1446.190425
3.2100,-49.6561404,78.79290522,1447.049116
3.2150,-49.34870641,78.60837625,1447.897968
3.2200,-49.03725599,78.43472286,1448.737442
3.2250,-48.72063304,78.27165139,1449.567517
3.2300,-48.39895661,78.1186494,1450.387554
3.2350,-48.07362395,77.97618745,1451.198813
3.2400,-47.74385453,77.8446715,1452.000737
3.2450,-47.41044284,77.72465313,1452.793756
3.2500,-47.07309234,77.61522265,1453.577816
3.2550,-46.73169634,77.51644418,1454.353141
3.2600,-46.38681103,77.42931019,1455.12096
3.2650,-46.03844618,77.35437912,1455.88113
3.2700,-45.68721968,77.28924432,1456.633652
3.2750,-45.33339646,77.23385032,1457.378767
3.2800,-44.9773708,77.18612028,1458.117005
3.2850,-44.61929841,77.14580154,1458.848392
3.2900,-44.25976194,77.1133581,1459.573125
3.2950,-43.89762211,77.08750645,1460.291238
3.3000,-43.5334293,77.06735973,1461.002755
3.3050,-43.16702342,77.05243401,1461.708063
3.3100,-42.79781666,77.04180097,1462.406789
3.3150,-42.42642456,77.03488517,1463.098721
3.3200,-42.05184079,77.02930663,1463.784315
3.3250,-41.67510984,77.02439145,1464.462913
3.3300,-41.29718055,77.01996915,1465.134971
3.3350,-40.91539467,77.01488335,1465.800511
3.3400,-40.53152979,77.00888741,1466.460111
3.3450,-40.14528133,77.00191092,1467.113268
3.3500,-39.75617978,76.99365175,1467.759661
3.3550,-39.36599973,76.983338,1468.399805
3.3600,-38.97515514,76.97080825,1469.033707
3.3650,-38.58364106,76.95521882,1469.661074
3.3700,-38.19205964,76.93745028,1470.281958
3.3750,-37.80121632,76.91674909,1470.896478
3.3800,-37.40961997,76.8937148,1471.504148
3.3850,-37.01864423,76.86701435,1472.105311
3.3900,-36.62735101,76.83888349,1472.7003
3.3950,-36.23535997,76.80964765,1473.289469
3.4000,-35.8431972,76.77752346,1473.872403
3.4050,-35.45059411,76.74479978,1474.450108
3.4100,-35.05806958,76.7105479,1475.021937
3.4150,-34.66330668,76.67599264,1475.588285
3.4200,-34.26742069,76.64018086,1476.149558
3.4250,-33.86818007,76.60493705,1476.706188
3.4300,-33.46755802,76.56884664,1477.258356
3.4350,-33.0651388,76.53188588,1477.806402
3.4400,-32.65967844,76.49534096,1478.350391
3.4450,-32.25216648,76.46056734,1478.891894
3.4500,-31.84019192,76.42629408,1479.430189
3.4550,-31.42646239,76.39358341,1479.966122
3.4600,-31.01107094,76.36159038,1480.500671
3.4650,-30.59371375,76.33270567,1481.034533
3.4700,-30.17528781,76.30575225,1481.568025
3.4750,-29.75559803,76.281641,1482.100924
3.4800,-29.33509982,76.26104617,1482.634546
3.4850,-28.91458333,76.2440447,1483.169414
3.4900,-28.49384291,76.23056717,1483.705483
3.4950,-28.07444047,76.22108238,1484.243066
3.5000,-27.65688415,76.21713012,1484.783302
3.5050,-27.2414745,76.21732213,1485.325872
3.5100,-26.82943024,76.22299582,1485.871497
3.5150,-26.42042774,76.23479023,1486.419816
3.5200,-26.01440161,76.25190043,1486.97117
3.5250,-25.61227322,76.27435937,1487.525258
3.5300,-25.21396053,76.30170783,1488.082718
3.5350,-24.8194373,76.33451121,1488.642348
3.5400,-24.42817762,76.37214262,1489.204934
3.5450,-24.04107163,76.41391133,1489.770128
3.5500,-23.65781965,76.46008102,1490.337532
3.5550,-23.28031241,76.51002118,1490.906744
3.5600,-22.90821846,76.56332149,1491.47721
3.5650,-22.54160056,76.62014837,1492.048969
3.5700,-22.17998255,76.68155464,1492.622266
3.5750,-21.82501743,76.74622343,1493.197247
3.5800,-21.47528287,76.8157218,1493.773044
3.5850,-21.13190808,76.88917823,1494.349497
3.5900,-20.79324182,76.96603714,1494.926659
3.5950,-20.46181557,77.0455243,1495.504216
3.6000,-20.13683588,77.1269613,1496.08205
3.6050,-19.81854159,77.20948936,1496.660014
3.6100,-19.50830596,77.29147845,1497.238209
3.6150,-19.20571406,77.3723054,1497.816036
3.6200,-18.9115474,77.45197134,1498.393819
3.6250,-18.62640926,77.53116449,1498.972048
3.6300,-18.34990385,77.6081113,1499.550257
3.6350,-18.08396374,77.68351062,1500.128862
3.6400,-17.82830965,77.75774659,1500.707785
3.6450,-17.58344783,77.83066779,1501.287852
3.6500,-17.34980395,77.90113311,1501.869494
3.6550,-17.12585356,77.9689935,1502.452444
3.6600,-16.91168232,78.0331745,1503.036198
3.6650,-16.70719972,78.09287072,1503.621395
3.6700,-16.51156493,78.14865798,1504.208422
3.6750,-16.3246745,78.19905364,1504.79747
3.6800,-16.14630069,78.24359829,1505.388768
3.6850,-15.97602096,78.28335013,1505.98249
3.6900,-15.81203901,78.31652447,1506.578174
3.6950,-15.65493464,78.34335502,1507.176438
3.7000,-15.50240243,78.36350408,1507.7775
3.7050,-15.35396602,78.37590186,1508.381378
3.7100,-15.20893737,78.38126372,1508.989116
3.7150,-15.06750647,78.37902556,1509.601079
3.7200,-14.93019921,78.36947159,1510.218374
3.7250,-14.79673877,78.35188081,1510.840993
3.7300,-14.66623516,78.32668505,1511.469628
3.7350,-14.53752126,78.29418381,1512.10538
3.7400,-14.4124174,78.25281306,1512.749617
3.7450,-14.29013726,78.20429949,1513.402982
3.7500,-14.17289275,78.15015856,1514.067072
3.7550,-14.0587647,78.0914814,1514.742604
3.7600,-13.947197,78.02972679,1515.429794
3.7650,-13.83873804,77.96601981,1516.129932
3.7700,-13.73195579,77.90154561,1516.842994
3.7750,-13.62758849,77.83771944,1517.570147
3.7800,-13.52749808,77.77528279,1518.311533
3.7850,-13.43047378,77.71519381,1519.066665
3.7900,-13.33692519,77.65964915,1519.836086
3.7950,-13.2459959,77.60877164,1520.619497
3.8000,-13.15658285,77.5626791,1521.4153
3.8050,-13.06797062,77.52394887,1522.223047
3.8100,-12.97955014,77.49334744,1523.041145
3.8150,-12.88905499,77.47199642,1523.868815
3.8200,-12.79589204,77.46018236,1524.703926
3.8250,-12.70075007,77.4592154,1525.545839
3.8300,-12.60289247,77.46948815,1526.392719
3.8350,-12.50234687,77.49056504,1527.24372
3.8400,-12.39973901,77.52306583,1528.09707
3.8450,-12.29552297,77.56703436,1528.951863
3.8500,-12.18943927,77.62204453,1529.806168
3.8550,-12.07998274,77.68822523,1530.65862
3.8600,-11.96700529,77.76672435,1531.508113
3.8650,-11.85095297,77.8548627,1532.352658
3.8700,-11.73139091,77.95266072,1533.190696
3.8750,-11.60740169,78.05976798,1534.020999
3.8800,-11.48192184,78.1740086,1534.842258
3.8850,-11.3543567,78.29461968,1535.653992
3.8900,-11.22784178,78.42129381,1536.455301
3.8950,-11.10051639,78.55252642,1537.2448
3.9000,-10.97381509,78.68652509,1538.021764
3.9050,-10.84788014,78.82380439,1538.785492
3.9100,-10.72357189,78.96249195,1539.535405
3.9150,-10.60261384,79.10098697,1540.270687
3.9200,-10.48408591,79.23952462,1540.990503
3.9250,-10.36875262,79.37487095,1541.693912
3.9300,-10.25744126,79.50740537,1542.380354
3.9350,-10.15004067,79.6352443,1543.049182
3.9400,-10.04685045,79.75681873,1543.700164
3.9450,-9.949209023,79.87122337,1544.332681
3.9500,-9.855814043,79.97733742,1544.946063
3.9550,-9.767863762,80.07540252,1545.540297
3.9600,-9.686255426,80.16569037,1546.11594
3.9650,-9.609557126,80.24797674,1546.672343
3.9700,-9.538205978,80.32054366,1547.208602
3.9750,-9.471016318,80.38415432,1547.724684
3.9800,-9.409700835,80.43860633,1548.221113
3.9850,-9.353944318,80.48170374,1548.697708
3.9900,-9.305006441,80.51531218,1549.155493
3.9950,-9.261737208,80.53964401,1549.594182
4.0000,-9.225146712,80.55511698,1550.014354
4.0050,-9.195612532,80.56171047,1550.415663
4.0100,-9.17200431,80.56000019,1550.79857
4.0150,-9.154914487,80.55016327,1551.163763
4.0200,-9.142875728,80.53263447,1551.510393
4.0250,-9.137651035,80.50886868,1551.839899
4.0300,-9.138319557,80.48053373,1552.152571
4.0350,-9.14459432,80.44717562,1552.448474
4.0400,-9.156468823,80.41079892,1552.727973
4.0450,-9.173631339,80.37152473,1552.991276
4.0500,-9.194815762,80.32806232,1553.237922
4.0550,-9.220217586,80.28256316,1553.469501
4.0600,-9.250002149,80.23438007,1553.686504
4.0650,-9.284223629,80.18475572,1553.889548
4.0700,-9.322513163,80.1345716,1554.079289
4.0750,-9.364408602,80.08394437,1554.256019
4.0800,-9.408748436,80.03385448,1554.420019
4.0850,-9.455572668,79.98408329,1554.572297
4.0900,-9.504057964,79.93434389,1554.713275
4.0950,-9.554605061,79.88626886,1554.843671
4.1000,-9.606561716,79.83988595,1554.963746
4.1050,-9.660537124,79.79554724,1555.074305
4.1100,-9.715059811,79.75228047,1555.175549
4.1150,-9.771527312,79.7099452,1555.268225
4.1200,-9.831064315,79.66948294,1555.353329
4.1250,-9.892015367,79.62900305,1555.430313
4.1300,-9.955806488,79.59043395,1555.500634
4.1350,-10.02077857,79.55384163,1555.563671
4.1400,-10.08761393,79.51897783,1555.619869
4.1450,-10.15593532,79.4858845,1555.668823
4.1500,-10.22675504,79.45379345,1555.71125
4.1550,-10.29937674,79.42422274,1555.747349
4.1600,-10.37409249,79.39549452,1555.777012
4.1650,-10.45055151,79.36863513,1555.800847
4.1700,-10.52974333,79.34325906,1555.818839
4.1750,-10.61083341,79.31984259,1555.830856
4.1800,-10.69304047,79.29942163,1555.837783
4.1850,-10.77707109,79.28119413,1555.840019
4.1900,-10.86111413,79.26593115,1555.837545
4.1950,-10.94497863,79.25440583,1555.830877
4.2000,-11.03037255,79.24518096,1555.819926
4.2050,-11.1166767,79.23798239,1555.805221
4.2100,-11.20384521,79.23282838,1555.786639
4.2150,-11.2911382,79.22977098,1555.76491
4.2200,-11.38019375,79.22578171,1555.739816
4.2250,-11.47004779,79.22252509,1555.711894
4.2300,-11.56213646,79.21896766,1555.681745
4.2350,-11.65549559,79.21556257,1555.649146
4.2400,-11.75113561,79.21214172,1555.614166
4.2450,-11.84836456,79.20833095,1555.576361
4.2500,-11.94734309,79.20555092,1555.537018
4.2550,-12.04838974,79.20289875,1555.495544
4.2600,-12.15143938,79.20014086,1555.452431
4.2650,-12.2567133,79.19677689,1555.407667
4.2700,-12.36490818,79.19332597,1555.361836
4.2750,-12.47511995,79.19004378,1555.315037
4.2800,-12.58730475,79.18742318,1555.26712
4.2850,-12.70180207,79.18435656,1555.218327
4.2900,-12.81808007,79.1811274,1555.168657
4.2950,-12.93582192,79.17709443,1555.117471
4.3000,-13.0550665,79.1731231,1555.065189
4.3050,-13.17405087,79.16934873,1555.012179
4.3100,-13.29392016,79.16542816,1554.957949
4.3150,-13.41495366,79.16083206,1554.902783
4.3200,-13.53592488,79.15636723,1554.847305
4.3250,-13.65582964,79.1523862,1554.791053
4.3300,-13.77631088,79.14714686,1554.733814
4.3350,-13.89699965,79.1420813,1554.67552
4.3400,-14.01774168,79.13634583,1554.615998
4.3450,-14.13789538,79.13075653,1554.555243
4.3500,-14.25924377,79.12547058,1554.493806
4.3550,-14.38182255,79.11969382,1554.431337
4.3600,-14.50607342,79.11398743,1554.367148
4.3650,-14.63254831,79.10827744,1554.30185
4.3700,-14.76082222,79.10280611,1554.234822
4.3750,-14.89173024,79.09648857,1554.16619
4.3800,-15.02411382,79.08946692,1554.095371
4.3850,-15.15881839,79.08293718,1554.022272
4.3900,-15.29507311,79.07602084,1553.946502
4.3950,-15.43355651,79.06823652,1553.868232
4.4000,-15.57347833,79.05929585,1553.787523
4.4050,-15.7159108,79.04876149,1553.704967
4.4100,-15.86110636,79.03701722,1553.620335
4.4150,-16.00895387,79.02287231,1553.533721
4.4200,-16.15863399,79.0062499,1553.445055
4.4250,-16.30964614,78.98825724,1553.355032
4.4300,-16.46136477,78.96672225,1553.26245
4.4350,-16.61373107,78.94216631,1553.168809
4.4400,-16.76649498,78.91483688,1553.073703
4.4450,-16.91902677,78.8840818,1552.977625
4.4500,-17.07073063,78.85252967,1552.880925
4.4550,-17.22306257,78.81796389,1552.784712
4.4600,-17.37585432,78.78053313,1552.688547
4.4650,-17.52885203,78.74231251,1552.593162
4.4700,-17.6822476,78.70187931,1552.498526
4.4750,-17.83686813,78.6587626,1552.404967
4.4800,-17.99118613,78.61369158,1552.312594
4.4850,-18.14562748,78.56716381,1552.220716
4.4900,-18.30045672,78.51882727,1552.129932
4.4950,-18.45613512,78.46807833,1552.040131
4.5000,-18.61146156,78.41604573,1551.951352
4.5050,-18.76691199,78.3620832,1551.863027
4.5100,-18.92190974,78.3068194,1551.775269
4.5150,-19.07614241,78.25093341,1551.687679
4.5200,-19.22967522,78.19470536,1551.600275
4.5250,-19.38382525,78.13676447,1551.512905
4.5300,-19.53625899,78.07753228,1551.424718
4.5350,-19.6883167,78.01603546,1551.335785
4.5400,-19.83904158,77.95309398,1551.246117
4.5450,-19.98814216,77.88818224,1551.155859
4.5500,-20.13673023,77.82115002,1551.064174
4.5550,-20.28391058,77.75262849,1550.971308
4.5600,-20.42903001,77.68228867,1550.876696
4.5650,-20.57287698,77.61157838,1550.781134
4.5700,-20.71493381,77.53904226,1550.683956
4.5750,-20.85633789,77.46537729,1550.584567
4.5800,-20.99704372,77.38966005,1550.48297
4.5850,-21.13628341,77.31415568,1550.378822
4.5900,-21.27445621,77.23775344,1550.271524
4.5950,-21.41189266,77.16116137,1550.161382
4.6000,-21.54817283,77.08478113,1550.047743
4.6050,-21.6837429,77.00793878,1549.930255
4.6100,-21.8191932,76.9307953,1549.809865
4.6150,-21.95242827,76.85431779,1549.68511
4.6200,-22.08498466,76.77868059,1549.555897
4.6250,-22.21621716,76.70201108,1549.421965
4.6300,-22.34498678,76.62453933,1549.282935
4.6350,-22.47220537,76.54708151,1549.139153
4.6400,-22.59696992,76.46966374,1548.990203
4.6450,-22.72055584,76.39109651,1548.83611
4.6500,-22.84268051,76.31153436,1548.6761
4.6550,-22.9634698,76.23086058,1548.510539
4.6600,-23.08305955,76.14751753,1548.339699
4.6650,-23.19957527,76.06256861,1548.163103
4.6700,-23.31500087,75.97568947,1547.981377
4.6750,-23.42773236,75.88767093,1547.794252
4.6800,-23.53967249,75.797508,1547.602446
4.6850,-23.64900732,75.7055295,1547.405825
4.6900,-23.75663479,75.61207489,1547.204888
4.6950,-23.86192888,75.51731509,1546.999552
4.7000,-23.9658254,75.42143418,1546.79028
4.7050,-24.06717965,75.32416095,1546.576954
4.7100,-24.16555835,75.22626439,1546.359979
4.7150,-24.26250651,75.12743655,1546.140163
4.7200,-24.35742422,75.02792908,1545.917617
4.7250,-24.4507774,74.92784753,1545.692513
4.7300,-24.54181917,74.82741372,1545.465712
4.7350,-24.63167385,74.72687121,1545.236836
4.7400,-24.71906192,74.62527782,1545.006231
4.7450,-24.80552422,74.52509314,1544.774909
4.7500,-24.8893063,74.42453586,1544.542578
4.7550,-24.97064268,74.32531715,1544.309241
4.7600,-25.0483794,74.2277668,1544.075908
4.7650,-25.1236825,74.13108734,1543.842168
4.7700,-25.19616509,74.03662567,1543.609043
4.7750,-25.2648725,73.94535504,1543.375745
4.7800,-25.33050176,73.85597902,1543.142822
4.7850,-25.39341579,73.76975836,1542.910992
4.7900,-25.45326362,73.68567268,1542.679978
4.7950,-25.51097927,73.60532269,1542.450424
4.8000,-25.56547836,73.52860396,1542.222203
4.8050,-25.617403,73.45581936,1541.995686
4.8100,-25.66599354,73.38725485,1541.770308
4.8150,-25.71200007,73.32109461,1541.546594
4.8200,-25.75544274,73.25883798,1541.324529
4.8250,-25.79535255,73.20230983,1541.103945
4.8300,-25.83277865,73.15029056,1540.884938
4.8350,-25.86665718,73.10283334,1540.667284
4.8400,-25.89837846,73.06037935,1540.450926
4.8450,-25.92809598,73.02271439,1540.235514
4.8500,-25.95630438,72.98943801,1540.021015
4.8550,-25.98388456,72.96033442,1539.807898
4.8600,-26.01081275,72.93474949,1539.595345
4.8650,-26.03836659,72.91255245,1539.382657
4.8700,-26.06638941,72.89466827,1539.170631
4.8750,-26.09573589,72.88026848,1538.959191
4.8800,-26.12530895,72.86953349,1538.748348
4.8850,-26.15617901,72.86249659,1538.537598
4.8900,-26.18839054,72.85963358,1538.327519
4.8950,-26.22223262,72.86018499,1538.117708
4.9000,-26.25699498,72.86424257,1537.907753
4.9050,-26.29505805,72.87138525,1537.698145
4.9100,-26.33470454,72.88286239,1537.487919
4.9150,-26.37892437,72.89698308,1537.277545
4.9200,-26.42736779,72.91321197,1537.066571
4.9250,-26.48033503,72.93263833,1536.855761
4.9300,-26.53900395,72.95579329,1536.644901
4.9350,-26.60279223,72.98097913,1536.433817
4.9400,-26.67230174,73.00975402,1536.222383
4.9450,-26.74656054,73.03960587,1536.009862
4.9500,-26.82581476,73.0719002,1535.796621
4.9550,-26.91097533,73.10677378,1535.581992
4.9600,-27.00072698,73.14627047,1535.366242
4.9650,-27.09603038,73.18843937,1535.147875
4.9700,-27.19684222,73.23417392,1534.927501
4.9750,-27.30437397,73.28270095,1534.704609
4.9800,-27.41698271,73.33464354,1534.478157
4.9850,-27.53647026,73.38882402,1534.248916
4.9900,-27.66327357,73.44496775,1534.015871
4.9950,-27.79788974,73.50354125,1533.779028
5.0000,-27.94047028,73.56564609,1533.537899
5.0050,-28.09098708,73.63047124,1533.292097
5.0100,-28.25080265,73.6978871,1533.041303
5.0150,-28.41784164,73.76850641,1532.784692
5.0200,-28.59474333,73.84305221,1532.522532
5.0250,-28.78151295,73.9219101,1532.254948
5.0300,-28.97843916,74.00531655,1531.98056
5.0350,-29.18584411,74.09390849,1531.699475
5.0400,-29.40407309,74.18941833,1531.411106
5.0450,-29.63166463,74.2903162,1531.11447
5.0500,-29.86940244,74.39785602,1530.809089
5.0550,-30.11766117,74.51129243,1530.494835
5.0600,-30.37761704,74.63229951,1530.171017
5.0650,-30.64864701,74.75938372,1529.837069
5.0700,-30.93022966,74.89438841,1529.492624
5.0750,-31.22312453,75.03655526,1529.137903
5.0800,-31.5266509,75.1858656,1528.771354
5.0850,-31.84030477,75.34215086,1528.393073
5.0900,-32.16442525,75.50649934,1528.002061
5.0950,-32.49849675,75.6794706,1527.59798
5.1000,-32.84331339,75.86061306,1527.180308
5.1050,-33.19787425,76.04917796,1526.748064
5.1100,-33.56227648,76.24508502,1526.301155
5.1150,-33.93592383,76.44914567,1525.838723
5.1200,-34.3186695,76.66038288,1525.360408
5.1250,-34.71064678,76.87765858,1524.865423
5.1300,-35.11219676,77.09894228,1524.35363
5.1350,-35.52324127,77.32699427,1523.824602
5.1400,-35.9430612,77.5595566,1523.278378
5.1450,-36.37123573,77.79796219,1522.7148
5.1500,-36.80627211,78.04179258,1522.133636
5.1550,-37.24881748,78.29015597,1521.534203
5.1600,-37.69942822,78.54328498,1520.917676
5.1650,-38.15786455,78.80005393,1520.284759
5.1700,-38.62402657,79.06059453,1519.634224
5.1750,-39.0973064,79.32372959,1518.966763
5.1800,-39.5784573,79.59090471,1518.28238
5.1850,-40.06579736,79.86040732,1517.580732
5.1900,-40.55924875,80.13247931,1516.861722
5.1950,-41.05847201,80.40616857,1516.125712
5.2000,-41.56486995,80.68081643,1515.372803
5.2050,-42.07599224,80.9570366,1514.602378
5.2100,-42.59386695,81.2326569,1513.815655
5.2150,-43.11693031,81.50779979,1513.0123
5.2200,-43.64599561,81.78146467,1512.193345
5.2250,-44.1806294,82.05470945,1511.358024
5.2300,-44.71950887,82.32602873,1510.507001
5.2350,-45.26465822,82.59626457,1509.64098
5.2400,-45.81437343,82.86474588,1508.760279
5.2450,-46.37121307,83.13266397,1507.866261
5.2500,-46.93324897,83.39981768,1506.958559
5.2550,-47.49937074,83.66452638,1506.037412
5.2600,-48.06998044,83.92726181,1505.102619
5.2650,-48.64488883,84.18823873,1504.155496
5.2700,-49.22454998,84.44717324,1503.195736
5.2750,-49.80616274,84.70441243,1502.223885
5.2800,-50.39139261,84.95958396,1501.240672
5.2850,-50.97965711,85.21262995,1500.244993
5.2900,-51.57091587,85.46462671,1499.238533
5.2950,-52.16373466,85.71515368,1498.22102
5.3000,-52.75786464,85.9625062,1497.193219
5.3050,-53.35323099,86.20774357,1496.155392
5.3100,-53.94885848,86.44981632,1495.108939
5.3150,-54.5445326,86.68890256,1494.053811
5.3200,-55.13717519,86.9234434,1492.989633
5.3250,-55.72713171,87.15272335,1491.916127
5.3300,-56.31263301,87.37732864,1490.834091
5.3350,-56.89295063,87.59690691,1489.743084
5.3400,-57.46767897,87.80844124,1488.643307
5.3450,-58.03619377,88.01362754,1487.534247
5.3500,-58.59905035,88.21065077,1486.416342
5.3550,-59.15393267,88.40022447,1485.289155
5.3600,-59.69979915,88.58073305,1484.153127
5.3650,-60.23680113,88.75549147,1483.008396
5.3700,-60.76542347,88.92168466,1481.855318
5.3750,-61.2845006,89.07957093,1480.69372
5.3800,-61.79375335,89.23012916,1479.523497
5.3850,-62.29192235,89.37362865,1478.34499
5.3900,-62.77908891,89.50966065,1477.158388
5.3950,-63.25460379,89.63702822,1475.964033
5.4000,-63.71781587,89.75683144,1474.761719
5.4050,-64.16823771,89.86908794,1473.551906
5.4100,-64.6069516,89.97429418,1472.335268
5.4150,-65.03441054,90.07219233,1471.112166
5.4200,-65.4494923,90.16301008,1469.883513
5.4250,-65.85188807,90.24704534,1468.650105
5.4300,-66.24200714,90.32675964,1467.41212
5.4350,-66.62093233,90.39962446,1466.170274
5.4400,-66.98963979,90.46761975,1464.925691
5.4450,-67.34937626,90.52937958,1463.679036
5.4500,-67.70135444,90.58567614,1462.431288
5.4550,-68.04538816,90.63762973,1461.182926
5.4600,-68.38180123,90.6848778,1459.933877
5.4650,-68.71064097,90.72763286,1458.684503
5.4700,-69.0323227,90.76589793,1457.435465
5.4750,-69.34822972,90.80140013,1456.186878
5.4800,-69.65942368,90.83141363,1454.938878
5.4850,-69.96737986,90.85701582,1453.692094
5.4900,-70.27311899,90.87722321,1452.44629
5.4950,-70.57792799,90.89412045,1451.202191
5.5000,-70.88243968,90.90674244,1449.960867
5.5050,-71.18832736,90.91519243,1448.722412
5.5100,-71.49521487,90.92073092,1447.486221
5.5150,-71.80407748,90.92413517,1446.253274
5.5200,-72.11418301,90.92649805,1445.023092
5.5250,-72.42556944,90.92664905,1443.796162
5.5300,-72.73902919,90.92580876,1442.571772
5.5350,-73.05302195,90.92449476,1441.350383
5.5400,-73.36936918,90.92236533,1440.13131
5.5450,-73.68663518,90.91961936,1438.913536
5.5500,-74.00696677,90.91740696,1437.698351
5.5550,-74.33094364,90.91649385,1436.484935
5.5600,-74.65899971,90.91756411,1435.273689
5.5650,-74.99135247,90.92058215,1434.06446
5.5700,-75.32655073,90.92582029,1432.857307
5.5750,-75.66667276,90.93337762,1431.651991
5.5800,-76.01147853,90.94466358,1430.448274
5.5850,-76.36053789,90.9598289,1429.247427
5.5900,-76.71276008,90.97857819,1428.048101
5.5950,-77.06808575,91.00130632,1426.850214
5.6000,-77.42649124,91.02924864,1425.653264
5.6050,-77.78704539,91.06265667,1424.457522
5.6100,-78.14912686,91.10077407,1423.260925
5.6150,-78.51217426,91.14450569,1422.063144
5.6200,-78.87688402,91.19345063,1420.864203
5.6250,-79.24216008,91.24799179,1419.663928
5.6300,-79.60907937,91.30722017,1418.461358
5.6350,-79.97642881,91.37050759,1417.256207
5.6400,-80.34458684,91.43970893,1416.048768
5.6450,-80.71248069,91.5126022,1414.838721
5.6500,-81.07844534,91.58944006,1413.625068
5.6550,-81.4431879,91.66990919,1412.407741
5.6600,-81.80530324,91.7552121,1411.185772
5.6650,-82.16321619,91.84268173,1409.95897
5.6700,-82.51617895,91.93391956,1408.727321
5.6750,-82.86345852,92.02917917,1407.490142
5.6800,-83.20435002,92.12960886,1406.24814
5.6850,-83.53891162,92.2338643,1405.000044
5.6900,-83.86716002,92.34003878,1403.746013
5.6950,-84.18909226,92.44862464,1402.485176
5.7000,-84.50412205,92.55875061,1401.218434
5.7050,-84.81468403,92.6698965,1399.94568
5.7100,-85.12068631,92.7814766,1398.666018
5.7150,-85.4210496,92.89303667,1397.379439
5.7200,-85.71769258,93.00450612,1396.084702
5.7250,-86.01096011,93.11661921,1394.782418
5.7300,-86.30123778,93.2273879,1393.473134
5.7350,-86.58852896,93.33836593,1392.157013
5.7400,-86.87167114,93.4491038,1390.832811
5.7450,-87.15031029,93.56151571,1389.501341
5.7500,-87.42456639,93.67438243,1388.163169
5.7550,-87.69404884,93.7870227,1386.819187
5.7600,-87.95696007,93.90079262,1385.469062
5.7650,-88.21338134,94.01443716,1384.112329
5.7700,-88.46373281,94.12834279,1382.750227
5.7750,-88.70626363,94.24136403,1381.382582
5.7800,-88.940998,94.35540462,1380.009926
5.7850,-89.16743674,94.46939458,1378.633242
5.7900,-89.38555073,94.58313629,1377.253137
5.7950,-89.5942408,94.69616968,1375.869652
5.8000,-89.79241881,94.80885049,1374.482936
5.8050,-89.97981082,94.91990419,1373.09379
5.8100,-90.15675028,95.0294652,1371.702779
5.8150,-90.32339806,95.13583904,1370.310594
5.8200,-90.48047037,95.23868899,1368.918285
5.8250,-90.62987298,95.33806641,1367.525999
5.8300,-90.77196614,95.43193921,1366.135053
5.8350,-90.90673769,95.51899179,1364.745786
5.8400,-91.03491413,95.59886336,1363.358985
5.8450,-91.15718719,95.67195166,1361.975897
5.8500,-91.27389975,95.73569312,1360.596638
5.8550,-91.38562201,95.79051312,1359.222357
5.8600,-91.49324411,95.83520887,1357.853624
5.8650,-91.59657816,95.86881298,1356.491312
5.8700,-91.69694613,95.89211117,1355.135793
5.8750,-91.79398098,95.90607332,1353.787194
5.8800,-91.88842211,95.9093987,1352.446175
5.8850,-91.98024689,95.90229923,1351.113096
5.8900,-92.07024315,95.88593174,1349.787957
5.8950,-92.15807179,95.85967811,1348.471646
5.9000,-92.2446197,95.82344154,1347.164037
5.9050,-92.32966394,95.77762669,1345.865498
5.9100,-92.4136143,95.72335733,1344.576576
5.9150,-92.49668201,95.66089105,1343.296119
5.9200,-92.57839373,95.59136578,1342.023496
5.9250,-92.65826982,95.51470559,1340.758488
5.9300,-92.7363173,95.43239897,1339.500959
5.9350,-92.81293202,95.34455718,1338.250747
5.9400,-92.88672173,95.25203976,1337.006168
5.9450,-92.95818989,95.15746233,1335.766917
5.9500,-93.0276936,95.06172423,1334.533101
5.9550,-93.09465452,94.96446233,1333.303201
5.9600,-93.15974377,94.86566325,1332.077209
5.9650,-93.22222487,94.76683207,1330.854728
5.9700,-93.2828149,94.66777612,1329.634096
5.9750,-93.34103626,94.57022483,1328.415974
5.9800,-93.39790111,94.47164142,1327.199072
5.9850,-93.45251745,94.3729039,1325.982942
5.9900,-93.50235206,94.27739707,1324.766569
5.9950,-93.54759027,94.1833981,1323.550319
6.0000,-93.588328,94.09333435,1322.332968
6.0050,-93.62245646,94.00781307,1321.113507
6.0100,-93.64986427,93.92634383,1319.892652
6.0150,-93.67118081,93.84939241,1318.669884
6.0200,-93.68538927,93.77689204,1317.445581
6.0250,-93.69245632,93.70889498,1316.218523
6.0300,-93.69128583,93.64687847,1314.988015
6.0350,-93.68120299,93.59054733,1313.753887
6.0400,-93.66323773,93.53950219,1312.5161
6.0450,-93.63675452,93.49277639,1311.273202
6.0500,-93.60224773,93.45123998,1310.024271
6.0550,-93.55922015,93.41524715,1308.76986
6.0600,-93.50850657,93.38538856,1307.50952
6.0650,-93.44962943,93.36198833,1306.243931
6.0700,-93.38091154,93.3455193,1304.97123
6.0750,-93.30489481,93.33662821,1303.691582
6.0800,-93.21961369,93.33475886,1302.40412
6.0850,-93.12712735,93.34042769,1301.108286
6.0900,-93.0274617,93.35328188,1299.804486
6.0950,-92.91994404,93.3731433,1298.491416
6.1000,-92.80665524,93.4000662,1297.169139
6.1050,-92.68709755,93.43508554,1295.838414
6.1100,-92.5613956,93.47734079,1294.498562
6.1150,-92.42886516,93.52679959,1293.149711
6.1200,-92.28895468,93.58288376,1291.792644
6.1250,-92.14119312,93.64507854,1290.427243
6.1300,-91.98603981,93.71433976,1289.054524
6.1350,-91.82405265,93.79058045,1287.673435
6.1400,-91.65464905,93.87312905,1286.285345
6.1450,-91.47803969,93.96108057,1284.890217
6.1500,-91.29390778,94.05554395,1283.488197
6.1550,-91.10259388,94.15496017,1282.07991
6.1600,-90.9025244,94.25876011,1280.66557
6.1650,-90.69488054,94.36791388,1279.244719
6.1700,-90.47981858,94.48013582,1277.818528
6.1750,-90.25710904,94.5936474,1276.387524
6.1800,-90.0269996,94.70794423,1274.952792
6.1850,-89.78982615,94.8229458,1273.51345
6.1900,-89.54510885,94.93723199,1272.071116
6.1950,-89.29576603,95.05056251,1270.625868
6.2000,-89.04068737,95.16015508,1269.178305
6.2050,-88.78110006,95.26545668,1267.728066
6.2100,-88.51756875,95.36503442,1266.276148
6.2150,-88.2508171,95.45923977,1264.822738
6.2200,-87.98159155,95.54679722,1263.368809
6.2250,-87.71224997,95.62665898,1261.91389
6.2300,-87.4424332,95.69879484,1260.45783
6.2350,-87.17368217,95.76183529,1259.000921
6.2400,-86.90655535,95.81530055,1257.543723
6.2450,-86.6408508,95.85779029,1256.086601
6.2500,-86.37757416,95.89048743,1254.629741
6.2550,-86.11750897,95.91282658,1253.174387
6.2600,-85.86085107,95.92473342,1251.720089
6.2650,-85.60768271,95.92647595,1250.267291
6.2700,-85.35660363,95.91931958,1248.816301
6.2750,-85.10760434,95.90223323,1247.365529
6.2800,-84.85987049,95.87730467,1245.915989
6.2850,-84.61430679,95.84521876,1244.467863
6.2900,-84.37256184,95.8045566,1243.021426
6.2950,-84.13428955,95.75654072,1241.575607
6.3000,-83.89785247,95.70134403,1240.130114
6.3050,-83.6655576,95.6384438,1238.685331
6.3100,-83.43395343,95.57036285,1237.240105
6.3150,-83.20303534,95.49751087,1235.793416
6.3200,-82.97165195,95.42043038,1234.345403
6.3250,-82.73864237,95.34004667,1232.896493
6.3300,-82.50281636,95.25589976,1231.445606
6.3350,-82.26366951,95.16830639,1229.9926
6.3400,-82.01990926,95.07775114,1228.537398
6.3450,-81.77065227,94.9855934,1227.080552
6.3500,-81.51433791,94.89341288,1225.621944
6.3550,-81.25039736,94.80057315,1224.159458
6.3600,-80.97844651,94.70736607,1222.69316
6.3650,-80.69820606,94.61508113,1221.222218
6.3700,-80.40946347,94.52380286,1219.747278
6.3750,-80.10948158,94.43337704,1218.268125
6.3800,-79.7987487,94.34472623,1216.785191
6.3850,-79.47378269,94.25858655,1215.297771
6.3900,-79.13337858,94.17623654,1213.805608
6.3950,-78.77776037,94.09661499,1212.310466
6.4000,-78.40479382,94.02018423,1210.812702
6.4050,-78.01433757,93.94654917,1209.311761
6.4100,-77.60570739,93.87714206,1207.810117
6.4150,-77.17942821,93.81161789,1206.306115
6.4200,-76.73608071,93.7496918,1204.800089
6.4250,-76.27543846,93.69107531,1203.292785
6.4300,-75.79637315,93.63578103,1201.783581
6.4350,-75.30033724,93.58298082,1200.274122
6.4400,-74.78765819,93.53299195,1198.763727
6.4450,-74.25929641,93.48532246,1197.25321
6.4500,-73.71609656,93.43937613,1195.743484
6.4550,-73.15814118,93.39495669,1194.234705
6.4600,-72.58792092,93.35282258,1192.727778
6.4650,-72.00502883,93.31196904,1191.222985
6.4700,-71.41069401,93.27219208,1189.720251
6.4750,-70.80773044,93.23359691,1188.220464
6.4800,-70.19674645,93.19559369,1186.723562
6.4850,-69.57981365,93.15776105,1185.230517
6.4900,-68.95894191,93.11973627,1183.742098
6.4950,-68.33325845,93.08117393,1182.257882
6.5000,-67.7053716,93.04192701,1180.778095
6.5050,-67.0756478,93.00085855,1179.30383
6.5100,-66.44503863,92.95835777,1177.834581
6.5150,-65.81644223,92.91056447,1176.371513
6.5200,-65.19104018,92.85722676,1174.914965
6.5250,-64.56860083,92.79787436,1173.465344
6.5300,-63.95152728,92.73080023,1172.023744
6.5350,-63.33896378,92.65677514,1170.590113
6.5400,-62.73212674,92.57505504,1169.16504
6.5450,-62.13237616,92.48462478,1167.748535
6.5500,-61.53936356,92.3851715,1166.340762
6.5550,-60.95170827,92.27635013,1164.940824
6.5600,-60.36925475,92.15864482,1163.548828
6.5650,-59.79252227,92.03079754,1162.164354
6.5700,-59.22152203,91.89206532,1160.786956
6.5750,-58.65619134,91.74388971,1159.417492
6.5800,-58.09646905,91.584634,1158.054636
6.5850,-57.5418164,91.41454402,1156.697252
6.5900,-56.99140818,91.23465331,1155.345524
6.5950,-56.44331708,91.04608495,1153.998131
6.6000,-55.8982491,90.84771563,1152.655575
6.6050,-55.35383535,90.64115342,1151.317143
6.6100,-54.81159097,90.42558521,1149.983049
6.6150,-54.27040205,90.20157852,1148.653151
6.6200,-53.72953293,89.97041702,1147.32708
6.6250,-53.1887813,89.73079203,1146.004207
6.6300,-52.64883107,89.48345859,1144.685588
6.6350,-52.10947875,89.22831954,1143.370675
6.6400,-51.569392,88.96612161,1142.060069
6.6450,-51.02844761,88.69710563,1140.753239
6.6500,-50.48542073,88.41977273,1139.449458
6.6550,-49.9398933,88.13536194,1138.149427
6.6600,-49.39175361,87.84336559,1136.853813
6.6650,-48.83878089,87.54321424,1135.561688
6.6700,-48.28116645,87.23488847,1134.273162
6.6750,-47.71889613,86.91887997,1132.988413
6.6800,-47.15047982,86.59627516,1131.707472
6.6850,-46.57625485,86.26663732,1130.430777
6.6900,-45.99601481,85.92940465,1129.157718
6.6950,-45.40839201,85.5863363,1127.88704
6.7000,-44.81319982,85.23743781,1126.619031
6.7050,-44.21121417,84.8832338,1125.354055
6.7100,-43.60066993,84.52319532,1124.090117
6.7150,-42.9816909,84.15906038,1122.828573
6.7200,-42.35365818,83.79093764,1121.568295
6.7250,-41.71755605,83.41926067,1120.308928
6.7300,-41.07463605,83.04513249,1119.051079
6.7350,-40.42447437,82.66916376,1117.793915
6.7400,-39.76846763,82.29125086,1116.538019
6.7450,-39.10620776,81.9136544,1115.282748
6.7500,-38.43837039,81.53663167,1114.028408
6.7550,-37.76513648,81.1612228,1112.774532
6.7600,-37.08712397,80.78737511,1111.521556
6.7650,-36.4057611,80.41613018,1110.269873
6.7700,-35.72043099,80.0487627,1109.019862
6.7750,-35.03135727,79.6846688,1107.771582
6.7800,-34.33838214,79.32461216,1106.524976
6.7850,-33.64167182,78.96902037,1105.280626
6.7900,-32.94063939,78.61733905,1104.038369
6.7950,-32.23710875,78.27096558,1102.799018
6.8000,-31.53073711,77.92947779,1101.562603
6.8050,-30.82237949,77.5924125,1100.328654
6.8100,-30.11138434,77.2595757,1099.097511
6.8150,-29.3966492,76.93205033,1097.868991
6.8200,-28.67634817,76.60948891,1096.642322
6.8250,-27.95039322,76.29231054,1095.417509
6.8300,-27.21786519,75.98061733,1094.194718
6.8350,-26.47977462,75.67430158,1092.974183
6.8400,-25.7344802,75.37180022,1091.75525
6.8450,-24.98250899,75.07429438,1090.538851
6.8500,-24.22295678,74.78002262,1089.324873
6.8550,-23.45645497,74.48907402,1088.113956
6.8600,-22.68315088,74.19988486,1086.90663
6.8650,-21.90284889,73.91221168,1085.703275
6.8700,-21.1158678,73.62501652,1084.504828
6.8750,-20.3217781,73.33596943,1083.311382
6.8800,-19.52074415,73.04472526,1082.12372
6.8850,-18.71225616,72.75004325,1080.942712
6.8900,-17.8953139,72.45122089,1079.768468
6.8950,-17.07045555,72.14702953,1078.601848
6.9000,-16.23625779,71.83779674,1077.442811
6.9050,-15.39229899,71.52232629,1076.291587
6.9100,-14.53842336,71.20005387,1075.148558
6.9150,-13.67362756,70.87038013,1074.014109
6.9200,-12.79938904,70.53154989,1072.888455
6.9250,-11.91527982,70.18356688,1071.77176
6.9300,-11.02142089,69.82727289,1070.664074
6.9350,-10.11841993,69.46065702,1069.565538
6.9400,-9.208119837,69.0829707,1068.476558
6.9450,-8.290814932,68.69258408,1067.397067
6.9500,-7.367801286,68.29093412,1066.328102
6.9550,-6.440242169,67.87570943,1065.269715
6.9600,-5.509906805,67.44717752,1064.222323
6.9650,-4.578871786,67.00491509,1063.186764
6.9700,-3.648794282,66.54902888,1062.163776
6.9750,-2.720339874,66.07984887,1061.153843
6.9800,-1.795054755,65.59579392,1060.156967
6.9850,-0.8743424193,65.09731343,1059.174023
6.9900,0.04048188917,64.58551949,1058.205523
6.9950,0.9477109121,64.05911446,1057.25236
7.0000,1.847282,63.5192839,1056.313928
7.0050,2.739674701,62.96648931,1055.390239
7.0100,3.623002803,62.40168221,1054.482086
7.0150,4.497105029,61.82690645,1053.58943
7.0200,5.361022017,61.24151686,1052.712086
7.0250,6.213628509,60.64741011,1051.850309
7.0300,7.055122489,60.04663058,1051.003677
7.0350,7.885068684,59.43960772,1050.17197
7.0400,8.703488859,58.82738086,1049.354615
7.0450,9.508385754,58.21142265,1048.55199
7.0500,10.30001994,57.59338224,1047.763477
7.0550,11.07717964,56.97385475,1046.98858
7.0600,11.83831159,56.35525442,1046.227382
7.0650,12.58410155,55.73862128,1045.479049
7.0700,13.31230687,55.12402908,1044.743624
7.0750,14.02391501,54.51257332,1044.020259
7.0800,14.71786589,53.90614754,1043.309163
7.0850,15.39499607,53.30505509,1042.608977
7.0900,16.0549613,52.71039823,1041.91937
7.0950,16.69894635,52.12124083,1041.240046
7.1000,17.32721262,51.54004369,1040.570494
7.1050,17.94173518,50.96659021,1039.909667
7.1100,18.54338244,50.40242817,1039.257098
7.1150,19.13140258,49.84851046,1038.613011
7.1200,19.70630351,49.30558418,1037.977161
7.1250,20.26930083,48.77531804,1037.349483
7.1300,20.82285888,48.25715963,1036.728831
7.1350,21.36900768,47.75299861,1036.115031
7.1400,21.90736918,47.26344254,1035.508432
7.1450,22.44091436,46.78798509,1034.907844
7.1500,22.96989765,46.32710072,1034.313211
7.1550,23.49652671,45.88054761,1033.7238
7.1600,24.02080326,45.4485472,1033.139861
7.1650,24.5450565,45.03158648,1032.560667
7.1700,25.06952646,44.62900779,1031.986488
7.1750,25.5945742,44.24030077,1031.416925
7.1800,26.12155269,43.86612429,1030.851894
7.1850,26.65237264,43.50706139,1030.290954
7.1900,27.18650339,43.16094773,1029.734174
7.1950,27.72527226,42.82786428,1029.181489
7.2000,28.26867195,42.50584309,1028.632712
7.2050,28.81791059,42.194762,1028.088101
7.2100,29.37377753,41.89434572,1027.547334
7.2150,29.93648787,41.60294869,1027.010705
7.2200,30.50663348,41.32013738,1026.478101
7.2250,31.08517653,41.04589572,1025.949427
7.2300,31.67303504,40.77693296,1025.424285
7.2350,32.27212754,40.51400221,1024.902456
7.2400,32.88350688,40.25580094,1024.383525
7.2450,33.50694427,40.00284706,1023.867922
7.2500,34.14313012,39.75335317,1023.355126
7.2550,34.79245272,39.50775967,1022.845041
7.2600,35.45646365,39.26501806,1022.337015
7.2650,36.13522793,39.02532983,1021.830881
7.2700,36.82891976,38.78814207,1021.326306
7.2750,37.53632864,38.55253417,1020.823537
7.2800,38.25781274,38.31884291,1020.322574
7.2850,38.99314822,38.08797912,1019.823051
7.2900,39.74115509,37.85794618,1019.325246
7.2950,40.50117347,37.62970209,1018.829388
7.3000,41.27033375,37.40160956,1018.336159
7.3050,42.04854488,37.17319247,1017.845235
7.3100,42.83431599,36.94345052,1017.356923
7.3150,43.62625655,36.71170025,1016.871801
7.3200,44.42402169,36.47900256,1016.390115
7.3250,45.22778061,36.24429519,1015.91196
7.3300,46.03633995,36.00694749,1015.437415
7.3350,46.84890148,35.76701705,1014.966706
7.3400,47.66455471,35.52483114,1014.500315
7.3450,48.4839149,35.27987222,1014.038044
7.3500,49.30631985,35.03190447,1013.580036
7.3550,50.13146518,34.78176987,1013.126548
7.3600,50.9612785,34.52859368,1012.676975
7.3650,51.79367898,34.27122507,1012.231547
7.3700,52.63053394,34.01041043,1011.789634
7.3750,53.4715494,33.74754254,1011.351581
7.3800,54.31641316,33.4807666,1010.917024
7.3850,55.16378129,33.21068442,1010.486427
7.3900,56.01268373,32.93800192,1010.059975
7.3950,56.86411048,32.66192814,1009.637021
7.4000,57.71609115,32.38370006,1009.218362
7.4050,58.56756542,32.10386697,1008.804299
7.4100,59.41662928,31.82103013,1008.394907
7.4150,60.26402662,31.53669261,1007.990223
7.4200,61.10789278,31.24976254,1007.590323
7.4250,61.94830411,30.9601972,1007.195128
7.4300,62.78318711,30.66889639,1006.80515
7.4350,63.61182931,30.3741763,1006.420388
7.4400,64.43443208,30.07720304,1006.040553
7.4450,65.24916612,29.77674347,1005.666077
7.4500,66.05615707,29.47447223,1005.297239
7.4550,66.85462042,29.17055426,1004.934083
7.4600,67.64496415,28.86566088,1004.576463
7.4650,68.42630722,28.55894291,1004.22459
7.4700,69.19978383,28.25071052,1003.878015
7.4750,69.96404192,27.94296954,1003.53742
7.4800,70.72028605,27.6335804,1003.201943
7.4850,71.46658367,27.3229857,1002.872345
7.4900,72.2044726,27.01219854,1002.54826
7.4950,72.93353927,26.70042457,1002.229614
7.5000,73.65333956,26.38899828,1001.916715
7.5050,74.36523277,26.07825921,1001.609035
7.5100,75.06851481,25.76766167,1001.306953
7.5150,75.76386409,25.45800467,1001.010092
7.5200,76.45278616,25.14954133,1000.718105
7.5250,77.13498576,24.84268701,1000.431282
7.5300,77.81128144,24.53785314,1000.149176
7.5350,78.48058899,24.23650985,999.8723386
7.5400,79.14372855,23.93811516,999.6003762
7.5450,79.80087523,23.64265981,999.3331575
7.5500,80.45183147,23.35066428,999.070869
7.5550,81.09612771,23.06182724,998.8134981
7.5600,81.73271883,22.77602409,998.5612477
7.5650,82.36259349,22.49485427,998.3140429
7.5700,82.98517353,22.21667664,998.0720844
7.5750,83.60180881,21.94252592,997.8350036
7.5800,84.21126254,21.67218167,997.6028809
7.5850,84.81406505,21.40381312,997.3754326
7.5900,85.41134581,21.13884782,997.1526302
7.5950,86.00288494,20.87713781,996.9342901
7.6000,86.59089433,20.61862086,996.7199094
7.6050,87.17454855,20.36419978,996.509678
7.6100,87.75469973,20.11374186,996.3034543
7.6150,88.33158784,19.866524,996.1007508
7.6200,88.90621331,19.62299163,995.9014218
7.6250,89.4780559,19.38302172,995.7055401
7.6300,90.04837805,19.14578019,995.5125982
7.6350,90.61602165,18.91268787,995.3228534
7.6400,91.18119166,18.68282997,995.136168
7.6450,91.74418161,18.45707765,994.9523841
7.6500,92.30489899,18.2346515,994.7713602
7.6550,92.86258378,18.01543326,994.5931801
7.6600,93.41677618,17.79846386,994.4177381
7.6650,93.96638868,17.58497828,994.2454867
7.6700,94.51018528,17.37450189,994.0766368
7.6750,95.04641786,17.16592709,993.9112026
7.6800,95.57460534,16.960973,993.7494588
7.6850,96.09443032,16.75895381,993.5914856
7.6900,96.60492958,16.55902336,993.4373098
7.6950,97.10321764,16.36238083,993.287609
7.7000,97.58935745,16.16738842,993.1419624
7.7050,98.06199565,15.97570207,993.0008191
7.7100,98.52079424,15.78745924,992.8643427
7.7150,98.96406933,15.60176034,992.7327153
7.7200,99.39069871,15.41915097,992.6061287
7.7250,99.79949025,15.23992735,992.4848666
7.7300,100.1897279,15.0644602,992.3691131
7.7350,100.5615279,14.89338447,992.2588016
7.7400,100.9128167,14.72566493,992.1543318
7.7450,101.2441969,14.56377248,992.0556502
7.7500,101.5538871,14.40620768,991.9629575
7.7550,101.8404596,14.25315236,991.8765812
7.7600,102.1045128,14.10486187,991.7965372
7.7650,102.3451063,13.96254453,991.7229016
7.7700,102.5614878,13.82567686,991.6558276
7.7750,102.7548617,13.69410156,991.5952341
7.7800,102.9244354,13.56936719,991.5414192
7.7850,103.0699534,13.44971155,991.4942148
7.7900,103.1915945,13.33582029,991.4537479
7.7950,103.2882392,13.22954472,991.4204008
7.8000,103.3618805,13.13020748,991.3937709
7.8050,103.410809,13.03826676,991.3742541
7.8100,103.4357356,12.95410344,991.3617505
7.8150,103.4357624,12.87804447,991.3565548
7.8200,103.4111584,12.8106969,991.3587449
7.8250,103.362362,12.75169775,991.3681034
7.8300,103.2887197,12.70247531,991.3850342
7.8350,103.1905648,12.66064206,991.4091959
7.8400,103.0677499,12.62829486,991.4409107
7.8450,102.9202272,12.60490961,991.480344
7.8500,102.7474882,12.59101435,991.5274721
7.8550,102.551617,12.5869745,991.5822546
7.8600,102.3321975,12.59320409,991.6446654
7.8650,102.0891923,12.60888852,991.7148306
7.8700,101.8239814,12.63586464,991.7924774
7.8750,101.5355717,12.67269463,991.8780716
7.8800,101.2244308,12.71918019,991.9714066
7.8850,100.8907954,12.77771125,992.0729593
7.8900,100.5352091,12.84666857,992.1825549
7.8950,100.1571001,12.92641953,992.300573
7.9000,99.75600258,13.01744068,992.4272993
7.9050,99.33176791,13.11812213,992.5629079
7.9100,98.88491166,13.22994232,992.7073483
7.9150,98.41658235,13.35213158,992.8608928
7.9200,97.92563373,13.48526299,993.023759
7.9250,97.41322365,13.62905794,993.1959506
7.9300,96.87823896,13.78367641,993.3778507
7.9350,96.32246785,13.94854976,993.569212
7.9400,95.74633348,14.12420141,993.7701758
7.9450,95.14906871,14.30977059,993.9810548
7.9500,94.53101966,14.50549944,994.2020747
7.9550,93.89283968,14.71107665,994.4333607
7.9600,93.23381852,14.92750936,994.6753748
7.9650,92.55540647,15.153517,994.9279131
7.9700,91.85764495,15.38878229,995.1911276
7.9750,91.1405355,15.63315895,995.4652077
7.9800,90.40383822,15.88540278,995.7503692
7.9850,89.6470281,16.14629367,996.0467514
7.9900,88.8710486,16.41536511,996.3543574
7.9950,88.07682415,16.69299812,996.6731567
8.0000,87.26415151,16.97941108,997.0036522
8.0050,86.43288851,17.2726011,997.3459577
8.0100,85.58203087,17.57395865,997.7005258
8.0150,84.71363824,17.88256202,998.0669091
8.0200,83.8280291,18.19980614,998.4455678
8.0250,82.9237474,18.52303313,998.8367384
8.0300,82.00194125,18.85381113,999.2404027
8.0350,81.06102224,19.19156066,999.6572062
8.0400,80.10382776,19.53650507,1000.086918
8.0450,79.12891297,19.88840088,1000.529965
8.0500,78.13829108,20.24706924,1000.986212
8.0550,77.1323641,20.61306815,1001.455699
8.0600,76.11191535,20.98545785,1001.938366
8.0650,75.07732868,21.36368378,1002.434503
8.0700,74.03002693,21.74826869,1002.944073
8.0750,72.9696492,22.13809803,1003.467215
8.0800,71.89733487,22.53325424,1004.004244
8.0850,70.81340981,22.93420061,1004.555229
8.0900,69.71764868,23.34052165,1005.1205
8.0950,68.6119018,23.75085627,1005.700205
8.1000,67.49562992,24.16568403,1006.294567
8.1050,66.3685739,24.58360671,1006.903842
8.1100,65.23227728,25.00458848,1007.527913
8.1150,64.08668113,25.4290288,1008.166934
8.1200,62.93152327,25.85582602,1008.821414
8.1250,61.76703732,26.28512315,1009.491505
8.1300,60.59352767,26.71733798,1010.177403
8.1350,59.41122783,27.15291117,1010.879255
8.1400,58.21911401,27.59145695,1011.597344
8.1450,57.01807859,28.03235799,1012.33152
8.1500,55.80910374,28.47636055,1013.081892
8.1550,54.59004445,28.92272954,1013.848817
8.1600,53.36256392,29.37171302,1014.632216
8.1650,52.12592856,29.82312055,1015.432508
8.1700,50.87980368,30.27659177,1016.249582
8.1750,49.62394186,30.73244206,1017.083555
8.1800,48.35977598,31.1903822,1017.933899
8.1850,47.08620112,31.64949989,1018.800837
8.1900,45.80362348,32.11112699,1019.684506
8.1950,44.51244516,32.57443478,1020.584781
8.2000,43.21283414,33.0391736,1021.501337
8.2050,41.90668474,33.50720206,1022.433943
8.2100,40.59350684,33.97666732,1023.382517
8.2150,39.27322386,34.4477716,1024.346702
8.2200,37.94690841,34.92113505,1025.32672
8.2250,36.61413669,35.3964706,1026.322151
8.2300,35.27640029,35.87379023,1027.332873
8.2350,33.93276692,36.35238151,1028.358913
8.2400,32.58439443,36.83345979,1029.399883
8.2450,31.23268666,37.31529389,1030.454873
8.2500,29.87728092,37.79901998,1031.523921
8.2550,28.51790534,38.28474686,1032.606934
8.2600,27.15697881,38.77166174,1033.702947
8.2650,25.79395932,39.26032016,1034.812085
8.2700,24.42949863,39.75102971,1035.933686
8.2750,23.06507733,40.24350641,1037.067252
8.2800,21.70071018,40.73849998,1038.212907
8.2850,20.33695472,41.23458874,1039.370077
8.2900,18.9743494,41.73205743,1040.538729
8.2950,17.6119834,42.23033525,1041.718624
8.3000,16.25140031,42.72966793,1042.909373
8.3050,14.89188188,43.22951892,1044.1107
8.3100,13.53552675,43.72923441,1045.322006
8.3150,12.18247051,44.22976731,1046.543227
8.3200,10.83240923,44.72933308,1047.774238
8.3250,9.486948109,45.22985031,1049.015009
8.3300,8.146580231,45.72951718,1050.265023
8.3350,6.812639532,46.22697561,1051.523589
8.3400,5.483442672,46.72343306,1052.791216
8.3450,4.161703498,47.21868242,1054.066872
8.3500,2.847327615,47.71106086,1055.350135
8.3550,1.541577523,48.20112625,1056.640908
8.3600,0.244545698,48.68869704,1057.939199
8.3650,-1.043163672,49.17332758,1059.244206
8.3700,-2.320401509,49.65570616,1060.555523
8.3750,-3.585577003,50.13548105,1061.872343
8.3800,-4.840081964,50.61210685,1063.194819
8.3850,-6.08151307,51.08656783,1064.522405
8.3900,-7.310017853,51.55763544,1065.854636
8.3950,-8.526113133,52.02669356,1067.190475
8.4000,-9.729195671,52.49273653,1068.530165
8.4050,-10.91894648,52.95726004,1069.873709
8.4100,-12.09636225,53.41907536,1071.220612
8.4150,-13.25987048,53.87818973,1072.570506
8.4200,-14.4102896,54.33485908,1073.923225
8.4250,-15.54682421,54.78864834,1075.277918
8.4300,-16.67023065,55.23920748,1076.63496
8.4350,-17.78084738,55.68574692,1077.994038
8.4400,-18.87692458,56.12833715,1079.354572
8.4450,-19.95968032,56.56699537,1080.716825
8.4500,-21.02924962,56.99994203,1082.080631
8.4550,-22.08523885,57.42822116,1083.446294
8.4600,-23.12780709,57.84973987,1084.813256
8.4650,-24.15666376,58.26505125,1086.18083
8.4700,-25.17070639,58.67338265,1087.549186
8.4750,-26.1693175,59.07390394,1088.917735
8.4800,-27.15300845,59.46590916,1090.286653
8.4850,-28.12148393,59.84911412,1091.65509
8.4900,-29.07492615,60.2235319,1093.023613
8.4950,-30.01312211,60.58745321,1094.391118
8.5000,-30.93454079,60.94192075,1095.75761
8.5050,-31.84177958,61.28497675,1097.123322
8.5100,-32.73372888,61.61746589,1098.488105
8.5150,-33.61123864,61.93967583,1099.851962
8.5200,-34.47558767,62.25023844,1101.214339
8.5250,-35.32701822,62.55012321,1102.575178
8.5300,-36.16637117,62.83883633,1103.934238
8.5350,-36.99337784,63.11715171,1105.29127
8.5400,-37.80900018,63.3852921,1106.646326
8.5450,-38.61408637,63.64370346,1108.000009
8.5500,-39.40794801,63.89310235,1109.351726
8.5550,-40.1918124,64.13272109,1110.701276
8.5600,-40.96750894,64.36389549,1112.049505
8.5650,-41.73414868,64.5859944,1113.395469
8.5700,-42.49316128,64.79887166,1114.739992
8.5750,-43.24488578,65.0034643,1116.082573
8.5800,-43.98918549,65.19931731,1117.422974
8.5850,-44.72707249,65.38721143,1118.761639
8.5900,-45.45789365,65.56690617,1120.097702
8.5950,-46.18133854,65.73941271,1121.432576
8.6000,-46.89866356,65.90411545,1122.76529
8.6050,-47.60878645,66.06237554,1124.096167
8.6100,-48.31254708,66.21362645,1125.424905
8.6150,-49.01024134,66.35846231,1126.751693
8.6200,-49.7004661,66.49824559,1128.076495
8.6250,-50.38315713,66.63286202,1129.398289
8.6300,-51.05948491,66.76306927,1130.717817
8.6350,-51.72829115,66.89115191,1132.035312
8.6400,-52.38908777,67.01633038,1133.349874
8.6450,-53.04142529,67.13837256,1134.661715
8.6500,-53.68548774,67.25966089,1135.971303
8.6550,-54.32036424,67.38014717,1137.277972
8.6600,-54.94633372,67.50025462,1138.581939
8.6650,-55.5625059,67.62045735,1139.883205
8.6700,-56.17011786,67.73985198,1141.182175
8.6750,-56.76951201,67.85938849,1142.47952
8.6800,-57.36013742,67.97849425,1143.77405
8.6850,-57.94191636,68.09777971,1145.066245
8.6900,-58.51392691,68.21735423,1146.356125
8.6950,-59.07609981,68.33688726,1147.644636
8.7000,-59.62793578,68.45686471,1148.93131
8.7050,-60.16946933,68.57656313,1150.215822
8.7100,-60.701192,68.6965471,1151.49874
8.7150,-61.22139303,68.8175388,1152.779895
8.7200,-61.73060709,68.93927587,1154.059904
8.7250,-62.2307796,69.06210429,1155.339831
8.7300,-62.71975264,69.18592362,1156.618757
8.7350,-63.19777265,69.31125201,1157.897271
8.7400,-63.66589424,69.43862092,1159.176482
8.7450,-64.1237361,69.56782256,1160.456095
8.7500,-64.57196861,69.69930494,1161.736397
8.7550,-65.00945671,69.83276091,1163.015998
8.7600,-65.43752818,69.96940052,1164.295887
8.7650,-65.85615521,70.10825452,1165.576362
8.7700,-66.26689422,70.25034094,1166.858563
8.7750,-66.67023165,70.39526382,1168.142442
8.7800,-67.06541343,70.54333608,1169.428165
8.7850,-67.45316288,70.69404787,1170.716723
8.7900,-67.83492313,70.84703046,1172.008018
8.7950,-68.21073706,71.0027504,1173.302305
8.8000,-68.58179772,71.16006226,1174.599393
8.8050,-68.94761224,71.31933076,1175.89941
8.8100,-69.30914121,71.48004708,1177.203119
8.8150,-69.66737783,71.64128148,1178.510501
8.8200,-70.02154152,71.80288276,1179.821805
8.8250,-70.37256476,71.96452862,1181.137971
8.8300,-70.71989777,72.12634602,1182.458533
8.8350,-71.064349,72.28751936,1183.783955
8.8400,-71.40672221,72.44751997,1185.114203
8.8450,-71.74690904,72.60726092,1186.449477
8.8500,-72.0849999,72.76670696,1187.789483
8.8550,-72.42071453,72.92567307,1189.13475
8.8600,-72.75489016,73.08359549,1190.485156
8.8650,-73.08700491,73.24075933,1191.840722
8.8700,-73.41791283,73.39816203,1193.201855
8.8750,-73.74820937,73.55505471,1194.56927
8.8800,-74.07804308,73.71113769,1195.941835
8.8850,-74.40549892,73.86662231,1197.31967
8.8900,-74.73192805,74.022193,1198.70367
8.8950,-75.05866757,74.17552173,1200.092567
8.9000,-75.3838035,74.32718809,1201.486762
8.9050,-75.70628777,74.47790304,1202.885884
8.9100,-76.0260896,74.62768437,1204.290112
8.9150,-76.34406898,74.77479997,1205.699836
8.9200,-76.66117952,74.91949015,1207.114054
8.9250,-76.97587729,75.06222069,1208.533586
8.9300,-77.2886464,75.20170651,1209.957578
8.9350,-77.59996417,75.33734929,1211.385884
8.9400,-77.90809595,75.47036912,1212.818648
8.9450,-78.21394382,75.59963332,1214.256122
8.9500,-78.51753751,75.72481008,1215.697894
8.9550,-78.81875942,75.8470314,1217.143946
8.9600,-79.11776679,75.96602469,1218.593186
8.9650,-79.4144571,76.0803653,1220.045863
8.9700,-79.70758924,76.1919039,1221.501774
8.9750,-79.99712895,76.30001677,1222.960727
8.9800,-80.28293314,76.40516969,1224.423146
8.9850,-80.56491609,76.50728209,1225.888235
8.9900,-80.8445427,76.60747807,1227.356754
8.9950,-81.12067616,76.70415091,1228.827695
9.0000,-81.39365763,76.7978612,1230.301318
9.0050,-81.66229005,76.88888581,1231.777026
9.0100,-81.92641451,76.97760474,1233.2549
9.0150,-82.1884068,77.06395441,1234.735627
9.0200,-82.44690498,77.14760253,1236.218448
9.0250,-82.70095049,77.22788371,1237.702852
9.0300,-82.95201611,77.30462233,1239.1893
9.0350,-83.19938617,77.37836162,1240.677548
9.0400,-83.44360249,77.44837869,1242.166332
9.0450,-83.68410049,77.51379901,1243.655795
9.0500,-83.92045725,77.57595859,1245.145734
9.0550,-84.15387247,77.63436369,1246.63688
9.0600,-84.38290574,77.68968409,1248.128771
9.0650,-84.60736462,77.7426645,1249.621862
9.0700,-84.82649867,77.79233239,1251.115128
9.0750,-85.03980026,77.84018895,1252.607972
9.0800,-85.24816543,77.8861025,1254.101538
9.0850,-85.45012158,77.93080188,1255.595108
9.0900,-85.64558308,77.97397495,1257.087797
9.0950,-85.83565755,78.01555263,1258.580775
9.1000,-86.01995708,78.05612507,1260.074271
9.1050,-86.19820401,78.09540317,1261.567593
9.1100,-86.37107868,78.13381845,1263.061449
9.1150,-86.5366847,78.17231897,1264.554948
9.1200,-86.69605858,78.2110103,1266.048589
9.1250,-86.84795766,78.24912859,1267.542125
9.1300,-86.99416401,78.28757067,1269.036572
9.1350,-87.13317864,78.32710621,1270.530403
9.1400,-87.26619301,78.36766834,1272.024303
9.1450,-87.39305342,78.40762104,1273.517449
9.1500,-87.51474998,78.44653096,1275.010212
9.1550,-87.63072427,78.48578883,1276.502068
9.1600,-87.74071094,78.52491198,1277.992381
9.1650,-87.84616936,78.56418175,1279.482008
9.1700,-87.94622606,78.60258956,1280.968986
9.1750,-88.04118241,78.64006466,1282.453336
9.1800,-88.1314662,78.67645135,1283.935462
9.1850,-88.21673388,78.71196159,1285.414562
9.1900,-88.29721476,78.74713221,1286.890078
9.1950,-88.37207665,78.78278548,1288.362148
9.2000,-88.4424916,78.81919403,1289.831021
9.2050,-88.51042164,78.85500381,1291.296606
9.2100,-88.57501321,78.89121467,1292.759656
9.2150,-88.63584644,78.9288196,1294.219127
9.2200,-88.69193552,78.96685654,1295.675281
9.2250,-88.74385617,79.0061541,1297.128236
9.2300,-88.7904423,79.04787763,1298.57795
9.2350,-88.83221867,79.09147725,1300.024874
9.2400,-88.87107274,79.13664318,1301.468996
9.2450,-88.90626021,79.18419703,1302.910183
9.2500,-88.93660988,79.23473474,1304.347738
9.2550,-88.96345337,79.28655241,1305.782582
9.2600,-88.98592042,79.33840232,1307.21455
9.2650,-89.00515006,79.39260681,1308.643153
9.2700,-89.02098535,79.44784681,1310.068422
9.2750,-89.03308295,79.50443681,1311.489432
9.2800,-89.04089739,79.56262907,1312.906381
9.2850,-89.04571375,79.62271806,1314.319685
9.2900,-89.04624202,79.68319513,1315.727552
9.2950,-89.04340146,79.74508955,1317.130778
9.3000,-89.03785017,79.80814881,1318.529611
9.3050,-89.03031052,79.87164267,1319.924305
9.3100,-89.01997852,79.93610838,1321.314393
9.3150,-89.00659095,80.0005437,1322.699253
9.3200,-88.99031215,80.06569972,1324.079123
9.3250,-88.97068417,80.13119371,1325.453741
9.3300,-88.94725113,80.19702061,1326.823073
9.3350,-88.92000578,80.2622271,1328.187275
9.3400,-88.88841205,80.32664177,1329.546483
9.3450,-88.8527463,80.39207683,1330.901848
9.3500,-88.8126193,80.4576146,1332.25235
9.3550,-88.76647395,80.52336369,1333.598993
9.3600,-88.71472119,80.58955679,1334.941557
9.3650,-88.65688045,80.65459521,1336.280292
9.3700,-88.59260432,80.7181787,1337.613697
9.3750,-88.52176828,80.77984015,1338.943543
9.3800,-88.44510554,80.83984538,1340.268916
9.3850,-88.36319955,80.89618625,1341.58955
9.3900,-88.27516214,80.94984406,1342.906386
9.3950,-88.18031108,81.0000683,1344.217844
9.4000,-88.07904897,81.04646992,1345.524235
9.4050,-87.97194774,81.08860717,1346.825839
9.4100,-87.85900555,81.12738881,1348.12162
9.4150,-87.74139038,81.1615365,1349.413564
9.4200,-87.61849859,81.19257724,1350.700189
9.4250,-87.49172427,81.22070118,1351.981311
9.4300,-87.35923,81.2465778,1353.256651
9.4350,-87.22157988,81.26843253,1354.527122
9.4400,-87.07767711,81.28763133,1355.791566
9.4450,-86.92795383,81.30514363,1357.0509
9.4500,-86.77288721,81.32072521,1358.304515
9.4550,-86.61480706,81.33332814,1359.552095
9.4600,-86.45312373,81.34253176,1360.794129
9.4650,-86.28887539,81.34839097,1362.029758
9.4700,-86.12258988,81.35062661,1363.260351
9.4750,-85.9546585,81.35008183,1364.485141
9.4800,-85.78548211,81.34654872,1365.703759
9.4850,-85.61666298,81.34017095,1366.916889
9.4900,-85.4483854,81.33134719,1368.124401
9.4950,-85.28042093,81.32219514,1369.326107
9.5000,-85.11405122,81.31263816,1370.521717
9.5050,-84.94752302,81.30372875,1371.711123
9.5100,-84.78204812,81.29544826,1372.893245
9.5150,-84.6179389,81.28837887,1374.068941
9.5200,-84.45499824,81.28349852,1375.238103
9.5250,-84.29416092,81.28028984,1376.401331
9.5300,-84.13554012,81.28021382,1377.557769
9.5350,-83.97700564,81.28347171,1378.706748
9.5400,-83.81681603,81.29056016,1379.84849
9.5450,-83.65523308,81.30196813,1380.983134
9.5500,-83.49207937,81.31811036,1382.111132
9.5550,-83.32577928,81.33873647,1383.231207
9.5600,-83.15510814,81.3635863,1384.343304
9.5650,-82.9790132,81.39214817,1385.447681
9.5700,-82.79633404,81.42274976,1386.543853
9.5750,-82.60620776,81.45524817,1387.631753
9.5800,-82.40919583,81.48785808,1388.710506
9.5850,-82.2032507,81.51742762,1389.779777
9.5900,-81.98947791,81.54478494,1390.839748
9.5950,-81.7670007,81.56756804,1391.890291
9.6000,-81.53639553,81.58474722,1392.930894
9.6050,-81.29768936,81.59541586,1393.961802
9.6100,-81.05158814,81.59711596,1394.983361
9.6150,-80.79820542,81.58952688,1395.995465
9.6200,-80.5375942,81.57250611,1396.99861
9.6250,-80.27057101,81.5455809,1397.993424
9.6300,-79.99729457,81.50974328,1398.98037
9.6350,-79.71919142,81.46549317,1399.959852
9.6400,-79.43475873,81.41303212,1400.932919
9.6450,-79.14499089,81.35149533,1401.898947
9.6500,-78.8507664,81.28112522,1402.859564
9.6550,-78.55151072,81.20281435,1403.815399
9.6600,-78.24796674,81.11572904,1404.766649
9.6650,-77.94070046,81.02193433,1405.714068
9.6700,-77.63018053,80.92117491,1406.659478
9.6750,-77.31613271,80.81485479,1407.602367
9.6800,-76.99798782,80.7031276,1408.543606
9.6850,-76.67588649,80.58590759,1409.484237
9.6900,-76.35025435,80.46378395,1410.423923
9.6950,-76.02008381,80.33795525,1411.36328
9.7000,-75.68564974,80.2081882,1412.302628
9.7050,-75.34721944,80.07406146,1413.242977
9.7100,-75.00408117,79.9350568,1414.184291
9.7150,-74.65728284,79.79268931,1415.126007
9.7200,-74.30653022,79.64555541,1416.069601
9.7250,-73.95177396,79.49404001,1417.014776
9.7300,-73.5947864,79.3366585,1417.962136
9.7350,-73.23620511,79.17584885,1418.912112
9.7400,-72.87741129,79.01149583,1419.865146
9.7450,-72.51825671,78.84360003,1420.821789
9.7500,-72.159185,78.67299433,1421.782451
9.7550,-71.79769044,78.50083779,1422.747231
9.7600,-71.43532817,78.32861483,1423.716139
9.7650,-71.07220495,78.15530338,1424.689359
9.7700,-70.70816682,77.98140817,1425.666927
9.7750,-70.3442398,77.80776543,1426.64942
9.7800,-69.98063561,77.63497099,1427.636712
9.7850,-69.61882082,77.46333232,1428.62838
9.7900,-69.2581956,77.29277066,1429.62469
9.7950,-68.89886038,77.12270434,1430.624798
9.8000,-68.54078208,76.95334937,1431.628514
9.8050,-68.18651623,76.78444514,1432.63593
9.8100,-67.83500894,76.61591357,1433.646888
9.8150,-67.48754296,76.44902995,1434.660835
9.8200,-67.14422654,76.28480771,1435.677569
9.8250,-66.8051634,76.12257682,1436.695002
9.8300,-66.46955432,75.96054082,1437.71471
9.8350,-66.13984476,75.80113797,1438.735512
9.8400,-65.81668485,75.64371683,1439.757366
9.8450,-65.49900809,75.48855764,1440.77933
9.8500,-65.1874035,75.33474358,1441.800585
9.8550,-64.88179554,75.1829383,1442.821088
9.8600,-64.58281655,75.03522183,1443.840893
9.8650,-64.28924195,74.89116196,1444.858708
9.8700,-64.00257675,74.75129215,1445.874171
9.8750,-63.72255082,74.61620033,1446.886775
9.8800,-63.44739863,74.4867453,1447.896098
9.8850,-63.17769699,74.36283221,1448.901763
9.8900,-62.91196341,74.2448152,1449.902588
9.8950,-62.65111377,74.13226407,1450.897934
9.9000,-62.39435469,74.02523893,1451.887646
9.9050,-62.14068439,73.92338835,1452.869965
9.9100,-61.89049467,73.82741371,1453.844476
9.9150,-61.64244574,73.7371738,1454.810629
9.9200,-61.39809543,73.65142556,1455.76713
9.9250,-61.15522862,73.57133315,1456.714134
9.9300,-60.91512173,73.49559475,1457.650621
9.9350,-60.67582009,73.42505402,1458.576034
9.9400,-60.439107,73.35818099,1459.489365
9.9450,-60.2030312,73.29612026,1460.391132
9.9500,-59.96758526,73.23767999,1461.279738
9.9550,-59.73247346,73.18260957,1462.154629
9.9600,-59.49675921,73.13141395,1463.015555
9.9650,-59.25942221,73.08322473,1463.861803
9.9700,-59.02034058,73.03827811,1464.692958
9.9750,-58.78037912,72.99427395,1465.508944
9.9800,-58.53777852,72.95148364,1466.30954
9.9850,-58.29340099,72.91072953,1467.094119
9.9900,-58.04592326,72.87024436,1467.862565
9.9950,-57.7958832,72.82985008,1468.6154
10.0000,-57.54245145,72.78888462,1469.352514
10.0050,-57.28405544,72.74785636,1470.072499
10.0100,-57.02144722,72.70755861,1470.776273
10.0150,-56.75299296,72.66587731,1471.463281
10.0200,-56.47916649,72.62408428,1472.133722
10.0250,-56.19890526,72.58076949,1472.788166
10.0300,-55.91209762,72.53738001,1473.42687
10.0350,-55.61925709,72.49141321,1474.050363
10.0400,-55.31865965,72.44365543,1474.659628
10.0450,-55.01097381,72.392541,1475.254906
10.0500,-54.69608832,72.33814583,1475.837258
10.0550,-54.37577771,72.27981141,1476.407736
10.0600,-54.04983591,72.21683884,1476.96763
10.0650,-53.7174126,72.14925231,1477.517575
10.0700,-53.37840941,72.07800598,1478.058062
10.0750,-53.03350238,72.00154895,1478.590059
10.0800,-52.68258402,71.92039984,1479.114748
10.0850,-52.32537647,71.83447129,1479.632685
10.0900,-51.96321391,71.74305733,1480.144516
10.0950,-51.59576643,71.64657311,1480.651573
10.1000,-51.22350295,71.54509698,1481.154176
10.1050,-50.84663413,71.43955516,1481.653649
10.1100,-50.46643902,71.32880402,1482.15075
10.1150,-50.08185645,71.21270429,1482.645913
10.1200,-49.69374032,71.09062954,1483.139765
10.1250,-49.30513237,70.96327044,1483.634245
10.1300,-48.91680749,70.83191311,1484.128897
10.1350,-48.52927228,70.6961451,1484.624686
10.1400,-48.14316494,70.55543157,1485.122006
10.1450,-47.76030474,70.41155705,1485.622061
10.1500,-47.38146184,70.26490985,1486.125673
10.1550,-47.00781801,70.11547935,1486.632861
10.1600,-46.63806414,69.96376899,1487.143299
10.1650,-46.27544089,69.80913814,1487.657561
10.1700,-45.91835614,69.65398085,1488.175965
10.1750,-45.56845913,69.49688443,1488.698548
10.1800,-45.22724879,69.33837752,1489.225867
10.1850,-44.89665005,69.17974663,1489.757554
10.1900,-44.57733313,69.01814205,1490.293673
10.1950,-44.26875949,68.85666502,1490.833997
10.2000,-43.97079511,68.69543987,1491.377414
10.2050,-43.68462201,68.53459353,1491.924459
10.2100,-43.40878961,68.37513468,1492.474368
10.2150,-43.14435341,68.2174906,1493.026757
10.2200,-42.88953455,68.06268218,1493.581103
10.2250,-42.64633534,67.91162995,1494.136917
10.2300,-42.41288126,67.76331226,1494.693014
10.2350,-42.19010784,67.61844224,1495.248962
10.2400,-41.97626513,67.4789067,1495.804502
10.2450,-41.77047646,67.34429253,1496.357276
10.2500,-41.5715608,67.21479917,1496.907767
10.2550,-41.38004839,67.09078016,1497.455338
10.2600,-41.19476585,66.97326387,1497.999103
10.2650,-41.01615479,66.86056608,1498.538495
10.2700,-40.84394589,66.75368696,1499.073404
10.2750,-40.6749528,66.6538961,1499.602406
10.2800,-40.50950665,66.56046528,1500.124524
10.2850,-40.34649479,66.4734915,1500.639414
10.2900,-40.18503305,66.39308342,1501.146025
10.2950,-40.02422594,66.31904506,1501.642876
10.3000,-39.86362235,66.25178494,1502.129095
10.3050,-39.70350721,66.19178961,1502.605093
10.3100,-39.54241972,66.13632345,1503.069035
10.3150,-39.37970143,66.08761458,1503.520511
10.3200,-39.21517318,66.04319057,1503.959106
10.3250,-39.04942303,66.00390926,1504.384304
10.3300,-38.88143429,65.96877623,1504.795396
10.3350,-38.70969388,65.93900909,1505.19252
10.3400,-38.53583274,65.91151771,1505.57475
10.3450,-38.35905595,65.88864945,1505.942669
10.3500,-38.1794833,65.87024971,1506.295648
10.3550,-37.99584836,65.85580338,1506.633635
10.3600,-37.80705976,65.84403745,1506.956282
10.3650,-37.61486677,65.83642519,1507.264312
10.3700,-37.4191708,65.83051925,1507.557623
10.3750,-37.21906593,65.82684068,1507.836478
10.3800,-37.01528768,65.82404729,1508.101552
10.3850,-36.80728708,65.82170061,1508.353925
10.3900,-36.59573969,65.82066982,1508.594792
10.3950,-36.38147611,65.81884851,1508.824715
10.4000,-36.16466939,65.81671461,1509.045022
10.4050,-35.94459333,65.81204927,1509.256153
10.4100,-35.72249083,65.8055546,1509.459307
10.4150,-35.498564,65.79711895,1509.655388
10.4200,-35.27368812,65.78556202,1509.845723
10.4250,-35.04578926,65.77248766,1510.030921
10.4300,-34.81588609,65.75610914,1510.212353
10.4350,-34.58457196,65.73613421,1510.391124
10.4400,-34.35259928,65.7146164,1510.568211
10.4450,-34.11896054,65.68917765,1510.743688
10.4500,-33.88414387,65.66066655,1510.918018
10.4550,-33.64784491,65.62927773,1511.092835
10.4600,-33.41300608,65.59392528,1511.268864
10.4650,-33.17782161,65.55657944,1511.447216
10.4700,-32.94463007,65.51537193,1511.627988
10.4750,-32.71244796,65.4718047,1511.812017
10.4800,-32.48129624,65.42544866,1511.998483
10.4850,-32.25139107,65.37644198,1512.187904
10.4900,-32.02257207,65.32635883,1512.380909
10.4950,-31.79608633,65.2756837,1512.57803
10.5000,-31.57156875,65.2230728,1512.778739
10.5050,-31.34916643,65.16955457,1512.983482
10.5100,-31.12838304,65.11403917,1513.19159
10.5150,-30.90968437,65.05856106,1513.403922
10.5200,-30.69327789,65.00258736,1513.62005
10.5250,-30.47826307,64.94467584,1513.839734
10.5300,-30.2659222,64.88811337,1514.063823
10.5350,-30.05482804,64.83273848,1514.292278
10.5400,-29.8454211,64.77687426,1514.524133
10.5450,-29.63971449,64.72278964,1514.76098
10.5500,-29.43769009,64.67108827,1515.002291
10.5550,-29.23875179,64.62251771,1515.247242
10.5600,-29.04421816,64.57625491,1515.497014
10.5650,-28.85368736,64.53373594,1515.750837
10.5700,-28.66555763,64.49589759,1516.008683
10.5750,-28.4811374,64.46238042,1516.270122
10.5800,-28.3005573,64.43366966,1516.534542
10.5850,-28.12340418,64.40998149,1516.801146
10.5900,-27.95048768,64.39151646,1517.070325
10.5950,-27.7817985,64.37833746,1517.341305
10.6000,-27.61724633,64.3698424,1517.613772
10.6050,-27.45591903,64.3663682,1517.886581
10.6100,-27.29943576,64.36801814,1518.159475
10.6150,-27.14840128,64.37281779,1518.43181
10.6200,-27.00264165,64.38237997,1518.702491
10.6250,-26.86173961,64.39664948,1518.972101
10.6300,-26.72576652,64.41452531,1519.239207
10.6350,-26.59479387,64.4362116,1519.503596
10.6400,-26.46747145,64.46299485,1519.764401
10.6450,-26.34508154,64.49295993,1520.021206
10.6500,-26.22557053,64.52575736,1520.273537
10.6550,-26.1088679,64.56070262,1520.520933
10.6600,-25.99546111,64.59878906,1520.763231
10.6650,-25.88495156,64.63886172,1521.000517
10.6700,-25.77762179,64.68104915,1521.232892
10.6750,-25.67370581,64.72395581,1521.459722
10.6800,-25.57301435,64.76724912,1521.681216
10.6850,-25.47686542,64.81142435,1521.897634
10.6900,-25.38352013,64.85454161,1522.108132
10.6950,-25.29449714,64.89655936,1522.312403
10.7000,-25.20945333,64.93683218,1522.511036
10.7050,-25.12873657,64.97670225,1522.703485
10.7100,-25.05068537,65.01603483,1522.889771
10.7150,-24.97706605,65.05392207,1523.069851
10.7200,-24.90806559,65.0907796,1523.243334
10.7250,-24.84364761,65.12474237,1523.410188
10.7300,-24.78406903,65.15903548,1523.569992
10.7350,-24.7293235,65.19255162,1523.722951
10.7400,-24.67837706,65.22461297,1523.868615
10.7450,-24.63238056,65.25711914,1524.00691
10.7500,-24.58984904,65.28938107,1524.137889
10.7550,-24.55126085,65.32276599,1524.261457
10.7600,-24.51605656,65.35714768,1524.377766
10.7650,-24.48468032,65.39113728,1524.486288
10.7700,-24.45558619,65.42760226,1524.587531
10.7750,-24.42923934,65.46489974,1524.680323
10.7800,-24.40552222,65.50413922,1524.765477
10.7850,-24.38281822,65.54582809,1524.843118
10.7900,-24.36195916,65.58991464,1524.91247
10.7950,-24.34319359,65.63434034,1524.972906
10.8000,-24.32649827,65.68060471,1525.024657
10.8050,-24.31346178,65.72888313,1525.067872
10.8100,-24.30472594,65.7792607,1525.10164
10.8150,-24.30076766,65.83122686,1525.126026
10.8200,-24.30196362,65.88466469,1525.140727
10.8250,-24.3085642,65.94166459,1525.145529
10.8300,-24.32115549,66.00044342,1525.13963
10.8350,-24.3390343,66.06181732,1525.123073
10.8400,-24.36181838,66.12782595,1525.095977
10.8450,-24.39007685,66.19670599,1525.057782
10.8500,-24.42450616,66.26773628,1525.008531
10.8550,-24.46542084,66.34233722,1524.948816
10.8600,-24.51199376,66.42040506,1524.877041
10.8650,-24.56483783,66.5026683,1524.793449
10.8700,-24.62503953,66.58790874,1524.697438
10.8750,-24.69275828,66.67661559,1524.589378
10.8800,-24.76797591,66.76975904,1524.469641
10.8850,-24.85052622,66.86604056,1524.337405
10.8900,-24.94067314,66.96553007,1524.191923
10.8950,-25.03725857,67.06918411,1524.033871
10.9000,-25.14130151,67.17598489,1523.862554
10.9050,-25.25320668,67.2852563,1523.677691
10.9100,-25.37146659,67.39845828,1523.47896
10.9150,-25.49489211,67.5149333,1523.266175
10.9200,-25.62443067,67.63414705,1523.038945
10.9250,-25.76020867,67.75630455,1522.796434
10.9300,-25.90267444,67.88124494,1522.539264
10.9350,-26.05068673,68.00806208,1522.266023
10.9400,-26.20516178,68.13596557,1521.97718
10.9450,-26.36508965,68.26600029,1521.672275
10.9500,-26.53175606,68.39619273,1521.351312
10.9550,-26.70537027,68.52792248,1521.014536
10.9600,-26.88691544,68.66125908,1520.661926
10.9650,-27.0754831,68.79561801,1520.293387
10.9700,-27.27082487,68.93161111,1519.908957
10.9750,-27.47365285,69.06916196,1519.509034
10.9800,-27.68298764,69.20924108,1519.093677
10.9850,-27.89851266,69.35083063,1518.662746
10.9900,-28.12161525,69.49456686,1518.21641
10.9950,-28.35061512,69.6406346,1517.75561
11.0000,-28.58641624,69.78899721,1517.280116
11.0050,-28.82891077,69.93911614,1516.790634
11.0100,-29.07901715,70.09173507,1516.287966
11.0150,-29.33496101,70.24545596,1515.772359
11.0200,-29.59718766,70.40046742,1515.243887
11.0250,-29.86630487,70.55805311,1514.702979
11.0300,-30.14162417,70.71648601,1514.150618
11.0350,-30.42175475,70.87669175,1513.586291
11.0400,-30.70756435,71.03854232,1513.010604
11.0450,-30.99909238,71.20026211,1512.424041
11.0500,-31.29761191,71.36298455,1511.827056
11.0550,-31.60142417,71.52700723,1511.219524
11.0600,-31.90935814,71.69294714,1510.601895
11.0650,-32.22045711,71.86117102,1509.974509
11.0700,-32.53568394,72.02990678,1509.337225
11.0750,-32.85384073,72.2005224,1508.690988
11.0800,-33.17577304,72.37285397,1508.036121
11.0850,-33.50030623,72.5452958,1507.372724
11.0900,-33.82723341,72.71986026,1506.701178
11.0950,-34.15574748,72.8964251,1506.022186
11.1000,-34.48623749,73.07419326,1505.336123
11.1050,-34.81746444,73.25208632,1504.642805
11.1100,-35.14934716,73.43120767,1503.94363
11.1150,-35.48242511,73.60974145,1503.238099
11.1200,-35.81674168,73.78833019,1502.526758
11.1250,-36.15297421,73.96675494,1501.810295
11.1300,-36.48951398,74.14561465,1501.08907
11.1350,-36.82833478,74.32316851,1500.363173
11.1400,-37.17049049,74.4985228,1499.63313
11.1450,-37.51463082,74.6729855,1498.899172
11.1500,-37.8602847,74.84675293,1498.161109
11.1550,-38.20760973,75.0191403,1497.419861
11.1600,-38.5573498,75.190943,1496.675262
11.1650,-38.90922779,75.3613478,1495.927941
11.1700,-39.26251931,75.53093056,1495.177813
11.1750,-39.61671335,75.70017252,1494.424504
11.1800,-39.97259031,75.86780538,1493.668642
11.1850,-40.32989601,76.03396277,1492.910262
11.1900,-40.68888988,76.19981407,1492.149872
11.1950,-41.04961574,76.36420713,1491.386907
11.2000,-41.4111177,76.52668133,1490.621194
11.2050,-41.77404008,76.6879157,1489.8532
11.2100,-42.13816562,76.8461811,1489.082467
11.2150,-42.50385078,77.00345121,1488.309564
11.2200,-42.86994926,77.15934752,1487.534225
11.2250,-43.23668245,77.31233177,1486.756505
11.2300,-43.6040504,77.46250565,1485.976047
11.2350,-43.97259476,77.61082153,1485.193498
11.2400,-44.34222032,77.75728072,1484.408765
11.2450,-44.71168728,77.90083579,1483.621609
11.2500,-45.08162158,78.04281995,1482.832142
11.2550,-45.45185463,78.1833428,1482.040364
11.2600,-45.821184,78.32124931,1481.246121
11.2650,-46.19074501,78.45777943,1480.449051
11.2700,-46.55985802,78.59273151,1479.649313
11.2750,-46.92820396,78.72752323,1478.846656
11.2800,-47.29703539,78.86192018,1478.041113
11.2850,-47.66580816,78.99665654,1477.232201
11.2900,-48.03362034,79.13087646,1476.42007
11.2950,-48.40268101,79.2651817,1475.604266
11.3000,-48.77202432,79.3983471,1474.784911
11.3050,-49.14366225,79.53063114,1473.960913
11.3100,-49.51676666,79.66147547,1473.131853
11.3150,-49.89337741,79.79207264,1472.297536
11.3200,-50.27333091,79.92330689,1471.458327
11.3250,-50.65636348,80.05304823,1470.612839
11.3300,-51.04392628,80.1819567,1469.761212
11.3350,-51.43547133,80.31101752,1468.903409
11.3400,-51.83025042,80.44032145,1468.038349
11.3450,-52.22830946,80.5715252,1467.166184
11.3500,-52.62847546,80.70387555,1466.285765
11.3550,-53.03260547,80.83495203,1465.39609
11.3600,-53.44035389,80.96656714,1464.497124
11.3650,-53.85164989,81.09929272,1463.587941
11.3700,-54.26575153,81.2322283,1462.668651
11.3750,-54.68347464,81.36566148,1461.738416
11.3800,-55.10341828,81.49806904,1460.796548
11.3850,-55.52651793,81.63201926,1459.841507
11.3900,-55.95250269,81.76500764,1458.874345
11.3950,-56.38210969,81.89770988,1457.893889
11.4000,-56.81484767,82.03233264,1456.900857
11.4050,-57.24821891,82.16807366,1455.89433
11.4100,-57.68256248,82.30617678,1454.873986
11.4150,-58.11721429,82.44641352,1453.839631
11.4200,-58.55206986,82.5888165,1452.791367
11.4250,-58.98712351,82.73158913,1451.728574
11.4300,-59.42260393,82.87417387,1450.651035
11.4350,-59.85776727,83.01755401,1449.558483
11.4400,-60.29152895,83.16152262,1448.451057
11.4450,-60.72475864,83.30533911,1447.328339
11.4500,-61.15664155,83.44939152,1446.189899
11.4550,-61.58790921,83.59313705,1445.035271
11.4600,-62.01827201,83.73537278,1443.864921
11.4650,-62.44757901,83.8773393,1442.678723
11.4700,-62.87565556,84.01898803,1441.476533
11.4750,-63.30313864,84.15903003,1440.25848
11.4800,-63.72810807,84.29842566,1439.024672
11.4850,-64.14842524,84.43881123,1437.775155
11.4900,-64.56342089,84.57898778,1436.509584
11.4950,-64.97326682,84.71912501,1435.22818
11.5000,-65.37776667,84.85967967,1433.930995
11.5050,-65.77631537,85.00023376,1432.618292
11.5100,-66.16939106,85.14093028,1431.290047
11.5150,-66.55677757,85.28072149,1429.946609
11.5200,-66.93922404,85.41952641,1428.588677
11.5250,-67.31627162,85.55729172,1427.215977
11.5300,-67.68742254,85.69493601,1425.829679
11.5350,-68.05409705,85.83110882,1424.429488
11.5400,-68.4158509,85.96553035,1423.015938
11.5450,-68.77173773,86.09974941,1421.588984
11.5500,-69.1202098,86.2344714,1420.148839
11.5550,-69.46205645,86.36769643,1418.695525
11.5600,-69.79724174,86.50058765,1417.22941
11.5650,-70.1255935,86.63266758,1415.750902
11.5700,-70.44797055,86.76302517,1414.260991
11.5750,-70.76410768,86.8908943,1412.760294
11.5800,-71.07324919,87.01575483,1411.248577
11.5850,-71.37607431,87.13714406,1409.726991
11.5900,-71.67426485,87.25498775,1408.196142
11.5950,-71.96719411,87.37018046,1406.657333
11.6000,-72.25605768,87.48340276,1405.109903
11.6050,-72.5389753,87.59473162,1403.55495
11.6100,-72.81720921,87.70458904,1401.992962
11.6150,-73.08979619,87.81030979,1400.42321
11.6200,-73.35532236,87.91355829,1398.846087
11.6250,-73.61457398,88.01411374,1397.262999
11.6300,-73.86626842,88.11130781,1395.673037
11.6350,-74.11253457,88.20498196,1394.077293
11.6400,-74.35413493,88.29292198,1392.475925
11.6450,-74.59082935,88.37546786,1390.869163
11.6500,-74.82394587,88.45309236,1389.257924
11.6550,-75.05272543,88.52731856,1387.643191
11.6600,-75.27919701,88.59702033,1386.024792
11.6650,-75.5025833,88.66230653,1384.40338
11.6700,-75.72471984,88.72563973,1382.778886
11.6750,-75.94455322,88.78702062,1381.151396
11.6800,-76.16248839,88.84799698,1379.521686
11.6850,-76.37813714,88.90827511,1377.889788
11.6900,-76.59190185,88.9680244,1376.255552
11.6950,-76.80201059,89.02882344,1374.619347
11.7000,-77.00833253,89.08843156,1372.981018
11.7050,-77.211177,89.1491415,1371.340653
11.7100,-77.40989673,89.20939693,1369.698097
11.7150,-77.6039343,89.26970335,1368.053948
11.7200,-77.7921288,89.33084171,1366.408541
11.7250,-77.97457403,89.39304816,1364.760773
11.7300,-78.15198451,89.45565434,1363.110567
11.7350,-78.32300014,89.51877835,1361.457936
11.7400,-78.48885793,89.5822403,1359.802247
11.7450,-78.64915147,89.64516383,1358.143991
11.7500,-78.8032754,89.70836149,1356.482636
11.7550,-78.95160357,89.77017278,1354.817881
11.7600,-79.0924448,89.83199872,1353.150542
11.7650,-79.22524565,89.89307815,1351.480018
11.7700,-79.35027419,89.95283294,1349.806223
11.7750,-79.46655564,90.01212029,1348.129525
11.7800,-79.57297027,90.07095416,1346.448576
11.7850,-79.67097131,90.12888025,1344.764015
11.7900,-79.76092101,90.18436595,1343.07546
11.7950,-79.84158991,90.23864681,1341.384104
11.8000,-79.91293888,90.29100187,1339.68937
11.8050,-79.97460879,90.34169395,1337.990786
11.8100,-80.02697821,90.39257778,1336.28923
11.8150,-80.06971245,90.44232778,1334.583951
11.8200,-80.10196236,90.49015387,1332.875104
11.8250,-80.12285783,90.53804582,1331.162791
11.8300,-80.13194774,90.58391501,1329.44685
11.8350,-80.12984423,90.62853668,1327.72723
11.8400,-80.11662539,90.67166255,1326.00457
11.8450,-80.0938949,90.71172198,1324.279192
11.8500,-80.06186106,90.74806725,1322.552041
11.8550,-80.01936921,90.7812853,1320.823397
11.8600,-79.9669616,90.81063729,1319.093672
11.8650,-79.90421324,90.83547956,1317.364286
11.8700,-79.83111689,90.8563973,1315.633456
11.8750,-79.74810246,90.87213735,1313.902706
11.8800,-79.65566771,90.88288047,1312.172019
11.8850,-79.55413259,90.88756666,1310.441271
11.8900,-79.44371454,90.88723454,1308.710531
11.8950,-79.32353746,90.87984621,1306.980191
11.9000,-79.19444247,90.86603276,1305.250032
11.9050,-79.05799203,90.84453231,1303.521365
11.9100,-78.91295316,90.81568855,1301.793456
11.9150,-78.76065781,90.78153294,1300.067713
11.9200,-78.60293774,90.74027168,1298.344321
11.9250,-78.43965115,90.69385989,1296.623751
11.9300,-78.27119613,90.6419199,1294.90679
11.9350,-78.09738749,90.58404184,1293.192834
11.9400,-77.91972762,90.52197265,1291.482003
11.9450,-77.73894235,90.4548118,1289.773958
11.9500,-77.55564983,90.384008,1288.069615
11.9550,-77.37115357,90.30932776,1286.368149
11.9600,-77.18450413,90.22996908,1284.669848
11.9650,-76.99724881,90.14769954,1282.974336
11.9700,-76.80897298,90.06020235,1281.281715
11.9750,-76.6217938,89.96799477,1279.592209
11.9800,-76.43388352,89.87247413,1277.90588
11.9850,-76.24602505,89.77302608,1276.22321
11.9900,-76.05695097,89.67188217,1274.54433
11.9950,-75.86731722,89.56854216,1272.868646
12.0000,-75.67658795,89.46387129,1271.19592
12.0050,-75.48696949,89.35728257,1269.525533
12.0100,-75.29919248,89.24858476,1267.858038
12.0150,-75.11361905,89.13758818,1266.192076
12.0200,-74.93119382,89.02387353,1264.526511
12.0250,-74.75091067,88.9085367,1262.861824
12.0300,-74.57362673,88.79233117,1261.197602
12.0350,-74.40062351,88.67532682,1259.533351
12.0400,-74.2306004,88.55789785,1257.868647
12.0450,-74.06369109,88.44092299,1256.202984
12.0500,-73.90009069,88.32451799,1254.537793
12.0550,-73.73795284,88.21040009,1252.872612
12.0600,-73.57712282,88.09821386,1251.206012
12.0650,-73.41641769,87.98820929,1249.538449
12.0700,-73.25426247,87.88208423,1247.87021
12.0750,-73.09033911,87.77968376,1246.202055
12.0800,-72.92540968,87.68006972,1244.534329
12.0850,-72.75748434,87.58449027,1242.866785
12.0900,-72.58480439,87.49379419,1241.20015
12.0950,-72.40574046,87.40737012,1239.533939
12.1000,-72.22007309,87.32703677,1237.869177
12.1050,-72.02639769,87.25213075,1236.205557
12.1100,-71.82271457,87.18129398,1234.543461
12.1150,-71.60813368,87.11577847,1232.883555
12.1200,-71.38089561,87.05625154,1231.226018
12.1250,-71.14016644,87.00015831,1229.571429
12.1300,-70.88537932,86.94813808,1227.919153
12.1350,-70.61424107,86.9002823,1226.270562
12.1400,-70.32484664,86.85642266,1224.625031
12.1450,-70.01736517,86.81552142,1222.9823
12.1500,-69.69156499,86.77612347,1221.341852
12.1550,-69.34885015,86.73840306,1219.704216
12.1600,-68.98977262,86.70167571,1218.06804
12.1650,-68.61503573,86.66489574,1216.432422
12.1700,-68.22516956,86.62754833,1214.798521
12.1750,-67.82039781,86.59002932,1213.165453
12.1800,-67.40295465,86.55059253,1211.5333
12.1850,-66.97318752,86.50958908,1209.902536
12.1900,-66.53262964,86.46539442,1208.272967
12.1950,-66.08163808,86.41964946,1206.644727
12.2000,-65.6219531,86.37046536,1205.019544
12.2050,-65.15409588,86.31893278,1203.396691
12.2100,-64.67985618,86.2636512,1201.777931
12.2150,-64.19932567,86.20583244,1200.16357
12.2200,-63.7129325,86.14539021,1198.554364
12.2250,-63.22105926,86.08241903,1196.949738
12.2300,-62.72351915,86.01755212,1195.349921
12.2350,-62.21993549,85.95044757,1193.755086
12.2400,-61.71046991,85.88175555,1192.165916
12.2450,-61.19491431,85.81250016,1190.583073
12.2500,-60.67217786,85.74148795,1189.005646
12.2550,-60.14274164,85.67001988,1187.433504
12.2600,-59.60615566,85.59930775,1185.865491
12.2650,-59.06236603,85.52853412,1184.301574
12.2700,-58.51130992,85.45918245,1182.741946
12.2750,-57.95224913,85.39004007,1181.185626
12.2800,-57.38585022,85.32085072,1179.632047
12.2850,-56.81330923,85.25229205,1178.081254
12.2900,-56.23413696,85.18211985,1176.531442
12.2950,-55.64901167,85.11021647,1174.983582
12.3000,-55.05809248,85.03533723,1173.436825
12.3050,-54.46168266,84.95833138,1171.891853
12.3100,-53.86053499,84.87936701,1170.347663
12.3150,-53.25561356,84.7982252,1168.804636
12.3200,-52.64677239,84.71500246,1167.262548
12.3250,-52.03475991,84.63053154,1165.72144
12.3300,-51.41828368,84.54497537,1164.182321
12.3350,-50.79801125,84.45743727,1162.64504
12.3400,-50.17380354,84.36765161,1161.108862
12.3450,-49.54614182,84.27545197,1159.574535
12.3500,-48.91461182,84.18013133,1158.041443
12.3550,-48.28015432,84.08099913,1156.510425
12.3600,-47.64329047,83.97768073,1154.98287
12.3650,-47.00305641,83.86950271,1153.458212
12.3700,-46.36047689,83.75539293,1151.937911
12.3750,-45.71545177,83.63382975,1150.421789
12.3800,-45.06681959,83.50706076,1148.909996
12.3850,-44.41506719,83.3738727,1147.402795
12.3900,-43.76043963,83.23381414,1145.899626
12.3950,-43.10302322,83.08661884,1144.401004
12.4000,-42.44094393,82.93247032,1142.906586
12.4050,-41.77440843,82.77183814,1141.417577
12.4100,-41.10175937,82.60598183,1139.93316
12.4150,-40.42219118,82.43473161,1138.452871
12.4200,-39.73584916,82.25728276,1136.976936
12.4250,-39.04352274,82.07438123,1135.505486
12.4300,-38.34491788,81.88594578,1134.039289
12.4350,-37.6406482,81.69112092,1132.578109
12.4400,-36.93119157,81.49007105,1131.12262
12.4450,-36.21766789,81.28240018,1129.673425
12.4500,-35.50076493,81.06919553,1128.231251
12.4550,-34.77995142,80.84982471,1126.795639
12.4600,-34.05723513,80.62407415,1125.367889
12.4650,-33.33130075,80.39296741,1123.947724
12.4700,-32.60374637,80.15668281,1122.535145
12.4750,-31.87435041,79.91514173,1121.130059
12.4800,-31.14296402,79.66975546,1119.73254
12.4850,-30.41077863,79.41906941,1118.342168
12.4900,-29.67778004,79.16601975,1116.960129
12.4950,-28.94434217,78.90996811,1115.585715
12.5000,-28.21088798,78.65210399,1114.218864
12.5050,-27.47780336,78.3921588,1112.860293
12.5100,-26.74529302,78.13094628,1111.509388
12.5150,-26.01280747,77.86811878,1110.166592
12.5200,-25.28125997,77.60406334,1108.831925
12.5250,-24.55144942,77.33844105,1107.505542
12.5300,-23.82437711,77.07095977,1106.187055
12.5350,-23.09974979,76.80364889,1104.876724
12.5400,-22.37687461,76.53655528,1103.574673
12.5450,-21.65629366,76.26937727,1102.280984
12.5500,-20.93808433,76.00253566,1100.995113
12.5550,-20.22121808,75.73719549,1099.717952
12.5600,-19.50557915,75.47326876,1098.449206
12.5650,-18.79144123,75.21131675,1097.188952
12.5700,-18.07751068,74.95150344,1095.936402
12.5750,-17.36426463,74.69517281,1094.692256
12.5800,-16.65087831,74.44203716,1093.455843
12.5850,-15.93655101,74.19229554,1092.22713
12.5900,-15.22211867,73.94687316,1091.006666
12.5950,-14.50719977,73.70720683,1089.793837
12.6000,-13.79207669,73.47250532,1088.588801
12.6050,-13.07522842,73.24197627,1087.390605
12.6100,-12.35657103,73.01566757,1086.200199
12.6150,-11.63515581,72.79235251,1085.017002
12.6200,-10.91090755,72.57180305,1083.841735
12.6250,-10.18382534,72.35270116,1082.674201
12.6300,-9.454528112,72.13422808,1081.514666
12.6350,-8.722599484,71.91515792,1080.363131
12.6400,-7.987356701,71.69642136,1079.220608
12.6450,-7.248273896,71.47712187,1078.08718
12.6500,-6.504951829,71.2563798,1076.962864
12.6550,-5.756040185,71.034283,1075.847905
12.6600,-4.999536868,70.81197462,1074.741363
12.6650,-4.237176628,70.58980643,1073.644256
12.6700,-3.466320316,70.36752556,1072.555166
12.6750,-2.68680347,70.14665449,1071.474077
12.6800,-1.898464176,69.92536837,1070.400542
12.6850,-1.101850869,69.70369289,1069.334496
12.6900,-0.2964779004,69.48205082,1068.276332
12.6950,0.5167742352,69.26042044,1067.224927
12.7000,1.337506952,69.03818202,1066.18066
12.7050,2.165118823,68.81417283,1065.143097
12.7100,2.998615257,68.58743927,1064.112487
12.7150,3.835619962,68.35776651,1063.089713
12.7200,4.67561391,68.12501382,1062.074406
12.7250,5.518033826,67.88837922,1061.066791
12.7300,6.362079718,67.64822112,1060.066931
12.7350,7.207330891,67.40493563,1059.074431
12.7400,8.05363143,67.15802741,1058.089131
12.7450,8.901129367,66.90895506,1057.111079
12.7500,9.750432873,66.65642804,1056.139423
12.7550,10.60081722,66.39996055,1055.174354
12.7600,11.45306315,66.14055542,1054.216038
12.7650,12.30583781,65.87688292,1053.264365
12.7700,13.15918545,65.60888267,1052.319414
12.7750,14.01277425,65.33706177,1051.381326
12.7800,14.86572524,65.06055992,1050.450337
12.7850,15.71844568,64.78033194,1049.526447
12.7900,16.57038281,64.49504161,1048.61006
12.7950,17.42078843,64.20411345,1047.701058
12.8000,18.27064562,63.90880042,1046.79971
12.8050,19.12043562,63.60984877,1045.906257
12.8100,19.97069519,63.30711523,1045.020211
12.8150,20.82082552,63.00097998,1044.141763
12.8200,21.67265368,62.69211269,1043.270485
12.8250,22.52653293,62.38051523,1042.406233
12.8300,23.38287313,62.06674786,1041.548851
12.8350,24.24121746,61.74851506,1040.698187
12.8400,25.10111161,61.42699687,1039.854138
12.8450,25.96349088,61.10145817,1039.016035
12.8500,26.82812761,60.77270179,1038.184357
12.8550,27.69449102,60.43890102,1037.358467
12.8600,28.56156116,60.100645,1036.539185
12.8650,29.42957361,59.75673945,1035.726277
12.8700,30.29882834,59.40671461,1034.919937
12.8750,31.1677893,59.05006265,1034.120707
12.8800,32.03564604,58.68751807,1033.329142
12.8850,32.90277835,58.31815787,1032.545254
12.8900,33.76985529,57.9434044,1031.768909
12.8950,34.63557973,57.56198643,1031.000789
12.9000,35.50102779,57.17436513,1030.240099
12.9050,36.36580451,56.78041722,1029.487289
12.9100,37.22998225,56.38035172,1028.742084
12.9150,38.0930995,55.97577263,1028.00515
12.9200,38.95448732,55.56564138,1027.276051
12.9250,39.81453297,55.15083666,1026.555241
12.9300,40.67484444,54.73116068,1025.841942
12.9350,41.53536985,54.30733993,1025.136073
12.9400,42.39563493,53.87995702,1024.438034
12.9450,43.25711813,53.44870214,1023.747202
12.9500,44.12033953,53.01402807,1023.06366
12.9550,44.985028,52.57585954,1022.387278
12.9600,45.85119707,52.13263225,1021.718074
12.9650,46.71994332,51.68557728,1021.055878
12.9700,47.59061143,51.23388569,1020.400805
12.9750,48.46447893,50.77700534,1019.752166
12.9800,49.3404748,50.31609918,1019.11084
12.9850,50.21946003,49.84984517,1018.4762
12.9900,51.10135889,49.38005474,1017.848587
12.9950,51.98649939,48.90528713,1017.228165
13.0000,52.87397824,48.42588778,1016.614781
13.0050,53.76391436,47.94167112,1016.008488
13.0100,54.65480019,47.4530098,1015.409639
13.0150,55.54858458,46.95893073,1014.817672
13.0200,56.44405806,46.45975108,1014.233032
13.0250,57.34168005,45.95629782,1013.655427
13.0300,58.24048695,45.44931575,1013.085111
13.0350,59.1410341,44.93840667,1012.52233
13.0400,60.04145856,44.42303216,1011.967345
13.0450,60.94220573,43.90354869,1011.420061
13.0500,61.84146992,43.38034606,1010.880774
13.0550,62.74012508,42.85402409,1010.349209
13.0600,63.63799262,42.32487764,1009.825407
13.0650,64.53393142,41.79347416,1009.309633
13.0700,65.42852103,41.25967945,1008.801425
13.0750,66.32122027,40.7244675,1008.301013
13.0800,67.21214265,40.18849221,1007.8082
13.0850,68.10109327,39.65203022,1007.323056
13.0900,68.98974799,39.11462083,1006.844474
13.0950,69.87645158,38.57681327,1006.372978
13.1000,70.76087405,38.03863046,1005.908443
13.1050,71.64338632,37.49996012,1005.450218
13.1100,72.52241638,36.96223483,1004.998929
13.1150,73.39844725,36.42553879,1004.55415
13.1200,74.26953391,35.89048946,1004.116193
13.1250,75.13608665,35.35677903,1003.684957
13.1300,75.99815838,34.82560965,1003.260194
13.1350,76.85482051,34.29820495,1002.842123
13.1400,77.70632625,33.77388904,1002.430479
13.1450,78.55176949,33.2534007,1002.025293
13.1500,79.39140726,32.73749199,1001.626556
13.1550,80.2258971,32.22641751,1001.234252
13.1600,81.05470578,31.72054845,1000.848155
13.1650,81.87801808,31.22051273,1000.468557
13.1700,82.6953181,30.72695753,1000.095132
13.1750,83.50786215,30.24128419,999.7276482
13.1800,84.31495938,29.76287776,999.3661105
13.1850,85.1167267,29.29373213,999.0105032
13.1900,85.9132379,28.83403493,998.6610203
13.1950,86.706707,28.38293469,998.3167233
13.2000,87.49485664,27.94253322,997.9786062
13.2050,88.27741899,27.51265081,997.6464717
13.2100,89.05538047,27.09247104,997.3199511
13.2150,89.82985612,26.68256031,996.9989475
13.2200,90.60028268,26.28307409,996.6836542
13.2250,91.36789571,25.89356246,996.3737185
13.2300,92.1323527,25.51491156,996.0692853
13.2350,92.89317846,25.14742696,995.7706613
13.2400,93.65063509,24.79023656,995.4776454
13.2450,94.40560067,24.44199957,995.1899903
13.2500,95.15710942,24.10313226,994.907879
13.2550,95.90696372,23.77351841,994.630965
13.2600,96.65517099,23.45473451,994.3594812
13.2650,97.40179473,23.14391695,994.0932507
13.2700,98.14680624,22.84182527,993.8323745
13.2750,98.89095743,22.54980727,993.5770061
13.2800,99.63508932,22.26509247,993.32665
13.2850,100.3788763,21.98897123,993.0816387
13.2900,101.1229337,21.71930511,992.8414503
13.2950,101.8666271,21.45700026,992.6062008
13.3000,102.6101154,21.20108808,992.375916
13.3050,103.3522456,20.95101241,992.1507236
13.3100,104.0922577,20.70707444,991.9308847
13.3150,104.8284366,20.46851122,991.7162787
13.3200,105.5601065,20.2351234,991.5070929
13.3250,106.2851488,20.00726286,991.3037963
13.3300,107.0020423,19.78363111,991.1064017
13.3350,107.7091318,19.56261881,990.914787
13.3400,108.40471,19.34563614,990.729202
13.3450,109.0871565,19.13158213,990.5496158
13.3500,109.755494,18.919457,990.3761619
13.3550,110.4078062,18.71073952,990.2089519
13.3600,111.0421786,18.50359971,990.0480563
13.3650,111.6585521,18.29982684,989.8933816
13.3700,112.2547204,18.09824016,989.745053
13.3750,112.8316873,17.89827433,989.6025898
13.3800,113.3886588,17.70026229,989.4658791
13.3850,113.9246538,17.50537416,989.3351019
13.3900,114.4392549,17.31495129,989.2104673
13.3950,114.9335423,17.12882051,989.0915719
13.4000,115.4083096,16.94660109,988.9780454
13.4050,115.8635595,16.76939449,988.8699441
13.4100,116.3005603,16.59788939,988.7669723
13.4150,116.7188028,16.43193345,988.6690792
13.4200,117.1198129,16.27139611,988.5758543
13.4250,117.5050832,16.11810302,988.4872156
13.4300,117.8749927,15.97186644,988.4029709
13.4350,118.2301527,15.83315591,988.3229686
13.4400,118.5714577,15.7029118,988.2469918
13.4450,118.8993482,15.58143319,988.175059
13.4500,119.2142081,15.46811432,988.106741
13.4550,119.5153257,15.3639402,988.0422676
13.4600,119.8032262,15.26982777,987.981695
13.4650,120.0767129,15.18553118,987.9249414
13.4700,120.3351518,15.11084529,987.8722008
13.4750,120.577915,15.04536535,987.8235333
13.4800,120.8045367,14.98910478,987.7787313
13.4850,121.0136626,14.94179889,987.7380155
13.4900,121.2025402,14.90218131,987.7016437
13.4950,121.3709191,14.87117137,987.6698667
13.5000,121.5170954,14.8483242,987.6428824
13.5050,121.6412907,14.83309028,987.6206883
13.5100,121.7402629,14.82683393,987.6039717
13.5150,121.8142356,14.82816298,987.5925309
13.5200,121.8636205,14.83691304,987.5863071
13.5250,121.886244,14.85298623,987.5856189
13.5300,121.8816513,14.8761865,987.5907585
13.5350,121.8510453,14.90543389,987.6014604
13.5400,121.7944003,14.94145155,987.6178288
13.5450,121.7104203,14.98538691,987.6402652
13.5500,121.6011439,15.03705665,987.6685151
13.5550,121.466636,15.09571638,987.7024732
13.5600,121.30667,15.16174818,987.7423505
13.5650,121.1234289,15.23587027,987.7879934
13.5700,120.9173283,15.31793442,987.839409
13.5750,120.6878501,15.40718002,987.8966968
13.5800,120.435116,15.50435788,987.9602349
13.5850,120.1605263,15.60905774,988.0296825
13.5900,119.8628771,15.72325075,988.1056809
13.5950,119.5433448,15.84605954,988.1880988
13.6000,119.2011726,15.97755013,988.2773384
13.6050,118.8379442,16.11880708,988.3733455
13.6100,118.4529948,16.26921131,988.4762069
13.6150,118.0472322,16.43002527,988.5861166
13.6200,117.6210309,16.60090437,988.7030329
13.6250,117.1738393,16.7809936,988.827144
13.6300,116.7076253,16.971355,988.9585459
13.6350,116.220187,17.17214224,989.0978532
13.6400,115.7140279,17.38250072,989.2447655
13.6450,115.1890324,17.60266038,989.3993889
13.6500,114.6450176,17.83345495,989.5620809
13.6550,114.0807393,18.07404697,989.7332831
13.6600,113.4985324,18.32398344,989.9126784
13.6650,112.8970077,18.58327609,990.1009698
13.6700,112.2765977,18.8524471,990.2983042
13.6750,111.637497,19.1311476,990.5050044
13.6800,110.9792444,19.41939406,990.7216612
13.6850,110.3026328,19.71760104,990.9483016
13.6900,109.6073594,20.02370112,991.1851494
13.6950,108.8921806,20.33863664,991.4329799
13.7000,108.1573697,20.66355548,991.6921684
13.7050,107.403384,20.99824521,991.9627685
13.7100,106.6289567,21.34195993,992.2456173
13.7150,105.83455,21.69584603,992.5407356
13.7200,105.0201776,22.05991121,992.848565
13.7250,104.1845934,22.43418561,993.1696855
13.7300,103.3272221,22.81905038,993.5046065
