type,name,time_units,begin_time,frequency,count,units
signal_3d,"Noraxon MyoMotion-Trajectories-Lateral humeral epicondyle RT","s",0.0000,200,5108,"mm"

time,x,y,z
0.0000,223.8465159,-35.13543792,1233.278802
0.0050,223.8354787,-35.11141982,1233.279553
0.0100,223.8244396,-35.08740245,1233.280306
0.0150,223.8133984,-35.06338582,1233.28106
0.0200,223.8004652,-35.03745206,1233.281922
0.0250,223.7855291,-35.00974148,1233.282894
0.0300,223.7685068,-34.98041592,1233.283974
0.0350,223.7493501,-34.94965142,1233.285161
0.0400,223.7280544,-34.91763316,1233.286448
0.0450,223.7046669,-34.88455615,1233.287823
0.0500,223.6792872,-34.85062841,1233.289271
0.0550,223.6520556,-34.81607308,1233.290776
0.0600,223.623137,-34.78112784,1233.292315
0.0650,223.5927099,-34.74603798,1233.293869
0.0700,223.5609669,-34.71104491,1233.295419
0.0750,223.5281169,-34.67637934,1233.296947
0.0800,223.4943859,-34.6422612,1233.298441
0.0850,223.4600144,-34.60890067,1233.299887
0.0900,223.4252558,-34.57649668,1233.301276
0.0950,223.3903751,-34.5452336,1233.302602
0.1000,223.3556434,-34.51527475,1233.30386
0.1050,223.3213285,-34.48675286,1233.30505
0.1100,223.2876875,-34.45976687,1233.306173
0.1150,223.2549649,-34.4343883,1233.307235
0.1200,223.2233923,-34.41066775,1233.308243
0.1250,223.1931903,-34.38863834,1233.309202
0.1300,223.1645671,-34.36831818,1233.310119
0.1350,223.1377099,-34.34971058,1233.310999
0.1400,223.1127723,-34.33280152,1233.311847
0.1450,223.0898604,-34.31755608,1233.312666
0.1500,223.0690224,-34.30391491,1233.313465
0.1550,223.007222,-34.27099743,1233.317247
0.1600,222.9469599,-34.24010654,1233.321051
0.1650,222.8872116,-34.21160449,1233.325009
0.1700,222.827752,-34.18486965,1233.329143
0.1750,222.7694953,-34.16029504,1233.333332
0.1800,222.7110499,-34.13808229,1233.33764
0.1850,222.6537561,-34.11715033,1233.341957
0.1900,222.5963652,-34.09783425,1233.34643
0.1950,222.5386719,-34.07952023,1233.351072
0.2000,222.4823462,-34.06196778,1233.35574
0.2050,222.4262411,-34.04562489,1233.360495
0.2100,222.370624,-34.03036538,1233.365284
0.2150,222.3129556,-34.01665569,1233.37028
0.2200,222.2547039,-34.00399274,1233.375334
0.2250,222.1961799,-33.99236235,1233.38043
0.2300,222.1370587,-33.9828136,1233.385578
0.2350,222.078376,-33.97438947,1233.390682
0.2400,222.0186549,-33.9676029,1233.395813
0.2450,221.9584755,-33.96160752,1233.401016
0.2500,221.8984267,-33.95795471,1233.406129
0.2550,221.8381477,-33.95575033,1233.411207
0.2600,221.7775685,-33.95456129,1233.416322
0.2650,221.7163835,-33.95411585,1233.421441
0.2700,221.6554325,-33.9558045,1233.426521
0.2750,221.5938462,-33.95837272,1233.431643
0.2800,221.5329461,-33.96324933,1233.436626
0.2850,221.4724015,-33.96915013,1233.441564
0.2900,221.4122647,-33.97702296,1233.446343
0.2950,221.353493,-33.98696826,1233.450888
0.3000,221.2955796,-33.99799577,1233.455226
0.3050,221.2375644,-34.01112207,1233.45943
0.3100,221.1805429,-34.02533391,1233.463422
0.3150,221.1240089,-34.0411486,1233.467225
0.3200,221.0679215,-34.05799227,1233.470917
0.3250,221.0122171,-34.07624963,1233.474351
0.3300,220.9568395,-34.09686035,1233.477576
0.3350,220.9012592,-34.11825293,1233.480796
0.3400,220.8462652,-34.14129363,1233.483785
0.3450,220.7913478,-34.16493693,1233.486707
0.3500,220.7369107,-34.19000773,1233.489549
0.3550,220.6818372,-34.21642177,1233.492405
0.3600,220.6276891,-34.24310882,1233.495143
0.3650,220.5735346,-34.27049784,1233.497875
0.3700,220.5199221,-34.29887852,1233.500505
0.3750,220.4667979,-34.3280597,1233.503061
0.3800,220.4148794,-34.35688333,1233.505532
0.3850,220.3640767,-34.38565952,1233.507921
0.3900,220.3136073,-34.41370904,1233.510378
0.3950,220.2642054,-34.44197103,1233.512842
0.4000,220.2154895,-34.47032972,1233.515351
0.4050,220.1680664,-34.49803536,1233.517848
0.4100,220.1216394,-34.52466506,1233.520403
0.4150,220.0766789,-34.55054362,1233.523014
0.4200,220.0329004,-34.57572605,1233.525684
0.4250,219.9898289,-34.60060724,1233.528464
0.4300,219.9479097,-34.62419243,1233.531346
0.4350,219.9075616,-34.64704306,1233.534193
0.4400,219.8682554,-34.66921738,1233.537034
0.4450,219.8298601,-34.68978849,1233.53993
0.4500,219.7927207,-34.71031068,1233.542824
0.4550,219.7562264,-34.73050603,1233.545726
0.4600,219.7205683,-34.74984425,1233.54866
0.4650,219.6851996,-34.76898363,1233.551586
0.4700,219.6505293,-34.78800009,1233.554381
0.4750,219.6153318,-34.80648114,1233.557284
0.4800,219.5806204,-34.82355107,1233.560164
0.4850,219.5447108,-34.84174913,1233.563132
0.4900,219.5079639,-34.85916122,1233.566124
0.4950,219.4706514,-34.8766563,1233.569045
0.5000,219.4317507,-34.89440192,1233.571984
0.5050,219.3919827,-34.91277854,1233.574776
0.5100,219.3512073,-34.93138073,1233.577536
0.5150,219.3107749,-34.95018641,1233.580103
0.5200,219.2694016,-34.96919429,1233.582642
0.5250,219.2266364,-34.98847837,1233.585142
0.5300,219.1833158,-35.00713379,1233.587564
0.5350,219.1382425,-35.02612884,1233.589996
0.5400,219.0930235,-35.04551063,1233.592295
0.5450,219.0476805,-35.06530054,1233.594432
0.5500,219.0012206,-35.08507745,1233.596549
0.5550,218.9542344,-35.10533688,1233.598569
0.5600,218.9073917,-35.12566856,1233.600461
0.5650,218.8592635,-35.147613,1233.602298
0.5700,218.8100777,-35.1698692,1233.604129
0.5750,218.7603571,-35.19240495,1233.605889
0.5800,218.7094735,-35.21591138,1233.607573
0.5850,218.6589134,-35.24083139,1233.609102
0.5900,218.6073698,-35.26677095,1233.610507
0.5950,218.5550397,-35.29420456,1233.611878
0.6000,218.5010828,-35.32326015,1233.61326
0.6050,218.4476526,-35.35336568,1233.614491
0.6100,218.3934196,-35.38458751,1233.615685
0.6150,218.3404864,-35.41739149,1233.616556
0.6200,218.2885832,-35.45246432,1233.617197
0.6250,218.2375442,-35.4883142,1233.617642
0.6300,218.187878,-35.52495734,1233.61783
0.6350,218.1393463,-35.56292173,1233.617677
0.6400,218.0921472,-35.60229731,1233.617252
0.6450,218.0468997,-35.64348414,1233.616455
0.6500,218.0026156,-35.68496261,1233.615428
0.6550,217.9607771,-35.72807136,1233.613965
0.6600,217.9203812,-35.77226843,1233.612243
0.6650,217.8808475,-35.81791293,1233.610218
0.6700,217.8428438,-35.86435796,1233.608015
0.6750,217.8061949,-35.91141917,1233.605652
0.6800,217.7705847,-35.96003098,1233.603092
0.6850,217.7348276,-36.00860655,1233.600642
0.6900,217.7000243,-36.05800413,1233.598075
0.6950,217.6658007,-36.10656498,1233.59558
0.7000,217.6319701,-36.15482826,1233.593146
0.7050,217.5983023,-36.20373685,1233.590744
0.7100,217.5645933,-36.25269679,1233.588432
0.7150,217.5303472,-36.30277068,1233.586268
0.7200,217.495911,-36.35235772,1233.584265
0.7250,217.4613236,-36.40148057,1233.582364
0.7300,217.4266041,-36.4511147,1233.580594
0.7350,217.3918083,-36.50021791,1233.579018
0.7400,217.3570557,-36.54929395,1233.57765
0.7450,217.3229524,-36.59821033,1233.57637
0.7500,217.2891814,-36.64654966,1233.575181
0.7550,217.2557809,-36.69417047,1233.574105
0.7600,217.222553,-36.74174287,1233.573125
0.7650,217.1910238,-36.78872926,1233.572171
0.7700,217.1603987,-36.83574045,1233.571238
0.7750,217.1298806,-36.88239415,1233.570451
0.7800,217.100536,-36.92965415,1233.569589
0.7850,217.0725654,-36.9766632,1233.568668
0.7900,217.0465648,-37.02388763,1233.567682
0.7950,217.0216906,-37.07151353,1233.566604
0.8000,216.9985131,-37.11897923,1233.565533
0.8050,216.9766997,-37.16531906,1233.5645
0.8100,216.955793,-37.21152897,1233.563455
0.8150,216.9363341,-37.25815603,1233.562268
0.8200,216.9185187,-37.30376646,1233.560974
0.8250,216.9022602,-37.34886426,1233.559653
0.8300,216.8871361,-37.39297375,1233.558305
0.8350,216.8733025,-37.43669183,1233.556884
0.8400,216.8595706,-37.48009329,1233.555507
0.8450,216.8475888,-37.52331002,1233.554057
0.8500,216.8367097,-37.56632086,1233.552501
0.8550,216.8274286,-37.60870816,1233.550814
0.8600,216.8190574,-37.65142663,1233.549056
0.8650,216.8129181,-37.69300111,1233.547129
0.8700,216.808023,-37.73446444,1233.545035
0.8750,216.8042348,-37.7768373,1233.542756
0.8800,216.8012946,-37.81816243,1233.540472
0.8850,216.7986094,-37.85942474,1233.538131
0.8900,216.7960747,-37.90073972,1233.535852
0.8950,216.7934228,-37.94103785,1233.533542
0.9000,216.7921078,-37.98172773,1233.531042
0.9050,216.7901111,-38.02188661,1233.52863
0.9100,216.788217,-38.06192757,1233.526146
0.9150,216.7849132,-38.10127415,1233.523847
0.9200,216.780727,-38.13935362,1233.521637
0.9250,216.7765476,-38.17753277,1233.519415
0.9300,216.7725023,-38.21465452,1233.51715
0.9350,216.7675535,-38.25059119,1233.515014
0.9400,216.7622443,-38.28507453,1233.512928
0.9450,216.7566794,-38.31849413,1233.510862
0.9500,216.7505099,-38.35074594,1233.508869
0.9550,216.7427872,-38.38080702,1233.507059
0.9600,216.7340779,-38.40952667,1233.505377
0.9650,216.7258117,-38.4362742,1233.503757
0.9700,216.7167017,-38.46166561,1233.502137
0.9750,216.7072757,-38.48520027,1233.50061
0.9800,216.6974454,-38.50644298,1233.499174
0.9850,216.6876851,-38.52637695,1233.497663
0.9900,216.6769753,-38.54511648,1233.496268
0.9950,216.6662639,-38.56276736,1233.494767
1.0000,216.6539052,-38.57894275,1233.493448
1.0050,216.6408873,-38.59425491,1233.492117
1.0100,216.6265076,-38.60828836,1233.490868
1.0150,216.6110378,-38.62059326,1233.4897
1.0200,216.5929584,-38.63229119,1233.488746
1.0250,216.5741124,-38.64341351,1233.487856
1.0300,216.5534111,-38.65347312,1233.487089
1.0350,216.5308668,-38.66313299,1233.486475
1.0400,216.5063421,-38.67179149,1233.486035
1.0450,216.4792738,-38.67999965,1233.485823
1.0500,216.4501773,-38.68730459,1233.485855
1.0550,216.4189545,-38.69363695,1233.486111
1.0600,216.3850169,-38.69899592,1233.486737
1.0650,216.3479221,-38.70393653,1233.487661
1.0700,216.3085887,-38.7074585,1233.488882
1.0750,216.2673627,-38.70999779,1233.490288
1.0800,216.2238345,-38.71217995,1233.49192
1.0850,216.1788993,-38.71339053,1233.49359
1.0900,216.1326323,-38.71370106,1233.495247
1.0950,216.0855487,-38.7135021,1233.49688
1.1000,216.0372429,-38.71285215,1233.498432
1.1050,215.9887647,-38.71213428,1233.499792
1.1100,215.9397495,-38.7122424,1233.500908
1.1150,215.8906444,-38.71201489,1233.501867
1.1200,215.8415072,-38.7128321,1233.502704
1.1250,215.7929425,-38.71406653,1233.503247
1.1300,215.743901,-38.71610335,1233.503672
1.1350,215.6950585,-38.71793175,1233.503968
1.1400,215.6470933,-38.72000147,1233.504
1.1450,215.5990118,-38.72220433,1233.503793
1.1500,215.5517202,-38.72515635,1233.503361
1.1550,215.5038279,-38.7284223,1233.502795
1.1600,215.4566516,-38.73114999,1233.501828
1.1650,215.4091998,-38.73397668,1233.500536
1.1700,215.3625793,-38.73700627,1233.498666
1.1750,215.3162968,-38.73944641,1233.496188
1.1800,215.2712628,-38.7429355,1233.492845
1.1850,215.2274018,-38.74677615,1233.488451
1.1900,215.1860703,-38.75209601,1233.482757
1.1950,215.1477482,-38.75870632,1233.475577
1.2000,215.1118996,-38.76637565,1233.466844
1.2050,215.0793932,-38.77682632,1233.456291
1.2100,215.0507771,-38.79038821,1233.443847
1.2150,215.0272745,-38.80677913,1233.429335
1.2200,215.0086088,-38.82602297,1233.412801
1.2250,214.9950082,-38.84935865,1233.394236
1.2300,214.9849989,-38.87689038,1233.373915
1.2350,214.9795866,-38.90812195,1233.351799
1.2400,214.9790606,-38.94311282,1233.327979
1.2450,214.9825228,-38.98221146,1233.302565
1.2500,214.9911006,-39.02479404,1233.275582
1.2550,215.0037284,-39.070499,1233.247275
1.2600,215.0192294,-39.11899265,1233.217803
1.2650,215.0359356,-39.16947307,1233.187476
1.2700,215.0529846,-39.22092912,1233.15664
1.2750,215.0694302,-39.27338647,1233.125325
1.2800,215.0840712,-39.32687376,1233.0938
1.2850,215.0975333,-39.3810004,1233.062024
1.2900,215.1084633,-39.43585288,1233.030052
1.2950,215.1146681,-39.49157451,1232.998192
1.3000,215.1164684,-39.54839243,1232.966327
1.3050,215.113178,-39.60513654,1232.934625
1.3100,215.103959,-39.6618216,1232.903207
1.3150,215.0885535,-39.7189039,1232.87204
1.3200,215.0691799,-39.77600176,1232.840764
1.3250,215.0441343,-39.83319483,1232.809613
1.3300,215.0139343,-39.89117574,1232.77856
1.3350,214.9781467,-39.95010209,1232.747642
1.3400,214.9372261,-40.00926792,1232.716836
1.3450,214.8914395,-40.07042841,1232.686019
1.3500,214.8413228,-40.13224406,1232.655201
1.3550,214.7872952,-40.19509409,1232.624275
1.3600,214.7304913,-40.25913039,1232.593
1.3650,214.6705924,-40.32459651,1232.561446
1.3700,214.6072308,-40.39162497,1232.52956
1.3750,214.54171,-40.46082681,1232.497066
1.3800,214.4736703,-40.53177974,1232.463957
1.3850,214.4023664,-40.60462264,1232.430373
1.3900,214.3274085,-40.67984147,1232.396217
1.3950,214.2495824,-40.75601624,1232.361339
1.4000,214.1680541,-40.83455942,1232.325784
1.4050,214.0835974,-40.91561909,1232.289364
1.4100,213.9964615,-40.9966901,1232.252108
1.4150,213.9062517,-41.07991255,1232.213882
1.4200,213.8132937,-41.16434533,1232.17447
1.4250,213.7175655,-41.24958897,1232.133842
1.4300,213.6202837,-41.33617068,1232.091809
1.4350,213.5219084,-41.42502063,1232.048242
1.4400,213.4230165,-41.51500816,1232.003036
1.4450,213.3238255,-41.60552812,1231.956283
1.4500,213.2267846,-41.69628892,1231.907506
1.4550,213.1317487,-41.78724583,1231.85668
1.4600,213.0383254,-41.87824543,1231.803869
1.4650,212.9483648,-41.96945028,1231.748786
1.4700,212.8628742,-42.06127472,1231.691252
1.4750,212.7821981,-42.15263455,1231.631267
1.4800,212.7066004,-42.24346551,1231.568661
1.4850,212.6367087,-42.3337665,1231.503395
1.4900,212.5715895,-42.42253109,1231.43543
1.4950,212.5104242,-42.51090639,1231.364879
1.5000,212.453471,-42.59808726,1231.291626
1.5050,212.4006472,-42.68472676,1231.215626
1.5100,212.3510692,-42.76947821,1231.13685
1.5150,212.3034586,-42.85412134,1231.055394
1.5200,212.2584667,-42.93844457,1230.971027
1.5250,212.2136411,-43.02210446,1230.884046
1.5300,212.170028,-43.10470768,1230.79423
1.5350,212.1273664,-43.18718073,1230.70155
1.5400,212.0837861,-43.26851981,1230.606188
1.5450,212.0391479,-43.34762138,1230.50832
1.5500,211.9918903,-43.42528034,1230.408137
1.5550,211.9428299,-43.500706,1230.305691
1.5600,211.891404,-43.57410158,1230.201114
1.5650,211.8371557,-43.64512137,1230.094639
1.5700,211.7794173,-43.71390025,1229.986351
1.5750,211.7183485,-43.77964824,1229.876342
1.5800,211.6537121,-43.84198352,1229.764809
1.5850,211.5830667,-43.90022665,1229.652172
1.5900,211.5074177,-43.95311708,1229.538406
1.5950,211.4262845,-44.00053023,1229.423668
1.6000,211.3400596,-44.04174271,1229.308025
1.6050,211.2468924,-44.07731778,1229.19172
1.6100,211.1472355,-44.10668783,1229.074704
1.6150,211.0405339,-44.12993642,1228.957216
1.6200,210.9253365,-44.14712841,1228.839523
1.6250,210.8004237,-44.15848592,1228.721789
1.6300,210.6662028,-44.16350216,1228.604024
1.6350,210.5229137,-44.16228404,1228.486177
1.6400,210.3698795,-44.15590229,1228.368417
1.6450,210.2073337,-44.14241455,1228.250848
1.6500,210.0343218,-44.12442478,1228.133571
1.6550,209.8507438,-44.10143614,1228.016784
1.6600,209.6568803,-44.07252071,1227.900613
1.6650,209.4533257,-44.03755492,1227.785033
1.6700,209.2415091,-43.99646618,1227.670069
1.6750,209.021324,-43.94929505,1227.555855
1.6800,208.7936301,-43.89544748,1227.442584
1.6850,208.5584836,-43.83490595,1227.330225
1.6900,208.3174346,-43.76814611,1227.218755
1.6950,208.0690665,-43.69618972,1227.108428
1.7000,207.8157098,-43.6184286,1226.999059
1.7050,207.5565364,-43.53386096,1226.89084
1.7100,207.293568,-43.44446346,1226.783531
1.7150,207.0266615,-43.34820767,1226.677213
1.7200,206.7564136,-43.24552806,1226.571924
1.7250,206.4837116,-43.13685677,1226.467555
1.7300,206.2098492,-43.02148283,1226.363998
1.7350,205.9352006,-42.89932349,1226.261223
1.7400,205.6602149,-42.77025719,1226.159258
1.7450,205.3855563,-42.63519287,1226.057961
1.7500,205.1106221,-42.49357175,1225.957515
1.7550,204.8376222,-42.34616621,1225.857658
1.7600,204.5678029,-42.19338718,1225.758331
1.7650,204.3004215,-42.03434478,1225.659628
1.7700,204.0356538,-41.86901995,1225.56171
1.7750,203.7741893,-41.69801081,1225.464486
1.7800,203.5162659,-41.52197496,1225.367884
1.7850,203.2616714,-41.34113315,1225.272011
1.7900,203.0121889,-41.15569674,1225.176587
1.7950,202.7678438,-40.96590865,1225.081544
1.8000,202.529001,-40.77309869,1224.986862
1.8050,202.2961544,-40.57561481,1224.892447
1.8100,202.0695012,-40.37538085,1224.798247
1.8150,201.8496445,-40.17279732,1224.704064
1.8200,201.6356644,-39.96790973,1224.610049
1.8250,201.429403,-39.75958289,1224.515898
1.8300,201.2307001,-39.54977801,1224.421509
1.8350,201.0391868,-39.33945066,1224.326773
1.8400,200.8555096,-39.1293939,1224.231546
1.8450,200.6794835,-38.91940012,1224.135778
1.8500,200.5107747,-38.71009283,1224.039414
1.8550,200.3503021,-38.50148948,1223.942199
1.8600,200.1981402,-38.29305841,1223.844184
1.8650,200.0549376,-38.08569015,1223.74514
1.8700,199.9215231,-37.87876243,1223.644957
1.8750,199.7967888,-37.67223275,1223.543916
1.8800,199.6814235,-37.46640685,1223.441667
1.8850,199.5757721,-37.26105741,1223.338268
1.8900,199.4792649,-37.05604358,1223.233825
1.8950,199.3920882,-36.85114634,1223.128365
1.9000,199.3125076,-36.64677002,1223.022118
1.9050,199.2414438,-36.44159987,1222.91509
1.9100,199.1773321,-36.23650765,1222.807522
1.9150,199.1193106,-36.03135027,1222.699417
1.9200,199.0677173,-35.82582676,1222.590778
1.9250,199.0219489,-35.62081886,1222.481636
1.9300,198.9809621,-35.41570165,1222.372137
1.9350,198.9437581,-35.21036347,1222.262439
1.9400,198.9102517,-35.00465537,1222.152449
1.9450,198.878973,-34.7990273,1222.042366
1.9500,198.8503714,-34.59276602,1221.932089
1.9550,198.8241628,-34.38628516,1221.82162
1.9600,198.7993827,-34.18010546,1221.711126
1.9650,198.7759762,-33.97478052,1221.6005
1.9700,198.7522424,-33.77002436,1221.49001
1.9750,198.7280401,-33.5663911,1221.379634
1.9800,198.7027916,-33.36251714,1221.26944
1.9850,198.676975,-33.15943462,1221.159438
1.9900,198.6495943,-32.95676981,1221.049733
1.9950,198.6226757,-32.75438578,1220.940126
2.0000,198.5943956,-32.5514566,1220.8309
2.0050,198.5656856,-32.34895236,1220.721878
2.0100,198.5361486,-32.14531184,1220.613366
2.0150,198.5058357,-31.94203152,1220.505313
2.0200,198.4759213,-31.73850181,1220.397637
2.0250,198.4465018,-31.53468355,1220.290481
2.0300,198.4171429,-31.33112427,1220.183855
2.0350,198.3875206,-31.12785712,1220.077856
2.0400,198.3571284,-30.92543615,1219.972556
2.0450,198.3256289,-30.72285751,1219.867998
2.0500,198.2927163,-30.52120484,1219.764228
2.0550,198.2579484,-30.32002327,1219.661408
2.0600,198.2210517,-30.11987878,1219.559533
2.0650,198.1820648,-29.92079758,1219.458541
2.0700,198.1402312,-29.72240291,1219.358419
2.0750,198.0957073,-29.52567407,1219.259125
2.0800,198.0479755,-29.33011703,1219.160772
2.0850,197.9975599,-29.13562474,1219.063172
2.0900,197.9443669,-28.94165355,1218.966511
2.0950,197.8895026,-28.74708119,1218.870759
2.1000,197.8328873,-28.55184112,1218.775778
2.1050,197.7742177,-28.35706199,1218.681658
2.1100,197.7145544,-28.16320293,1218.588164
2.1150,197.6535073,-27.96840622,1218.495529
2.1200,197.5912243,-27.77380011,1218.403592
2.1250,197.5275824,-27.58111048,1218.312295
2.1300,197.4624222,-27.38952312,1218.221701
2.1350,197.3956177,-27.1982913,1218.132001
2.1400,197.3284021,-27.00753397,1218.043136
2.1450,197.2597464,-26.81801179,1217.955155
2.1500,197.1914745,-26.62934671,1217.867941
2.1550,197.1222706,-26.44197935,1217.781565
2.1600,197.0520624,-26.2567787,1217.695889
2.1650,196.9807863,-26.0739649,1217.610919
2.1700,196.9079129,-25.89334877,1217.526712
2.1750,196.834426,-25.7154726,1217.44308
2.1800,196.7581172,-25.53918047,1217.360564
2.1850,196.6794931,-25.36543653,1217.27901
2.1900,196.5980538,-25.19315336,1217.198653
2.1950,196.5137718,-25.02224223,1217.119485
2.2000,196.4279987,-24.85290455,1217.041297
2.2050,196.3386845,-24.685116,1216.964392
2.2100,196.247507,-24.5190087,1216.888364
2.2150,196.1546534,-24.35319165,1216.81335
2.2200,196.0588285,-24.18805088,1216.739378
2.2250,195.9609141,-24.02110066,1216.666653
2.2300,195.8600553,-23.8537054,1216.595002
2.2350,195.7561367,-23.68507823,1216.524568
2.2400,195.6489804,-23.51496054,1216.455397
2.2450,195.5386948,-23.34263346,1216.387486
2.2500,195.4246068,-23.16656927,1216.321205
2.2550,195.3068777,-22.98721928,1216.256456
2.2600,195.1857131,-22.80603835,1216.192943
2.2650,195.0587299,-22.62130316,1216.131205
2.2700,194.9269385,-22.43436649,1216.070925
2.2750,194.7895376,-22.24387735,1216.012376
2.2800,194.646997,-22.05075497,1215.955317
2.2850,194.4991709,-21.85406352,1215.899941
2.2900,194.346274,-21.65379486,1215.846204
2.2950,194.188061,-21.44998726,1215.794119
2.3000,194.024987,-21.24210471,1215.743763
2.3050,193.8559667,-21.02966602,1215.695418
2.3100,193.6811553,-20.81415983,1215.648829
2.3150,193.5006538,-20.59394425,1215.604299
2.3200,193.3136234,-20.37004786,1215.561847
2.3250,193.1202496,-20.1413095,1215.521523
2.3300,192.9207762,-19.90808773,1215.483349
2.3350,192.7150709,-19.6693201,1215.447497
2.3400,192.5050532,-19.42470818,1215.413802
2.3450,192.2904809,-19.17416264,1215.382282
2.3500,192.0711,-18.91706887,1215.353065
2.3550,191.8473319,-18.65227754,1215.326243
2.3600,191.6202471,-18.3789203,1215.301733
2.3650,191.3902849,-18.09783005,1215.279409
2.3700,191.1577387,-17.80883446,1215.259262
2.3750,190.9227312,-17.51022495,1215.24144
2.3800,190.6856931,-17.20184448,1215.225921
2.3850,190.4465311,-16.88460883,1215.21263
2.3900,190.2045338,-16.55798794,1215.201705
2.3950,189.9590727,-16.22348258,1215.193036
2.4000,189.7113776,-15.87940285,1215.186778
2.4050,189.4616481,-15.52614739,1215.18284
2.4100,189.2099962,-15.16158518,1215.18156
2.4150,188.9565093,-14.78614117,1215.182951
2.4200,188.7017425,-14.40068998,1215.186919
2.4250,188.4441287,-14.00329857,1215.193997
2.4300,188.1853938,-13.59582626,1215.203804
2.4350,187.9254144,-13.17775514,1215.216518
2.4400,187.6630414,-12.7497204,1215.232181
2.4450,187.3993411,-12.3126425,1215.250571
2.4500,187.1330077,-11.86608709,1215.271966
2.4550,186.8644182,-11.41201986,1215.296111
2.4600,186.5936916,-10.94875732,1215.323385
2.4650,186.3195401,-10.47630143,1215.35393
2.4700,186.042294,-9.995541142,1215.387732
2.4750,185.7601769,-9.506524174,1215.425041
2.4800,185.4743482,-9.009444961,1215.465704
2.4850,185.1843678,-8.503160649,1215.509969
2.4900,184.8901318,-7.988614527,1215.557754
2.4950,184.5911699,-7.465232409,1215.609211
2.5000,184.286967,-6.933126154,1215.664451
2.5050,183.9782153,-6.393219532,1215.723247
2.5100,183.6636468,-5.844238006,1215.786088
2.5150,183.343684,-5.286772574,1215.85287
2.5200,183.018211,-4.722070011,1215.923495
2.5250,182.6867446,-4.151014965,1215.997896
2.5300,182.3500359,-3.572693878,1216.076321
2.5350,182.0070305,-2.9886131,1216.15869
2.5400,181.6584904,-2.399705602,1216.244857
2.5450,181.3045406,-1.806547613,1216.334749
2.5500,180.9446068,-1.210866397,1216.428182
2.5550,180.5785653,-0.6128862216,1216.525203
2.5600,180.2064619,-0.01239667903,1216.625967
2.5650,179.8292031,0.5882822206,1216.729984
2.5700,179.4468667,1.188217152,1216.837087
2.5750,179.0604548,1.786128278,1216.94697
2.5800,178.6676728,2.380926927,1217.059883
2.5850,178.2688547,2.97143486,1217.175475
2.5900,177.8635129,3.557582939,1217.29386
2.5950,177.4512497,4.139903747,1217.415173
2.6000,177.0334197,4.716209892,1217.538802
2.6050,176.6101871,5.285958628,1217.664639
2.6100,176.1816396,5.851204234,1217.792999
2.6150,175.7475727,6.410092251,1217.923565
2.6200,175.3088261,6.963935159,1218.056433
2.6250,174.8642414,7.512338964,1218.191697
2.6300,174.4154889,8.05677289,1218.329386
2.6350,173.9627061,8.596611815,1218.469298
2.6400,173.5057095,9.132625546,1218.611575
2.6450,173.0454026,9.664258565,1218.756007
2.6500,172.5827373,10.19238241,1218.902575
2.6550,172.1181501,10.71642327,1219.05091
2.6600,171.6520775,11.23672807,1219.201094
2.6650,171.1851423,11.75421215,1219.353175
2.6700,170.7169069,12.26867105,1219.507177
2.6750,170.2475389,12.78047444,1219.663109
2.6800,169.777626,13.28912113,1219.820839
2.6850,169.3061168,13.79587578,1219.980773
2.6900,168.8337714,14.2997456,1220.142578
2.6950,168.3609519,14.80165902,1220.306383
2.7000,167.8868197,15.30044346,1220.472085
2.7050,167.4104812,15.79743028,1220.640068
2.7100,166.9321931,16.29140871,1220.810016
2.7150,166.4517107,16.78171848,1220.981788
2.7200,165.9690159,17.27025535,1221.15578
2.7250,165.4855351,17.75639612,1221.331553
2.7300,165.0004748,18.24187395,1221.509601
2.7350,164.5141921,18.72533402,1221.689511
2.7400,164.0262375,19.20837086,1221.871734
2.7450,163.5379553,19.6927369,1222.056437
2.7500,163.047772,20.17673894,1222.243486
2.7550,162.5561632,20.66195355,1222.433197
2.7600,162.0634448,21.14845947,1222.625454
2.7650,161.5698775,21.63509422,1222.819971
2.7700,161.0743346,22.12219383,1223.01701
2.7750,160.5775812,22.60967499,1223.21639
2.7800,160.0802474,23.09687829,1223.417874
2.7850,159.5817184,23.58250369,1223.621226
2.7900,159.0810348,24.06719366,1223.826799
2.7950,158.5787327,24.55017063,1224.034338
2.8000,158.0750352,25.03169329,1224.243834
2.8050,157.5696979,25.51200075,1224.455456
2.8100,157.0624564,25.9892005,1224.668809
2.8150,156.552983,26.46343623,1224.883934
2.8200,156.0404968,26.93487185,1225.101135
2.8250,155.5250339,27.40399108,1225.320562
2.8300,155.0061781,27.869956,1225.541992
2.8350,154.4857114,28.33295158,1225.765125
2.8400,153.9619869,28.79277297,1225.99016
2.8450,153.4349428,29.25001492,1226.217376
2.8500,152.9045348,29.70482867,1226.446783
2.8550,152.3717308,30.15595226,1226.67788
2.8600,151.8360679,30.60443431,1226.911018
2.8650,151.2979655,31.05001838,1227.146091
2.8700,150.7559162,31.49310376,1227.383491
2.8750,150.2101534,31.93327702,1227.623102
2.8800,149.6612285,32.36966799,1227.864512
2.8850,149.1084096,32.80174327,1228.107718
2.8900,148.5528428,33.23007503,1228.352645
2.8950,147.99317,33.65253549,1228.599015
2.9000,147.4295063,34.06955246,1228.846862
2.9050,146.8615848,34.48253382,1229.096667
2.9100,146.2892234,34.8904795,1229.348196
2.9150,145.7134145,35.29542834,1229.60183
2.9200,145.1345467,35.69643827,1229.857252
2.9250,144.5535951,36.09311172,1230.114133
2.9300,143.9695308,36.48598322,1230.372896
2.9350,143.3848168,36.87528398,1230.633014
2.9400,142.7982797,37.26142544,1230.894838
2.9450,142.2117658,37.64412119,1231.157876
2.9500,141.6245047,38.02325206,1231.422221
2.9550,141.0370839,38.39874549,1231.687759
2.9600,140.4488017,38.76936648,1231.954169
2.9650,139.8597161,39.13514067,1232.221431
2.9700,139.2714427,39.49708887,1232.489407
2.9750,138.6841176,39.85349751,1232.757561
2.9800,138.0976524,40.20533571,1233.026116
2.9850,137.5147585,40.55277733,1233.294411
2.9900,136.934947,40.89496608,1233.562271
2.9950,136.3581086,41.23145848,1233.829506
3.0000,135.7842662,41.56310041,1234.096317
3.0050,135.2142543,41.88841713,1234.361968
3.0100,134.6474534,42.20787015,1234.626723
3.0150,134.083963,42.52166138,1234.890574
3.0200,133.5236342,42.82982241,1235.153491
3.0250,132.9657285,43.13096601,1235.41525
3.0300,132.4100801,43.42641332,1235.676271
3.0350,131.8553238,43.7163825,1235.936908
3.0400,131.3031243,43.9998045,1236.196409
3.0450,130.7524865,44.27688173,1236.45509
3.0500,130.2044929,44.54855223,1236.712896
3.0550,129.6594667,44.8161149,1236.970155
3.0600,129.1175208,45.07850458,1237.226538
3.0650,128.5795966,45.33779957,1237.482386
3.0700,128.0465125,45.59391471,1237.737386
3.0750,127.5188129,45.846965,1237.99142
3.0800,126.9954025,46.09636581,1238.244506
3.0850,126.4779949,46.34384023,1238.496726
3.0900,125.9663571,46.58658332,1238.747151
3.0950,125.4596427,46.82427585,1238.99586
3.1000,124.9567086,47.05655518,1239.24305
3.1050,124.4575005,47.28208985,1239.488198
3.1100,123.9624262,47.50122553,1239.731283
3.1150,123.4694678,47.71253124,1239.972406
3.1200,122.9798265,47.91611231,1240.211174
3.1250,122.4916,48.10957265,1240.447238
3.1300,122.0051664,48.29423508,1240.680964
3.1350,121.5192833,48.47066084,1240.912856
3.1400,121.0341224,48.63969431,1241.143163
3.1450,120.5506354,48.8000533,1241.37112
3.1500,120.0682377,48.95329607,1241.597459
3.1550,119.5874692,49.10101542,1241.82246
3.1600,119.108183,49.24370297,1242.046297
3.1650,118.6309932,49.38172996,1242.268825
3.1700,118.1570329,49.51655038,1242.490242
3.1750,117.6858355,49.65028884,1242.711269
3.1800,117.2201538,49.78479423,1242.931701
3.1850,116.7608713,49.92181974,1243.151823
3.1900,116.3077468,50.06177893,1243.371755
3.1950,115.8635153,50.2068195,1243.591319
3.2000,115.4272424,50.35823862,1243.811163
3.2050,115.0014116,50.51711061,1244.030786
3.2100,114.5855997,50.68360973,1244.25037
3.2150,114.1798996,50.85745405,1244.469705
3.2200,113.7841359,51.04117449,1244.689647
3.2250,113.3995418,51.23529675,1244.90996
3.2300,113.0266455,51.43959828,1245.1303
3.2350,112.6638339,51.65512234,1245.351545
3.2400,112.3120497,51.88141788,1245.573246
3.2450,111.9710021,52.11996406,1245.795967
3.2500,111.6411004,52.37059229,1246.019498
3.2550,111.3224467,52.6335168,1246.243912
3.2600,111.0139695,52.90969673,1246.469937
3.2650,110.7158343,53.19911427,1246.697503
3.2700,110.4272612,53.49996265,1246.926285
3.2750,110.1480413,53.81242126,1247.156419
3.2800,109.8774526,54.1356991,1247.387929
3.2850,109.6149896,54.46857379,1247.6206
3.2900,109.360208,54.8112482,1247.854668
3.2950,109.1136683,55.16260925,1248.08963
3.3000,108.8744359,55.52096532,1248.32521
3.3050,108.6420664,55.88550818,1248.561303
3.3100,108.4169199,56.25489991,1248.797331
3.3150,108.198592,56.62843944,1249.033152
3.3200,107.9868338,57.00410617,1249.268215
3.3250,107.7811794,57.38087247,1249.502206
3.3300,107.5801225,57.75752679,1249.735241
3.3350,107.3853314,58.13333627,1249.966552
3.3400,107.1946474,58.50727712,1250.196462
3.3450,107.0081604,58.87786519,1250.424407
3.3500,106.8261219,59.24408016,1250.649925
3.3550,106.6464037,59.6046937,1250.873262
3.3600,106.4684651,59.95904609,1251.094324
3.3650,106.2921992,60.30599519,1251.312713
3.3700,106.1171049,60.64548982,1251.528609
3.3750,105.9421822,60.97659091,1251.741942
3.3800,105.7689225,61.2993378,1251.952242
3.3850,105.5956001,61.61236039,1252.159552
3.3900,105.4231437,61.91742303,1252.364218
3.3950,105.2512555,62.21403364,1252.566165
3.4000,105.079767,62.50137986,1252.765056
3.4050,104.9086897,62.78160456,1252.961749
3.4100,104.7376958,63.05311657,1253.155704
3.4150,104.5686413,63.31765341,1253.346976
3.4200,104.4004507,63.57518378,1253.535875
3.4250,104.2346844,63.82707741,1253.722438
3.4300,104.0695135,64.07233732,1253.906853
3.4350,103.9053214,64.31194552,1254.089355
3.4400,103.7433462,64.54717832,1254.27
3.4450,103.5821823,64.78011326,1254.450037
3.4500,103.4241823,65.01073844,1254.628585
3.4550,103.2670508,65.2399562,1254.80674
3.4600,103.110056,65.46837994,1254.984975
3.4650,102.9534589,65.6980105,1255.164023
3.4700,102.7966143,65.92930114,1255.344234
3.4750,102.6400729,66.16285154,1255.525614
3.4800,102.4826995,66.39981406,1255.709056
3.4850,102.3237815,66.64099228,1255.895079
3.4900,102.1635809,66.88654712,1256.083667
3.4950,102.0011468,67.13733183,1256.275487
3.5000,101.8358002,67.39526607,1256.471594
3.5050,101.6670102,67.65873273,1256.671508
3.5100,101.4941882,67.92991107,1256.876288
3.5150,101.3180598,68.20915757,1257.085822
3.5200,101.1383654,68.49640216,1257.300235
3.5250,100.9546558,68.79120556,1257.519511
3.5300,100.7663549,69.09349449,1257.743917
3.5350,100.5746675,69.40308288,1257.97295
3.5400,100.3793368,69.72028258,1258.206938
3.5450,100.1797894,70.04415242,1258.445703
3.5500,99.97660706,70.37456058,1258.689009
3.5550,99.76844705,70.71009049,1258.936772
3.5600,99.55601768,71.05041754,1259.188628
3.5650,99.33934271,71.39558552,1259.444693
3.5700,99.11909682,71.74692714,1259.705311
3.5750,98.893443,72.1028048,1259.97051
3.5800,98.66442314,72.46375866,1260.239761
3.5850,98.43132855,72.82916978,1260.513091
3.5900,98.19504948,73.19871863,1260.790129
3.5950,97.95380545,73.57098901,1261.070937
3.6000,97.70800283,73.94537342,1261.35518
3.6050,97.45737548,74.32112821,1261.642651
3.6100,97.20033641,74.69672524,1261.933288
3.6150,96.93712657,75.0706846,1262.22639
3.6200,96.66680018,75.44270351,1262.522163
3.6250,96.38829497,75.81231998,1262.820893
3.6300,96.10161386,76.1778801,1263.121864
3.6350,95.80491498,76.53883568,1263.425538
3.6400,95.49864264,76.89546202,1263.731924
3.6450,95.18135682,77.24712568,1264.041386
3.6500,94.85217863,77.59335711,1264.354109
3.6550,94.51180202,77.93305065,1264.669434
3.6600,94.16044893,78.26553259,1264.986992
3.6650,93.79707767,78.58986064,1265.306895
3.6700,93.42199451,78.90651129,1265.629294
3.6750,93.03454101,79.21439838,1265.954002
3.6800,92.63458546,79.5134381,1266.281107
3.6850,92.22230712,79.80387666,1266.610712
3.6900,91.79865121,80.08444671,1266.94198
3.6950,91.36298937,80.35596798,1267.275525
3.7000,90.91645281,80.6185668,1267.611073
3.7050,90.45862383,80.87094869,1267.948275
3.7100,89.98975113,81.11520495,1268.288055
3.7150,89.50877228,81.35030809,1268.630432
3.7200,89.01471904,81.57739575,1268.976409
3.7250,88.50768788,81.79643974,1269.325954
3.7300,87.98822523,82.00915147,1269.679707
3.7350,87.45581212,82.21576393,1270.038139
3.7400,86.90776266,82.41612648,1270.40231
3.7450,86.34457492,82.61191777,1270.772858
3.7500,85.76441258,82.80541833,1271.151692
3.7550,85.16831617,82.9982272,1271.539321
3.7600,84.55754429,83.19274704,1271.936408
3.7650,83.93128892,83.39086341,1272.34427
3.7700,83.29091875,83.59377003,1272.76299
3.7750,82.6357232,83.80337783,1273.193915
3.7800,81.96499142,84.02047162,1273.637775
3.7850,81.28059384,84.24635897,1274.094479
3.7900,80.58288507,84.48316256,1274.565025
3.7950,79.87262794,84.73077892,1275.04918
3.8000,79.15207074,84.98890132,1275.545875
3.8050,78.42338169,85.25981327,1276.055356
3.8100,77.68861901,85.54325644,1276.576634
3.8150,76.9502099,85.83989439,1277.109049
3.8200,76.21045934,86.14886771,1277.65111
3.8250,75.47015855,86.47075339,1278.202755
3.8300,74.73164781,86.80522325,1278.762705
3.8350,73.99529404,87.15108736,1279.330206
3.8400,73.26241628,87.5074544,1279.904095
3.8450,72.5335146,87.87351246,1280.483741
3.8500,71.81036228,88.24805962,1281.067655
3.8550,71.09554453,88.6315439,1281.654802
3.8600,70.39066197,89.02425555,1282.244463
3.8650,69.69635231,89.42353785,1282.834873
3.8700,69.01432982,89.8287324,1283.424776
3.8750,68.34643549,90.23979092,1284.013144
3.8800,67.69109164,90.65346142,1284.598896
3.8850,67.04860434,91.06875191,1285.181307
3.8900,66.41819839,91.48477065,1285.760053
3.8950,65.80124944,91.89963719,1286.333418
3.9000,65.19737765,92.3123454,1286.900858
3.9050,64.60690544,92.7219452,1287.461618
3.9100,64.02881857,93.12608914,1288.014875
3.9150,63.46219159,93.52271353,1288.559866
3.9200,62.90806493,93.91113885,1289.095626
3.9250,62.36568772,94.28887245,1289.621064
3.9300,61.83494811,94.65505669,1290.135638
3.9350,61.31545722,95.00775843,1290.638371
3.9400,60.8062977,95.34525027,1291.128674
3.9450,60.307117,95.6667032,1291.606069
3.9500,59.81840333,95.97082118,1292.069505
3.9550,59.33974693,96.25770881,1292.519058
3.9600,58.87017731,96.52740217,1292.955121
3.9650,58.41088248,96.77978392,1293.376852
3.9700,57.96196822,97.01373695,1293.783385
3.9750,57.52426477,97.22975544,1294.1745
3.9800,57.09641633,97.42776454,1294.550694
3.9850,56.67815757,97.6070247,1294.911567
3.9900,56.2685174,97.76858348,1295.25809
3.9950,55.86838795,97.91267118,1295.589829
4.0000,55.4769142,98.03956724,1295.907309
4.0050,55.09445956,98.14954918,1296.210274
4.0100,54.72098572,98.24272826,1296.498755
4.0150,54.35607798,98.3201433,1296.773462
4.0200,54.00108398,98.38155571,1297.033372
4.0250,53.65437861,98.42796407,1297.279877
4.0300,53.31652765,98.46019488,1297.513065
4.0350,52.98781105,98.47883126,1297.732958
4.0400,52.66888493,98.48547959,1297.940043
4.0450,52.3598878,98.48058077,1298.134446
4.0500,52.06109194,98.46309579,1298.315382
4.0550,51.77217258,98.43558474,1298.484392
4.0600,51.49234827,98.3978077,1298.641795
4.0650,51.22174129,98.35113193,1298.78823
4.0700,50.96053472,98.29684585,1298.924316
4.0750,50.7087333,98.23524864,1299.050207
4.0800,50.46761351,98.16837791,1299.166251
4.0850,50.23623224,98.09659549,1299.273259
4.0900,50.01478144,98.02066411,1299.371532
4.0950,49.80332598,97.94219837,1299.461897
4.1000,49.60223845,97.86200161,1299.544572
4.1050,49.41073623,97.78071032,1299.620305
4.1100,49.22876435,97.69781835,1299.688953
4.1150,49.05547162,97.61422691,1299.751429
4.1200,48.88984735,97.53072808,1299.808742
4.1250,48.73246588,97.44649469,1299.860105
4.1300,48.58207534,97.3628469,1299.907008
4.1350,48.44007551,97.28000881,1299.948777
4.1400,48.30576176,97.19802639,1299.985869
4.1450,48.17968639,97.11689171,1300.017901
4.1500,48.06012876,97.03566694,1300.045395
4.1550,47.94756011,96.95505337,1300.068456
4.1600,47.84101308,96.87340471,1300.086821
4.1650,47.74061975,96.7918752,1300.101068
4.1700,47.64546218,96.70951499,1300.111131
4.1750,47.55613909,96.62659834,1300.116816
4.1800,47.47289057,96.54469174,1300.118957
4.1850,47.39504526,96.46390181,1300.118015
4.1900,47.32363301,96.38490063,1300.113787
4.1950,47.25879573,96.30877197,1300.106816
4.2000,47.19894869,96.2336962,1300.096997
4.2050,47.14403565,96.16028354,1300.08477
4.2100,47.09425748,96.08863762,1300.07005
4.2150,47.04953491,96.01962137,1300.053445
4.2200,47.00761818,95.95013148,1300.034523
4.2250,46.9690995,95.88153264,1300.013751
4.2300,46.93240095,95.81318108,1299.991709
4.2350,46.89840564,95.7455527,1299.968184
4.2400,46.86614011,95.67766174,1299.943206
4.2450,46.83598763,95.60896104,1299.916235
4.2500,46.80721699,95.54063006,1299.888454
4.2550,46.77971988,95.4715797,1299.859298
4.2600,46.75296169,95.40177777,1299.829145
4.2650,46.72659011,95.33076246,1299.797947
4.2700,46.69953329,95.25812318,1299.766167
4.2750,46.67226443,95.18438125,1299.733812
4.2800,46.64521177,95.10991276,1299.700835
4.2850,46.6175937,95.03405174,1299.667409
4.2900,46.59007169,94.95764336,1299.633603
4.2950,46.56319609,94.88027123,1299.598838
4.3000,46.53668771,94.80224033,1299.56345
4.3050,46.51127917,94.72447684,1299.527637
4.3100,46.48670705,94.6462736,1299.491081
4.3150,46.46260266,94.56781185,1299.454063
4.3200,46.43932659,94.49011886,1299.417044
4.3250,46.41781437,94.41331253,1299.379539
4.3300,46.39686329,94.33600556,1299.341412
4.3350,46.37697025,94.25858136,1299.302605
4.3400,46.35793445,94.18037196,1299.262834
4.3450,46.34016498,94.1016122,1299.22203
4.3500,46.3224284,94.02229022,1299.180865
4.3550,46.30453835,93.94144616,1299.138938
4.3600,46.28687839,93.85862332,1299.09571
4.3650,46.26865302,93.77393766,1299.051754
4.3700,46.25030221,93.68666057,1299.006407
4.3750,46.2313957,93.59686846,1298.959952
4.3800,46.21244464,93.50358125,1298.911597
4.3850,46.19372254,93.4075416,1298.861523
4.3900,46.17537972,93.3078137,1298.809185
4.3950,46.15699472,93.20443585,1298.754837
4.4000,46.13882783,93.09751037,1298.698449
4.4050,46.11966024,92.98671716,1298.640574
4.4100,46.10014215,92.87292263,1298.58124
4.4150,46.07955991,92.75499633,1298.520346
4.4200,46.05839043,92.63314707,1298.457758
4.4250,46.03704634,92.50909255,1298.394213
4.4300,46.01607819,92.3812039,1298.328482
4.4350,45.99466518,92.25093873,1298.261894
4.4400,45.97337427,92.11835981,1298.19411
4.4450,45.95207269,91.98385395,1298.125473
4.4500,45.93183076,91.84951769,1298.056464
4.4550,45.91038732,91.71450706,1297.988025
4.4600,45.88841701,91.57911625,1297.919826
4.4650,45.86612197,91.44490482,1297.852582
4.4700,45.84300973,91.31109891,1297.786204
4.4750,45.81828028,91.17745095,1297.72102
4.4800,45.79296158,91.04504786,1297.657036
4.4850,45.76728099,90.91316457,1297.593665
4.4900,45.74047584,90.78175647,1297.531397
4.4950,45.71255023,90.65100193,1297.470246
4.5000,45.68421156,90.52138947,1297.410125
4.5050,45.65564161,90.39250615,1297.350612
4.5100,45.62683348,90.26409996,1297.291655
4.5150,45.59854959,90.13655186,1297.23296
4.5200,45.57117128,90.01063904,1297.174678
4.5250,45.54324411,89.884294,1297.11658
4.5300,45.51668892,89.75782285,1297.057703
4.5350,45.49029415,89.63002111,1296.998132
4.5400,45.46479855,89.50163618,1296.93782
4.5450,45.44001874,89.37240152,1296.876808
4.5500,45.41574802,89.24100127,1296.814425
4.5550,45.39260189,89.10843022,1296.750877
4.5600,45.37117582,88.9742902,1296.685556
4.5650,45.3508701,88.8394861,1296.619314
4.5700,45.33224349,88.70347832,1296.551505
4.5750,45.31519762,88.56556382,1296.481765
4.5800,45.29941834,88.42516273,1296.410009
4.5850,45.28633001,88.28365474,1296.336047
4.5900,45.27572679,88.13974292,1296.259316
4.5950,45.26709496,87.99324154,1296.180058
4.6000,45.26158472,87.84470059,1296.097818
4.6050,45.25924932,87.69386327,1296.012381
4.6100,45.25889554,87.54076676,1295.924546
4.6150,45.26268624,87.38498345,1295.832852
4.6200,45.27029596,87.22677905,1295.737533
4.6250,45.28152431,87.06489904,1295.638097
4.6300,45.29744374,86.89981543,1295.534163
4.6350,45.31739221,86.73152892,1295.426143
4.6400,45.34235283,86.56044333,1295.313658
4.6450,45.37123589,86.38545263,1295.196781
4.6500,45.40464577,86.20591516,1295.0748
4.6550,45.44198435,86.02150376,1294.947961
4.6600,45.48219367,85.83093623,1294.816273
4.6650,45.52678786,85.63472874,1294.679171
4.6700,45.5743413,85.43282498,1294.537441
4.6750,45.62574465,85.22519943,1294.39061
4.6800,45.67941818,85.01159341,1294.239522
4.6850,45.73606097,84.79174521,1294.08373
4.6900,45.79517638,84.56633547,1293.923864
4.6950,45.85719117,84.33556471,1293.759788
4.7000,45.92129074,84.09945236,1293.592009
4.7050,45.98814248,83.85816915,1293.420308
4.7100,46.05784134,83.61241807,1293.244997
4.7150,46.1292384,83.36275937,1293.067019
4.7200,46.20262854,83.10956544,1292.886403
4.7250,46.27770579,82.85292788,1292.703373
4.7300,46.35428947,82.59373241,1292.518557
4.7350,46.432648,82.33253274,1292.331977
4.7400,46.5127537,82.06902028,1292.143639
4.7450,46.59406397,81.80532436,1291.954863
4.7500,46.67712415,81.54064223,1291.765016
4.7550,46.76269848,81.27665156,1291.57439
4.7600,46.85056758,81.0142051,1291.383619
4.7650,46.94058269,80.75298021,1291.192596
4.7700,47.03243891,80.4942588,1291.002146
4.7750,47.12773365,80.23880075,1290.811675
4.7800,47.22542284,79.9862741,1290.621633
4.7850,47.32538826,79.73826487,1290.432816
4.7900,47.42746507,79.49362057,1290.24478
4.7950,47.53120862,79.25352399,1290.05832
4.8000,47.63754648,79.0187396,1289.87328
4.8050,47.74587639,78.78937007,1289.690041
4.8100,47.8572554,78.56576378,1289.508111
4.8150,47.97032544,78.34701357,1289.327806
4.8200,48.08533893,78.1335343,1289.14921
4.8250,48.20379677,77.92728106,1288.972315
4.8300,48.32483489,77.7276213,1288.797243
4.8350,48.449104,77.53457605,1288.623645
4.8400,48.57624281,77.34835389,1288.451777
4.8450,48.70636683,77.16864435,1288.281344
4.8500,48.83952693,76.99586042,1288.112495
4.8550,48.97454711,76.82938443,1287.945593
4.8600,49.11196136,76.66850676,1287.779973
4.8650,49.25169731,76.51258368,1287.615293
4.8700,49.39312292,76.36197701,1287.45212
4.8750,49.53577837,76.21627427,1287.290501
4.8800,49.68001307,76.07539478,1287.130209
4.8850,49.82572331,75.93887208,1286.971043
4.8900,49.97249274,75.80716507,1286.813487
4.8950,50.12028501,75.67959153,1286.657207
4.9000,50.26980008,75.55605697,1286.50181
4.9050,50.41888794,75.43525075,1286.347841
4.9100,50.56953106,75.31772616,1286.194445
4.9150,50.71923596,75.20192072,1286.042216
4.9200,50.86807488,75.08676442,1285.890613
4.9250,51.01574283,74.97355111,1285.740443
4.9300,51.16185231,74.86203571,1285.591754
4.9350,51.30631305,74.75120079,1285.444158
4.9400,51.44889861,74.64080801,1285.297694
4.9450,51.59007161,74.52943521,1285.151432
4.9500,51.72989806,74.41821752,1285.005886
4.9550,51.86846038,74.30668287,1284.860712
4.9600,52.00699453,74.19690242,1284.716203
4.9650,52.14558155,74.0865936,1284.57118
4.9700,52.28419452,73.97707316,1284.426262
4.9750,52.42221863,73.86706055,1284.281139
4.9800,52.56118504,73.75609434,1284.134762
4.9850,52.69954214,73.64429496,1283.987978
4.9900,52.83760107,73.53047608,1283.840052
4.9950,52.97512828,73.41468204,1283.691117
5.0000,53.11273107,73.29731179,1283.540984
5.0050,53.25043573,73.17761457,1283.389291
5.0100,53.38728141,73.0541776,1283.235899
5.0150,53.52528416,72.92762985,1283.080025
5.0200,53.6631008,72.79820516,1282.922423
5.0250,53.80044509,72.66569715,1282.763197
5.0300,53.93846539,72.52983151,1282.601506
5.0350,54.07702224,72.39096995,1282.437608
5.0400,54.21694859,72.25010738,1282.2714
5.0450,54.35917551,72.10580815,1282.101791
5.0500,54.50409244,71.95875284,1281.928804
5.0550,54.65118592,71.80807503,1281.752347
5.0600,54.80109873,71.65486193,1281.572503
5.0650,54.9539991,71.49786134,1281.388626
5.0700,55.11108838,71.33856375,1281.200739
5.0750,55.27164034,71.17679242,1281.009185
5.0800,55.43714299,71.01185647,1280.812842
5.0850,55.60782577,70.84416098,1280.611856
5.0900,55.78459277,70.67402637,1280.405848
5.0950,55.96821416,70.50212597,1280.194747
5.1000,56.15830671,70.32757525,1279.978332
5.1050,56.35614888,70.15019895,1279.755886
5.1100,56.5616774,69.97008387,1279.527501
5.1150,56.77579863,69.78704399,1279.292685
5.1200,56.99876666,69.60099789,1279.051263
5.1250,57.23065546,69.4107753,1278.802729
5.1300,57.47069533,69.21495901,1278.546956
5.1350,57.71987501,69.01519748,1278.284178
5.1400,57.97791978,68.81048156,1278.014217
5.1450,58.2454694,68.6018751,1277.737275
5.1500,58.52288118,68.38851626,1277.452938
5.1550,58.81046728,68.17046587,1277.161105
5.1600,59.10668314,67.947991,1276.862805
5.1650,59.4105268,67.72051497,1276.558456
5.1700,59.72324183,67.48828348,1276.24754
5.1750,60.04439688,67.25154054,1275.930482
5.1800,60.37351841,67.0106053,1275.607734
5.1850,60.7116109,66.76536274,1275.278814
5.1900,61.0586032,66.51582686,1274.943818
5.1950,61.41406876,66.26178821,1274.602976
5.2000,61.77672992,66.00254082,1274.256677
5.2050,62.14810812,65.73792533,1273.904223
5.2100,62.52570342,65.46743039,1273.546725
5.2150,62.91051391,65.19118944,1273.183854
5.2200,63.30072781,64.90858896,1272.816404
5.2250,63.69713951,64.61975717,1272.444091
5.2300,64.09934384,64.32391524,1272.066958
5.2350,64.50572231,64.02173417,1271.686149
5.2400,64.91690454,63.71358448,1271.301612
5.2450,65.33038972,63.40034361,1270.914999
5.2500,65.7474709,63.08226376,1270.525795
5.2550,66.1681057,62.75854158,1270.133788
5.2600,66.5919707,62.42889773,1269.739101
5.2650,67.01834491,62.0946649,1269.342696
5.2700,67.44678444,61.75500291,1268.94452
5.2750,67.87851852,61.41078175,1268.544483
5.2800,68.31228258,61.06285953,1268.143544
5.2850,68.74879246,60.710096,1267.740964
5.2900,69.18703068,60.3542217,1267.337988
5.2950,69.62797814,59.99523865,1266.934228
5.3000,70.0708564,59.63257294,1266.529885
5.3050,70.51552361,59.26683702,1266.125295
5.3100,70.96161358,58.89885001,1265.720997
5.3150,71.40909883,58.52844286,1265.316934
5.3200,71.85949464,58.15412632,1264.911926
5.3250,72.31320399,57.77661917,1264.505935
5.3300,72.77049819,57.39615654,1264.099023
5.3350,73.23200966,57.01228196,1263.690738
5.3400,73.69741955,56.62340169,1263.28064
5.3450,74.1676309,56.23011261,1262.868581
5.3500,74.64182965,55.83170028,1262.45469
5.3550,75.12190782,55.42858531,1262.038372
5.3600,75.60775337,55.0195285,1261.619289
5.3650,76.10000318,54.60724962,1261.198201
5.3700,76.597418,54.18944905,1260.774889
5.3750,77.10100854,53.76641673,1260.349098
5.3800,77.61133302,53.33901863,1259.920913
5.3850,78.12910961,52.90776153,1259.490309
5.3900,78.65431374,52.472817,1259.05738
5.3950,79.18713061,52.03377101,1258.622017
5.4000,79.72866333,51.59194232,1258.184272
5.4050,80.27861652,51.14671279,1257.74418
5.4100,80.83643905,50.69957635,1257.302585
5.4150,81.40156407,50.25034487,1256.859706
5.4200,81.97431035,49.79977465,1256.415779
5.4250,82.55437663,49.34816915,1255.971118
5.4300,83.14163898,48.89685876,1255.5263
5.4350,83.73486072,48.44489834,1255.0815
5.4400,84.3326387,47.99328042,1254.637663
5.4450,84.933528,47.54116427,1254.195083
5.4500,85.53655558,47.09013301,1253.754643
5.4550,86.1412523,46.64011058,1253.316497
5.4600,86.74761243,46.19112862,1252.880629
5.4650,87.35559207,45.74384988,1252.447191
5.4700,87.96439731,45.29820647,1252.016458
5.4750,88.5728932,44.85449251,1251.588978
5.4800,89.18011627,44.41116118,1251.16457
5.4850,89.7842485,43.96781679,1250.743874
5.4900,90.38437238,43.52298922,1250.326763
5.4950,90.97939453,43.07832031,1249.914184
5.5000,91.56783673,42.63290348,1249.506429
5.5050,92.14865147,42.18707793,1249.103964
5.5100,92.72230529,41.7407282,1248.70656
5.5150,93.28751671,41.29457131,1248.314892
5.5200,93.84519158,40.84908727,1247.928742
5.5250,94.39510272,40.40415211,1247.548068
5.5300,94.93748088,39.96081306,1247.173042
5.5350,95.47287283,39.51891157,1246.803384
5.5400,96.00061574,39.07847704,1246.439261
5.5450,96.52217836,38.63880837,1246.079924
5.5500,97.03523304,38.20086382,1245.72656
5.5550,97.53993074,37.76488005,1245.379154
5.5600,98.0358508,37.33169055,1245.038084
5.5650,98.52283588,36.90107745,1244.703308
5.5700,99.00192834,36.47337331,1244.374463
5.5750,99.47177451,36.04860468,1244.052003
5.5800,99.93268324,35.62750827,1243.735976
5.5850,100.3841524,35.21057592,1243.426662
5.5900,100.8280231,34.79783766,1243.123327
5.5950,101.2640328,34.38874284,1242.825872
5.6000,101.6928621,33.98475068,1242.534379
5.6050,102.1150452,33.58619493,1242.24873
5.6100,102.5323115,33.19227329,1241.967987
5.6150,102.9451981,32.8033489,1241.692024
5.6200,103.3533711,32.4198527,1241.420998
5.6250,103.7574046,32.04122716,1241.154614
5.6300,104.1569687,31.66665679,1240.892701
5.6350,104.5532261,31.29611279,1240.634753
5.6400,104.9454925,30.9303305,1240.381231
5.6450,105.3349013,30.56844237,1240.131452
5.6500,105.7230111,30.20981861,1239.884671
5.6550,106.1093003,29.85434744,1239.641006
5.6600,106.4954419,29.50271217,1239.400076
5.6650,106.8822561,29.15232206,1239.160879
5.6700,107.2705408,28.80471095,1238.923591
5.6750,107.6611534,28.45982378,1238.687845
5.6800,108.0540283,28.11811023,1238.453876
5.6850,108.4497036,27.77835733,1238.221087
5.6900,108.8479615,27.43932189,1237.989216
5.6950,109.248753,27.10003983,1237.757997
5.7000,109.6516431,26.75940667,1237.527311
5.7050,110.0547215,26.41705389,1237.297697
5.7100,110.4582817,26.07196927,1237.068769
5.7150,110.863036,25.7236793,1236.840207
5.7200,111.2680361,25.3718069,1236.612204
5.7250,111.6726334,25.01702492,1236.385191
5.7300,112.0763264,24.65860168,1236.159138
5.7350,112.4785941,24.29670963,1235.934323
5.7400,112.8812903,23.93166673,1235.710197
5.7450,113.284211,23.56491702,1235.48728
5.7500,113.6869334,23.19593639,1235.265513
5.7550,114.0893785,22.82476822,1235.044935
5.7600,114.4933509,22.45286146,1234.82528
5.7650,114.8987486,22.07877622,1234.60623
5.7700,115.3050782,21.70431657,1234.38834
5.7750,115.713634,21.32832584,1234.170861
5.7800,116.1244439,20.95302919,1233.954332
5.7850,116.5376913,20.57863257,1233.738626
5.7900,116.9533229,20.20565881,1233.523878
5.7950,117.3723262,19.83402329,1233.309806
5.8000,117.795882,19.4648519,1233.096282
5.8050,118.2240051,19.09778295,1232.883216
5.8100,118.656614,18.73404962,1232.670899
5.8150,119.0935089,18.37307445,1232.459275
5.8200,119.5336126,18.01469358,1232.248659
5.8250,119.9751515,17.65853247,1232.039587
5.8300,120.4174446,17.30376136,1231.832065
5.8350,120.8607001,16.95015318,1231.625941
5.8400,121.3039405,16.5973439,1231.421416
5.8450,121.7464386,16.24658822,1231.218923
5.8500,122.1877695,15.8955634,1231.018048
5.8550,122.6273442,15.54544425,1230.819192
5.8600,123.064304,15.19548767,1230.622355
5.8650,123.4984679,14.84485985,1230.427396
5.8700,123.9288561,14.49459008,1230.234816
5.8750,124.3554814,14.14452645,1230.044555
5.8800,124.778001,13.79483435,1229.856641
5.8850,125.1961651,13.44511162,1229.671064
5.8900,125.6091512,13.09557926,1229.488078
5.8950,126.0172734,12.7464804,1229.307577
5.9000,126.419667,12.39700907,1229.129616
5.9050,126.8165397,12.04760165,1228.954131
5.9100,127.2072203,11.69862746,1228.781388
5.9150,127.5919159,11.34960851,1228.611211
5.9200,127.9711581,11.00075414,1228.443449
5.9250,128.345528,10.65187038,1228.277878
5.9300,128.7152232,10.30418343,1228.114682
5.9350,129.0794936,9.956382686,1227.953872
5.9400,129.4407732,9.610068171,1227.795032
5.9450,129.7982835,9.266003152,1227.638612
5.9500,130.1517846,8.925012501,1227.484862
5.9550,130.502327,8.586411123,1227.333379
5.9600,130.8494943,8.250497525,1227.184271
5.9650,131.1938214,7.917703828,1227.037524
5.9700,131.5352917,7.587631757,1226.893074
5.9750,131.8738588,7.261134546,1226.751165
5.9800,132.2094149,6.936747363,1226.611429
5.9850,132.5425493,6.614232697,1226.473733
5.9900,132.8757635,6.296013605,1226.337883
5.9950,133.2089286,5.981059128,1226.203702
6.0000,133.5422361,5.670915998,1226.071492
6.0050,133.8778304,5.365853126,1225.940662
6.0100,134.2152117,5.064716528,1225.81117
6.0150,134.554183,4.768390455,1225.683205
6.0200,134.8952443,4.476220429,1225.556521
6.0250,135.2389565,4.188525743,1225.431054
6.0300,135.586155,3.905676688,1225.306705
6.0350,135.9377349,3.62807193,1225.183252
6.0400,136.2925136,3.354817642,1225.060938
6.0450,136.6515982,3.085289817,1224.939265
6.0500,137.0143669,2.819208148,1224.818464
6.0550,137.3814675,2.558001582,1224.698576
6.0600,137.7519123,2.301417797,1224.579946
6.0650,138.1261563,2.050515312,1224.46259
6.0700,138.5054656,1.803760352,1224.346012
6.0750,138.8876956,1.56250231,1224.231013
6.0800,139.2745143,1.325552818,1224.116939
6.0850,139.6638187,1.092710285,1224.004393
6.0900,140.0557285,0.8646155862,1223.893401
6.0950,140.4506787,0.6400301586,1223.783619
6.1000,140.8467159,0.4192981075,1223.675648
6.1050,141.2439446,0.2033855906,1223.569555
6.1100,141.642058,-0.009047913258,1223.465209
6.1150,142.0419023,-0.2170523317,1223.362504
6.1200,142.4440469,-0.420139564,1223.261245
6.1250,142.8490245,-0.6183361644,1223.161274
6.1300,143.2557884,-0.8113148595,1223.062941
6.1350,143.6644057,-0.9981270544,1222.966384
6.1400,144.0751736,-1.178782145,1222.871499
6.1450,144.4878759,-1.353875525,1222.778248
6.1500,144.9028434,-1.521963525,1222.686821
6.1550,145.3197931,-1.68373156,1222.597151
6.1600,145.7402014,-1.839322145,1222.508878
6.1650,146.1630133,-1.987726473,1222.422514
6.1700,146.5879574,-2.130440321,1222.337828
6.1750,147.0157009,-2.267537111,1222.254571
6.1800,147.445542,-2.399856598,1222.172794
6.1850,147.8775617,-2.526838903,1222.092591
6.1900,148.3119736,-2.649411428,1222.013692
6.1950,148.7458119,-2.76810632,1221.936756
6.2000,149.1801697,-2.885006206,1221.861036
6.2050,149.6139254,-3.000579277,1221.786762
6.2100,150.0462646,-3.116279304,1221.71388
6.2150,150.4762861,-3.232109497,1221.642666
6.2200,150.902959,-3.349545024,1221.573119
6.2250,151.3240281,-3.469719783,1221.505552
6.2300,151.7397654,-3.592796215,1221.439895
6.2350,152.1485929,-3.720119342,1221.376298
6.2400,152.5497693,-3.852346869,1221.314758
6.2450,152.9433584,-3.990941059,1221.254986
6.2500,153.3280849,-4.135414795,1221.19734
6.2550,153.7028432,-4.286695256,1221.141817
6.2600,154.0674122,-4.445105167,1221.088408
6.2650,154.4216539,-4.610393055,1221.037156
6.2700,154.7668482,-4.781485708,1220.987853
6.2750,155.102856,-4.960171746,1220.940304
6.2800,155.4299363,-5.145397022,1220.894666
6.2850,155.746808,-5.33739036,1220.851257
6.2900,156.0516644,-5.53790251,1220.810249
6.2950,156.3448652,-5.745885972,1220.771782
6.3000,156.6278205,-5.961617905,1220.735553
6.3050,156.8983859,-6.185203038,1220.702029
6.3100,157.1596247,-6.415042427,1220.670839
6.3150,157.4114496,-6.650978974,1220.642111
6.3200,157.6551256,-6.892030392,1220.615647
6.3250,157.8913111,-7.138250639,1220.591272
6.3300,158.1216284,-7.389089679,1220.568626
6.3350,158.3460998,-7.645194849,1220.547684
6.3400,158.5662528,-7.90541811,1220.528135
6.3450,158.7827358,-8.168720224,1220.510032
6.3500,158.997127,-8.433367507,1220.493254
6.3550,159.2095463,-8.700957884,1220.477697
6.3600,159.4203824,-8.970937852,1220.46337
6.3650,159.6301392,-9.241261457,1220.450501
6.3700,159.83891,-9.511803765,1220.439121
6.3750,160.0495289,-9.782217252,1220.428706
6.3800,160.2613963,-10.0515629,1220.419626
6.3850,160.478234,-10.31832617,1220.411242
6.3900,160.7008516,-10.58185496,1220.403522
6.3950,160.9297499,-10.84149832,1220.396247
6.4000,161.1669766,-11.0969145,1220.388922
6.4050,161.4129745,-11.34762667,1220.381575
6.4100,161.6686345,-11.59188503,1220.374131
6.4150,161.9334024,-11.82987469,1220.366683
6.4200,162.2069292,-12.06119055,1220.359445
6.4250,162.4898662,-12.28523318,1220.352195
6.4300,162.783555,-12.50135419,1220.344737
6.4350,163.0869237,-12.70970576,1220.337199
6.4400,163.3995816,-12.90986788,1220.329811
6.4450,163.7209977,-13.10145959,1220.322684
6.4500,164.0505791,-13.28467783,1220.315853
6.4550,164.3882508,-13.45978046,1220.309239
6.4600,164.731873,-13.6253403,1220.303417
6.4650,165.0819597,-13.78233007,1220.29807
6.4700,165.4374545,-13.93059137,1220.293356
6.4750,165.7957387,-14.06972505,1220.289847
6.4800,166.1560166,-14.20081696,1220.287483
6.4850,166.516423,-14.32411551,1220.286555
6.4900,166.8750353,-14.44007612,1220.287307
6.4950,167.2328233,-14.54882231,1220.289535
6.5000,167.5868829,-14.65112204,1220.293782
6.5050,167.9367065,-14.74893891,1220.299889
6.5100,168.2813135,-14.84179217,1220.308078
6.5150,168.6181122,-14.93346584,1220.318303
6.5200,168.9461277,-15.02398517,1220.330716
6.5250,169.2651257,-15.11521139,1220.345096
6.5300,169.57309,-15.20867001,1220.361516
6.5350,169.8708378,-15.30389632,1220.379837
6.5400,170.1568636,-15.40272395,1220.400104
6.5450,170.4303785,-15.50522076,1220.422304
6.5500,170.6919117,-15.61173383,1220.446207
6.5550,170.9426337,-15.72297327,1220.471529
6.5600,171.1826976,-15.83864066,1220.498319
6.5650,171.4115695,-15.95999501,1220.526579
6.5700,171.6293033,-16.0876034,1220.556243
6.5750,171.8363592,-16.21972624,1220.587423
6.5800,172.0326097,-16.35783831,1220.620086
6.5850,172.2185719,-16.50114193,1220.654316
6.5900,172.395145,-16.64863247,1220.690097
6.5950,172.5636104,-16.79978733,1220.727433
6.6000,172.7240165,-16.95459034,1220.76619
6.6050,172.8781395,-17.11236096,1220.806217
6.6100,173.0247826,-17.2733095,1220.847719
6.6150,173.1648365,-17.43744161,1220.890504
6.6200,173.2987042,-17.60391747,1220.934633
6.6250,173.4267211,-17.77352347,1220.979894
6.6300,173.5481439,-17.94626306,1221.026433
6.6350,173.6633006,-18.12168098,1221.074196
6.6400,173.7734926,-18.29980391,1221.122857
6.6450,173.8783219,-18.4809969,1221.172576
6.6500,173.9790285,-18.66651415,1221.222937
6.6550,174.0763406,-18.85506803,1221.273872
6.6600,174.1708861,-19.04696431,1221.325053
6.6650,174.2638416,-19.24445397,1221.376173
6.6700,174.3554966,-19.44674403,1221.427203
6.6750,174.4461427,-19.65295397,1221.47815
6.6800,174.5371599,-19.86251587,1221.528779
6.6850,174.6283676,-20.07599233,1221.579054
6.6900,174.7200657,-20.29335891,1221.628917
6.6950,174.8129317,-20.51299938,1221.678617
6.7000,174.9071073,-20.73528466,1221.728112
6.7050,175.0019572,-20.95959296,1221.777552
6.7100,175.0985438,-21.18615312,1221.826859
6.7150,175.1967874,-21.41410634,1221.876199
6.7200,175.2968776,-21.64312508,1221.925618
6.7250,175.3975885,-21.87242654,1221.975553
6.7300,175.4972388,-22.10172745,1222.026518
6.7350,175.5959842,-22.32992964,1222.078642
6.7400,175.6925519,-22.5570514,1222.132184
6.7450,175.7864828,-22.78147295,1222.187494
6.7500,175.8772944,-23.00250911,1222.244721
6.7550,175.9644473,-23.21896311,1222.304104
6.7600,176.0472442,-23.43120434,1222.365722
6.7650,176.1242458,-23.63815058,1222.42988
6.7700,176.195884,-23.83898221,1222.496657
6.7750,176.262093,-24.03405196,1222.565901
6.7800,176.3227406,-24.22273768,1222.637769
6.7850,176.3774081,-24.40552657,1222.712289
6.7900,176.4269555,-24.58225056,1222.78928
6.7950,176.4693147,-24.75226525,1222.869189
6.8000,176.5050125,-24.91559595,1222.951892
6.8050,176.5327176,-25.07268419,1223.037611
6.8100,176.5533342,-25.22367666,1223.126111
6.8150,176.5679933,-25.3672911,1223.217194
6.8200,176.5778578,-25.50433328,1223.31061
6.8250,176.5832347,-25.63378188,1223.406331
6.8300,176.5847929,-25.75614381,1223.504214
6.8350,176.5816654,-25.8712579,1223.604342
6.8400,176.5754196,-25.98023924,1223.706317
6.8450,176.5656478,-26.08251261,1223.810242
6.8500,176.5532256,-26.17999542,1223.91575
6.8550,176.5380597,-26.27220501,1224.022829
6.8600,176.5204121,-26.3608116,1224.131195
6.8650,176.5012264,-26.44535077,1224.240573
6.8700,176.4804815,-26.52761029,1224.350815
6.8750,176.4592796,-26.60932529,1224.461453
6.8800,176.438633,-26.69017186,1224.572104
6.8850,176.420161,-26.77136971,1224.682161
6.8900,176.4056973,-26.85311628,1224.791062
6.8950,176.3957266,-26.93680606,1224.898329
6.9000,176.391614,-27.02275415,1225.003699
6.9050,176.3945767,-27.11174983,1225.106777
6.9100,176.4053529,-27.20465218,1225.207201
6.9150,176.4256949,-27.30211469,1225.304534
6.9200,176.4544882,-27.40565807,1225.398914
6.9250,176.4924371,-27.51552595,1225.490211
6.9300,176.5387491,-27.6321387,1225.578705
6.9350,176.5937329,-27.75664056,1225.664187
6.9400,176.6556443,-27.8898895,1225.747083
6.9450,176.7248465,-28.03293913,1225.827155
6.9500,176.8003378,-28.1853838,1225.904689
6.9550,176.8815104,-28.34922769,1225.979562
6.9600,176.9667259,-28.52444181,1226.052165
6.9650,177.0553765,-28.71071882,1226.12244
6.9700,177.1465159,-28.9082426,1226.190484
6.9750,177.2402055,-29.11696845,1226.256167
6.9800,177.3354508,-29.33788861,1226.319589
6.9850,177.432163,-29.57023627,1226.38074
6.9900,177.5298926,-29.81275162,1226.439701
6.9950,177.6283843,-30.06656439,1226.496313
7.0000,177.7276143,-30.32968873,1226.550806
7.0050,177.8283296,-30.60200904,1226.603104
7.0100,177.9296411,-30.88246322,1226.653433
7.0150,178.0316976,-31.16880009,1226.701971
7.0200,178.1337392,-31.46133254,1226.748903
7.0250,178.2348737,-31.75827522,1226.794576
7.0300,178.3349403,-32.05771504,1226.839243
7.0350,178.4330157,-32.35981134,1226.883193
7.0400,178.5285633,-32.6636228,1226.92668
7.0450,178.6196733,-32.96785238,1226.970231
7.0500,178.7054621,-33.27166004,1227.014211
7.0550,178.7838718,-33.5742887,1227.059269
7.0600,178.8524908,-33.87407577,1227.10616
7.0650,178.910839,-34.17017764,1227.155238
7.0700,178.9563025,-34.46257893,1227.207062
7.0750,178.9885797,-34.7505272,1227.261955
7.0800,179.0060207,-35.03296565,1227.320408
7.0850,179.0082968,-35.30875267,1227.382665
7.0900,178.9933675,-35.57801021,1227.449401
7.0950,178.9632607,-35.84083669,1227.520061
7.1000,178.9164893,-36.09588178,1227.595235
7.1050,178.85477,-36.34233213,1227.674648
7.1100,178.7780282,-36.57920001,1227.758442
7.1150,178.686161,-36.80494094,1227.846618
7.1200,178.5792516,-37.01909217,1227.939203
7.1250,178.4588109,-37.22001133,1228.035919
7.1300,178.3263423,-37.40823462,1228.136468
7.1350,178.1840043,-37.58219739,1228.240439
7.1400,178.0316117,-37.74172716,1228.347846
7.1450,177.8708997,-37.88761195,1228.458391
7.1500,177.7025905,-38.01880949,1228.571902
7.1550,177.5280157,-38.13594767,1228.688163
7.1600,177.3471806,-38.23942114,1228.807145
7.1650,177.161491,-38.32918675,1228.928635
7.1700,176.9716045,-38.40638834,1229.052347
7.1750,176.7773588,-38.47141357,1229.178328
7.1800,176.5796504,-38.52464742,1229.30638
7.1850,176.3799515,-38.56593416,1229.436197
7.1900,176.1778738,-38.59736804,1229.567727
7.1950,175.9748741,-38.61932198,1229.70059
7.2000,175.7712525,-38.63331074,1229.834542
7.2050,175.5685137,-38.6407137,1229.969088
7.2100,175.3675692,-38.64137295,1230.103991
7.2150,175.1698761,-38.63704071,1230.238605
7.2200,174.9760085,-38.62849077,1230.372713
7.2250,174.7874193,-38.61577265,1230.505883
7.2300,174.6060193,-38.6012845,1230.637384
7.2350,174.4338936,-38.5848095,1230.766707
7.2400,174.2720403,-38.56768091,1230.893499
7.2450,174.1211271,-38.54963446,1231.017519
7.2500,173.9818082,-38.53186555,1231.138548
7.2550,173.8550579,-38.51342031,1231.256346
7.2600,173.7417279,-38.49539995,1231.370751
7.2650,173.6416141,-38.47745924,1231.481866
7.2700,173.5545989,-38.45972839,1231.589743
7.2750,173.4797474,-38.44288801,1231.694554
7.2800,173.4173439,-38.42696738,1231.796239
7.2850,173.3655557,-38.41123006,1231.895438
7.2900,173.3239483,-38.39717474,1231.992127
7.2950,173.2912257,-38.38438744,1232.086743
7.3000,173.2655716,-38.3739264,1232.179529
7.3050,173.2464402,-38.36568672,1232.270674
7.3100,173.2324264,-38.3606418,1232.360447
7.3150,173.2229606,-38.35962038,1232.448873
7.3200,173.2178304,-38.36191945,1232.53602
7.3250,173.2179524,-38.36871157,1232.621517
7.3300,173.2226453,-38.37986037,1232.705449
7.3350,173.2315152,-38.39524676,1232.78787
7.3400,173.2445751,-38.4147195,1232.868706
7.3450,173.2629789,-38.43852797,1232.947601
7.3500,173.2867124,-38.4665624,1233.024507
7.3550,173.3161021,-38.49820863,1233.099323
7.3600,173.3530206,-38.53419817,1233.171589
7.3650,173.3966508,-38.57453286,1233.241314
7.3700,173.4477629,-38.61856775,1233.308521
7.3750,173.5060181,-38.66575311,1233.373366
7.3800,173.5721563,-38.71630735,1233.435534
7.3850,173.644828,-38.77020491,1233.495386
7.3900,173.7238868,-38.82618707,1233.552939
7.3950,173.8085089,-38.88514766,1233.608554
7.4000,173.8986697,-38.94576309,1233.662112
7.4050,173.9933124,-39.00791611,1233.71387
7.4100,174.0908907,-39.07201353,1233.764127
7.4150,174.1909114,-39.13794148,1233.813184
7.4200,174.2921165,-39.20562456,1233.861268
7.4250,174.3939045,-39.27551796,1233.908578
7.4300,174.4946066,-39.34669715,1233.955513
7.4350,174.593439,-39.42068793,1234.00222
7.4400,174.689962,-39.49600001,1234.048915
7.4450,174.7833068,-39.57369699,1234.095667
7.4500,174.8730638,-39.65332582,1234.142702
7.4550,174.958892,-39.73440802,1234.19003
7.4600,175.0407033,-39.81642718,1234.237764
7.4650,175.1178677,-39.90041892,1234.286
7.4700,175.1914382,-39.98569569,1234.334516
7.4750,175.2608029,-40.07126424,1234.383423
7.4800,175.3264888,-40.15796158,1234.43263
7.4850,175.3874904,-40.24630489,1234.48225
7.4900,175.4447594,-40.33556986,1234.532171
7.4950,175.4986151,-40.42608249,1234.582201
7.5000,175.5487402,-40.51726166,1234.632451
7.5050,175.5964231,-40.60834313,1234.682633
7.5100,175.6411663,-40.7008271,1234.732818
7.5150,175.6824536,-40.79371173,1234.783292
7.5200,175.7222712,-40.88671967,1234.833567
7.5250,175.7602809,-40.98039934,1234.883737
7.5300,175.7971113,-41.0736784,1234.933705
7.5350,175.8320783,-41.16620075,1234.983608
7.5400,175.8663709,-41.25786331,1235.033149
7.5450,175.8999069,-41.34878426,1235.082344
7.5500,175.9327852,-41.43907087,1235.131148
7.5550,175.9650513,-41.52884915,1235.179461
7.5600,175.9964307,-41.61829515,1235.227237
7.5650,176.0280911,-41.70644096,1235.274235
7.5700,176.0604611,-41.7954173,1235.320188
7.5750,176.0944167,-41.88430267,1235.364982
7.5800,176.1296239,-41.9727763,1235.408584
7.5850,176.167392,-42.06232628,1235.450579
7.5900,176.208644,-42.1525253,1235.490831
7.5950,176.2535751,-42.24297382,1235.529249
7.6000,176.3035811,-42.33419505,1235.565597
7.6050,176.3586567,-42.42530095,1235.599837
7.6100,176.4203969,-42.51674166,1235.631544
7.6150,176.4884075,-42.60818474,1235.660856
7.6200,176.5636867,-42.69962906,1235.687581
7.6250,176.6458914,-42.79120212,1235.711804
7.6300,176.7363237,-42.88336199,1235.73319
7.6350,176.8351002,-42.97462395,1235.751635
7.6400,176.9422887,-43.06605415,1235.767099
7.6450,177.0577971,-43.156679,1235.779676
7.6500,177.1815547,-43.24699958,1235.789363
7.6550,177.3136763,-43.33695771,1235.796057
7.6600,177.4529049,-43.42715104,1235.800105
7.6650,177.5982424,-43.5171271,1235.801795
7.6700,177.749501,-43.60732294,1235.80105
7.6750,177.9055381,-43.69775915,1235.798039
7.6800,178.0649045,-43.78754117,1235.793237
7.6850,178.228562,-43.87743851,1235.786316
7.6900,178.3947096,-43.96808643,1235.777718
7.6950,178.5616787,-44.05855621,1235.767717
7.7000,178.7285961,-44.14931279,1235.756572
7.7050,178.8942259,-44.2394035,1235.744585
7.7100,179.0582395,-44.32928954,1235.731818
7.7150,179.2201298,-44.41938543,1235.718241
7.7200,179.3788072,-44.50920933,1235.704086
7.7250,179.5333581,-44.59875199,1235.68953
7.7300,179.6835064,-44.68793036,1235.674595
7.7350,179.8288384,-44.77620006,1235.659426
7.7400,179.968001,-44.8645733,1235.644233
7.7450,180.1012911,-44.95094379,1235.629029
7.7500,180.2272528,-45.0363852,1235.614059
7.7550,180.3455889,-45.12085159,1235.599283
7.7600,180.4570558,-45.204738,1235.584532
7.7650,180.5615237,-45.2865616,1235.569744
7.7700,180.6582203,-45.36688456,1235.555094
7.7750,180.7480373,-45.44664844,1235.540427
7.7800,180.8312149,-45.52487834,1235.525595
7.7850,180.9079142,-45.60252744,1235.510515
7.7900,180.9782985,-45.67964313,1235.495152
7.7950,181.041829,-45.75477166,1235.47963
7.8000,181.0999496,-45.82880532,1235.463668
7.8050,181.1515677,-45.90130195,1235.447467
7.8100,181.1980105,-45.9721074,1235.430676
7.8150,181.2390123,-46.04116613,1235.41331
7.8200,181.2745827,-46.10846135,1235.395377
7.8250,181.3055126,-46.17378296,1235.376672
7.8300,181.3315036,-46.23658506,1235.357249
7.8350,181.3527633,-46.29821035,1235.337029
7.8400,181.369319,-46.3575972,1235.315998
7.8450,181.3809399,-46.41565634,1235.294235
7.8500,181.3882173,-46.47123368,1235.271482
7.8550,181.3920334,-46.52520641,1235.247706
7.8600,181.3930307,-46.57641283,1235.22267
7.8650,181.3908157,-46.62588727,1235.196484
7.8700,181.3864904,-46.67149352,1235.168978
7.8750,181.3794646,-46.71532634,1235.140217
7.8800,181.3707847,-46.75680201,1235.109913
7.8850,181.3605551,-46.79502479,1235.078105
7.8900,181.3490424,-46.83107383,1235.044731
7.8950,181.3359337,-46.86514964,1235.009822
7.9000,181.321875,-46.89680372,1234.97315
7.9050,181.3066743,-46.92775248,1234.934726
7.9100,181.2899411,-46.95620741,1234.894755
7.9150,181.2735285,-46.98420105,1234.852762
7.9200,181.256775,-47.01047238,1234.808823
7.9250,181.2405615,-47.03559578,1234.762773
7.9300,181.2242669,-47.05927421,1234.714677
7.9350,181.208763,-47.08205638,1234.664415
7.9400,181.1948298,-47.10345387,1234.611785
7.9450,181.1820967,-47.12407184,1234.556805
7.9500,181.1705352,-47.14401021,1234.499522
7.9550,181.1602826,-47.16385196,1234.439934
7.9600,181.1513063,-47.18263576,1234.378004
7.9650,181.1446452,-47.20132303,1234.313501
7.9700,181.1394884,-47.22001057,1234.24669
7.9750,181.1355998,-47.23874167,1234.177616
7.9800,181.1327835,-47.25851377,1234.106267
7.9850,181.1301915,-47.27782139,1234.032846
7.9900,181.128471,-47.29699481,1233.957221
7.9950,181.1277106,-47.31535348,1233.879482
8.0000,181.1284412,-47.33323814,1233.799398
8.0050,181.1299517,-47.35202985,1233.717157
8.0100,181.130778,-47.37020727,1233.633146
8.0150,181.1315584,-47.3880751,1233.547356
8.0200,181.1323244,-47.40501527,1233.459846
8.0250,181.1315643,-47.42254146,1233.370891
8.0300,181.1299323,-47.43900758,1233.280404
8.0350,181.1258508,-47.45499137,1233.188707
8.0400,181.1213129,-47.4707801,1233.095452
8.0450,181.1150481,-47.48594121,1233.000876
8.0500,181.1083603,-47.50087899,1232.904754
8.0550,181.1011743,-47.51463765,1232.807142
8.0600,181.0939299,-47.52779704,1232.707921
8.0650,181.0871751,-47.54091437,1232.60696
8.0700,181.0816608,-47.55361708,1232.50415
8.0750,181.0772885,-47.5661388,1232.399438
8.0800,181.0748735,-47.57918038,1232.292683
8.0850,181.0740284,-47.59210171,1232.184006
8.0900,181.0755986,-47.60457717,1232.07309
8.0950,181.0808257,-47.61880935,1231.959706
8.1000,181.0890306,-47.63359669,1231.844011
8.1050,181.1004319,-47.64963812,1231.725851
8.1100,181.1154526,-47.66708137,1231.605246
8.1150,181.1335994,-47.68509206,1231.482341
8.1200,181.1549495,-47.70470467,1231.357079
8.1250,181.1794165,-47.72544129,1231.229495
8.1300,181.2068276,-47.74680033,1231.099664
8.1350,181.2365004,-47.76828468,1230.96785
8.1400,181.2673121,-47.78939281,1230.834305
8.1450,181.299917,-47.80991132,1230.698903
8.1500,181.3338164,-47.82974734,1230.561956
8.1550,181.3668863,-47.84841098,1230.423887
8.1600,181.399526,-47.86616692,1230.284781
8.1650,181.4312497,-47.88282312,1230.144681
8.1700,181.4603275,-47.89833012,1230.004103
8.1750,181.4860635,-47.91199723,1229.863231
8.1800,181.507896,-47.92414966,1229.72242
8.1850,181.5253185,-47.93454879,1229.581656
8.1900,181.5375736,-47.94254778,1229.441242
8.1950,181.5446336,-47.94836404,1229.301258
8.2000,181.5454762,-47.95189998,1229.162017
8.2050,181.5410792,-47.95183883,1229.023426
8.2100,181.5310877,-47.94899068,1228.885479
8.2150,181.5141382,-47.9427656,1228.748618
8.2200,181.4908976,-47.93334771,1228.612779
8.2250,181.4601437,-47.920112,1228.478283
8.2300,181.4232491,-47.9031482,1228.344846
8.2350,181.3786261,-47.88284914,1228.212902
8.2400,181.3267066,-47.85790238,1228.082474
8.2450,181.2675166,-47.82960721,1227.953707
8.2500,181.200945,-47.79623493,1227.826599
8.2550,181.126613,-47.75713427,1227.701263
8.2600,181.0457695,-47.71310489,1227.57754
8.2650,180.9575812,-47.6636706,1227.455666
8.2700,180.8621862,-47.60783061,1227.335653
8.2750,180.7602779,-47.54610589,1227.217474
8.2800,180.6521156,-47.47756549,1227.101093
8.2850,180.5375949,-47.40349587,1226.986526
8.2900,180.4173299,-47.32356962,1226.87366
8.2950,180.2902373,-47.23771748,1226.762709
8.3000,180.1571869,-47.14617909,1226.653609
8.3050,180.0173691,-47.04891474,1226.546481
8.3100,179.8726624,-46.94657683,1226.440921
8.3150,179.7229102,-46.83851093,1226.33701
8.3200,179.5679694,-46.72605077,1226.234711
8.3250,179.4090838,-46.60833037,1226.133813
8.3300,179.2466868,-46.48653076,1226.034189
8.3350,179.0817898,-46.36172683,1225.935643
8.3400,178.9130707,-46.23264851,1225.838412
8.3450,178.7424862,-46.09965954,1225.742167
8.3500,178.5703665,-45.96320925,1225.646778
8.3550,178.3975234,-45.82369544,1225.552126
8.3600,178.2238759,-45.68154918,1225.458298
8.3650,178.0497128,-45.5366338,1225.365238
8.3700,177.8761582,-45.38816153,1225.272721
8.3750,177.7043976,-45.23632059,1225.180568
8.3800,177.5335898,-45.08099584,1225.088837
8.3850,177.3662062,-44.92112823,1224.997053
8.3900,177.2015717,-44.75811089,1224.905363
8.3950,177.0389338,-44.58923385,1224.813998
8.4000,176.8790516,-44.41619826,1224.722723
8.4050,176.7218793,-44.2382739,1224.631637
8.4100,176.5667889,-44.0553405,1224.540805
8.4150,176.4149697,-43.86813235,1224.449998
8.4200,176.2656226,-43.67614177,1224.359374
8.4250,176.1189597,-43.47985914,1224.268965
8.4300,175.9749036,-43.27931305,1224.178688
8.4350,175.8330061,-43.07522027,1224.088613
8.4400,175.6945537,-42.86817666,1223.998504
8.4450,175.5589584,-42.65753334,1223.908433
8.4500,175.4260158,-42.44525664,1223.818377
8.4550,175.2963566,-42.23069121,1223.728215
8.4600,175.1694661,-42.01598191,1223.638021
8.4650,175.0454189,-41.80014126,1223.547934
8.4700,174.9255127,-41.58456514,1223.457588
8.4750,174.8103717,-41.3697116,1223.366855
8.4800,174.700214,-41.15550275,1223.275628
8.4850,174.5943016,-40.94305619,1223.184184
8.4900,174.4931873,-40.7321348,1223.092356
8.4950,174.3973602,-40.52301777,1222.999976
8.5000,174.3079777,-40.31581562,1222.906923
8.5050,174.2230917,-40.1114531,1222.813469
8.5100,174.1430957,-39.91051585,1222.719665
8.5150,174.0676244,-39.71203925,1222.625542
8.5200,173.9954581,-39.51666987,1222.531321
8.5250,173.926131,-39.32388731,1222.437202
8.5300,173.8586206,-39.13422075,1222.343486
8.5350,173.7932916,-38.94696304,1222.250038
8.5400,173.7291132,-38.76208886,1222.157143
8.5450,173.6658759,-38.57890332,1222.064774
8.5500,173.6035058,-38.39777502,1221.973049
8.5550,173.5408905,-38.21918439,1221.882152
8.5600,173.4765053,-38.04207688,1221.79241
8.5650,173.4112019,-37.86664324,1221.703675
8.5700,173.3436526,-37.69386105,1221.616111
8.5750,173.2734837,-37.52254646,1221.529863
8.5800,173.2006804,-37.35351628,1221.44496
8.5850,173.1244574,-37.18613173,1221.361572
8.5900,173.0452335,-37.02066285,1221.279652
8.5950,172.963636,-36.85729301,1221.199009
8.6000,172.8782993,-36.69605542,1221.119883
8.6050,172.7901639,-36.53661227,1221.042142
8.6100,172.6983915,-36.3794372,1220.965934
8.6150,172.6030005,-36.22384713,1220.891198
8.6200,172.5051369,-36.06953707,1220.817693
8.6250,172.4048768,-35.91587135,1220.745536
8.6300,172.3010858,-35.76288998,1220.674886
8.6350,172.1950069,-35.60875167,1220.605603
8.6400,172.0871126,-35.4538469,1220.53763
8.6450,171.9778297,-35.29906942,1220.470818
8.6500,171.8671459,-35.14227492,1220.405285
8.6550,171.7557633,-34.98384342,1220.340878
8.6600,171.6440112,-34.82263367,1220.277469
8.6650,171.5325621,-34.65903173,1220.214917
8.6700,171.420528,-34.49366112,1220.153342
8.6750,171.3077121,-34.32603994,1220.092725
8.6800,171.1946335,-34.15616745,1220.03305
8.6850,171.0813768,-33.98406689,1219.974265
8.6900,170.9690361,-33.80965228,1219.916135
8.6950,170.8577958,-33.63396742,1219.858537
8.7000,170.7483738,-33.45595608,1219.801395
8.7050,170.6408105,-33.27617951,1219.744654
8.7100,170.534754,-33.09419208,1219.68849
8.7150,170.4318234,-32.90974106,1219.632591
8.7200,170.3318547,-32.72278112,1219.576992
8.7250,170.2331938,-32.53291686,1219.522021
8.7300,170.1378771,-32.34025742,1219.467337
8.7350,170.0459558,-32.14410681,1219.412925
8.7400,169.9566959,-31.9438374,1219.358968
8.7450,169.8699134,-31.74085352,1219.305452
8.7500,169.7856172,-31.53336871,1219.252447
8.7550,169.7041697,-31.32275951,1219.199918
8.7600,169.6249143,-31.10685565,1219.14807
8.7650,169.5477765,-30.88709109,1219.096846
8.7700,169.4713739,-30.66254681,1219.046564
8.7750,169.3953409,-30.43329799,1218.997322
8.7800,169.319877,-30.20043101,1218.949073
8.7850,169.2448801,-29.96356652,1218.90175
8.7900,169.1692997,-29.72205016,1218.855549
8.7950,169.092286,-29.47730432,1218.810637
8.8000,169.0131384,-29.22922733,1218.767092
8.8050,168.9321157,-28.97806904,1218.72486
8.8100,168.8486567,-28.72369836,1218.683985
8.8150,168.7614693,-28.46763346,1218.64464
8.8200,168.6714262,-28.20994231,1218.606607
8.8250,168.5777343,-27.95092283,1218.569927
8.8300,168.4807379,-27.69069495,1218.534566
8.8350,168.3796676,-27.42996189,1218.500675
8.8400,168.273836,-27.16887966,1218.468335
8.8450,168.1631491,-26.9069541,1218.437634
8.8500,168.0476397,-26.64367856,1218.40868
8.8550,167.9273012,-26.38000815,1218.381394
8.8600,167.8016589,-26.11545992,1218.355901
8.8650,167.6708986,-25.85045589,1218.332169
8.8700,167.5343539,-25.58346412,1218.310486
8.8750,167.3915452,-25.31497852,1218.290902
8.8800,167.2422677,-25.04502279,1218.273517
8.8850,167.0884911,-24.77323166,1218.258004
8.8900,166.9285123,-24.49977328,1218.244708
8.8950,166.7615489,-24.22526956,1218.233716
8.9000,166.5891975,-23.94989929,1218.224755
8.9050,166.4126837,-23.67238279,1218.217649
8.9100,166.231796,-23.39320346,1218.212418
8.9150,166.0461507,-23.11287888,1218.209026
8.9200,165.8547036,-22.83107853,1218.207802
8.9250,165.6587168,-22.5480648,1218.2084
8.9300,165.4579047,-22.2644342,1218.210834
8.9350,165.2517336,-21.9808267,1218.215123
8.9400,165.041694,-21.69652881,1218.221036
8.9450,164.8272536,-21.41168053,1218.22859
8.9500,164.6081903,-21.12693525,1218.237811
8.9550,164.3844953,-20.84136175,1218.24882
8.9600,164.1557904,-20.55566478,1218.261709
8.9650,163.9225241,-20.27036214,1218.276263
8.9700,163.685609,-19.98434872,1218.292426
8.9750,163.4452671,-19.69767635,1218.310205
8.9800,163.2014053,-19.41039206,1218.329589
8.9850,162.9540698,-19.12262857,1218.350627
8.9900,162.7018275,-18.83311602,1218.373735
8.9950,162.4460639,-18.54281826,1218.398494
9.0000,162.186083,-18.25197205,1218.425131
9.0050,161.923196,-17.96002547,1218.453421
9.0100,161.6573335,-17.6671274,1218.483364
9.0150,161.3863449,-17.37272177,1218.515449
9.0200,161.1113008,-17.07785731,1218.549448
9.0250,160.833246,-16.78303281,1218.58502
9.0300,160.5504034,-16.48913216,1218.622501
9.0350,160.2637192,-16.19504607,1218.661765
9.0400,159.9725852,-15.90195525,1218.702865
9.0450,159.6779533,-15.60966735,1218.745592
9.0500,159.3800257,-15.31748309,1218.790026
9.0550,159.077753,-15.02536648,1218.836401
9.0600,158.7724905,-14.73293289,1218.884508
9.0650,158.4644276,-14.43934974,1218.934338
9.0700,158.1547375,-14.14471927,1218.985667
9.0750,157.8437782,-13.84817598,1219.038576
9.0800,157.5308844,-13.54897028,1219.093164
9.0850,157.2175289,-13.24652599,1219.149277
9.0900,156.9037673,-12.94160256,1219.206801
9.0950,156.5886338,-12.63353666,1219.266042
9.1000,156.2723762,-12.32201312,1219.326915
9.1050,155.9553492,-12.00737083,1219.389377
9.1100,155.6368696,-11.68896298,1219.453633
9.1150,155.318938,-11.36585018,1219.519374
9.1200,155.0003777,-11.03817815,1219.586892
9.1250,154.6828207,-10.70564701,1219.655809
9.1300,154.364132,-10.36800898,1219.726703
9.1350,154.0460105,-10.0246553,1219.799303
9.1400,153.7268963,-9.676411449,1219.873912
9.1450,153.4072543,-9.324443131,1219.95024
9.1500,153.0861423,-8.968974331,1220.028423
9.1550,152.7640344,-8.60922242,1220.10861
9.1600,152.4410795,-8.246348014,1220.190659
9.1650,152.1160542,-7.87921472,1220.274948
9.1700,151.7902267,-7.508864435,1220.361116
9.1750,151.4631035,-7.13603251,1220.449232
9.1800,151.1344501,-6.760246109,1220.539333
9.1850,150.8043837,-6.382521769,1220.631334
9.1900,150.4731063,-6.001770661,1220.725405
9.1950,150.1412223,-5.617807601,1220.82145
9.2000,149.8077003,-5.230177683,1220.919816
9.2050,149.4709988,-4.839546405,1221.02076
9.2100,149.1319019,-4.444661914,1221.124351
9.2150,148.7906942,-4.045900377,1221.230517
9.2200,148.4486842,-3.643029305,1221.338939
9.2250,148.1052907,-3.235496284,1221.449828
9.2300,147.7615231,-2.822689755,1221.563174
9.2350,147.416999,-2.404568995,1221.679073
9.2400,147.0698467,-1.981932352,1221.79787
9.2450,146.7206327,-1.554683659,1221.919525
9.2500,146.3708118,-1.122074144,1222.043832
9.2550,146.018826,-0.6858353876,1222.170909
9.2600,145.6658707,-0.2462392638,1222.300376
9.2650,145.3106823,0.1974790434,1222.432842
9.2700,144.9535104,0.6443210883,1222.568119
9.2750,144.5949797,1.09434708,1222.706028
9.2800,144.2355206,1.547550052,1222.846538
9.2850,143.8739222,2.00426822,1222.990007
9.2900,143.5118301,2.462554899,1223.135758
9.2950,143.1482116,2.92327219,1223.284224
9.3000,142.7825139,3.386380585,1223.435495
9.3050,142.4140313,3.851182081,1223.589594
9.3100,142.0436574,4.317865175,1223.746367
9.3150,141.6720667,4.785959702,1223.905507
9.3200,141.2990488,5.255918737,1224.067141
9.3250,140.9251697,5.727346771,1224.231066
9.3300,140.5511692,6.20091653,1224.397117
9.3350,140.1767852,6.675064314,1224.565127
9.3400,139.8027817,7.150410628,1224.734938
9.3450,139.4283435,7.627935464,1224.907032
9.3500,139.0545537,8.107625829,1225.081053
9.3550,138.6824746,8.589647574,1225.256791
9.3600,138.3117346,9.073793512,1225.434264
9.3650,137.9427159,9.558883597,1225.613088
9.3700,137.5760671,10.04373222,1225.792832
9.3750,137.2115281,10.52901207,1225.973585
9.3800,136.8484453,11.01366762,1226.155401
9.3850,136.4866501,11.49674308,1226.337972
9.3900,136.1263084,11.97832043,1226.521362
9.3950,135.7688663,12.4581713,1226.704955
9.4000,135.4136356,12.93533877,1226.888782
9.4050,135.0601341,13.40983849,1227.072931
9.4100,134.7087577,13.88197941,1227.257374
9.4150,134.3577255,14.35120945,1227.442475
9.4200,134.0082994,14.81864853,1227.628086
9.4250,133.6590877,15.28354809,1227.814484
9.4300,133.311953,15.74663061,1228.001277
9.4350,132.9660815,16.2068558,1228.188426
9.4400,132.6231839,16.66564647,1228.375672
9.4450,132.2824836,17.1237076,1228.563417
9.4500,131.9436636,17.58012952,1228.751576
9.4550,131.6050186,18.0344739,1228.940443
9.4600,131.2667351,18.48612734,1229.129793
9.4650,130.9281722,18.93443659,1229.319667
9.4700,130.5882502,19.37928947,1229.510325
9.4750,130.2470737,19.82123336,1229.70184
9.4800,129.9044786,20.25990071,1229.894186
9.4850,129.558925,20.69573237,1230.087903
9.4900,129.2105488,21.12943197,1230.283085
9.4950,128.8594976,21.56171143,1230.48
9.5000,128.5051016,21.99299465,1230.678921
9.5050,128.1490872,22.42420639,1230.879632
9.5100,127.7907354,22.8542495,1231.082092
9.5150,127.4295987,23.28396902,1231.286715
9.5200,127.0658202,23.71341434,1231.493563
9.5250,126.6983838,24.14223741,1231.702876
9.5300,126.3277981,24.57136736,1231.914769
9.5350,125.9564718,25.00129004,1232.128648
9.5400,125.5856859,25.43186057,1232.344167
9.5450,125.2154601,25.86398155,1232.56152
9.5500,124.845424,26.29684663,1232.780712
9.5550,124.4779138,26.73080512,1233.001146
9.5600,124.1138933,27.1651774,1233.222378
9.5650,123.75421,27.5997659,1233.444068
9.5700,123.3999679,28.03297344,1233.665441
9.5750,123.0517965,28.46418056,1233.886153
9.5800,122.7094668,28.89139239,1234.105645
9.5850,122.3747309,29.31234745,1234.322692
9.5900,122.0463947,29.7268678,1234.537573
9.5950,121.7252725,30.13361085,1234.749559
9.6000,121.4108976,30.53104954,1234.958328
9.6050,121.1028939,30.91805591,1235.163619
9.6100,120.8003562,31.29290758,1235.365165
9.6150,120.5030759,31.65492884,1235.562736
9.6200,120.2109379,32.00469395,1235.756426
9.6250,119.9230125,32.34228744,1235.94647
9.6300,119.6388704,32.668184,1236.133119
9.6350,119.3574086,32.98347271,1236.316926
9.6400,119.0793559,33.28877506,1236.49782
9.6450,118.804416,33.5839522,1236.67572
9.6500,118.5309908,33.86959897,1236.851229
9.6550,118.2593991,34.14695928,1237.024552
9.6600,117.9889802,34.4158316,1237.19578
9.6650,117.7190325,34.67791704,1237.365653
9.6700,117.4484906,34.93456255,1237.534824
9.6750,117.1777806,35.18610295,1237.703334
9.6800,116.9072928,35.434114,1237.871468
9.6850,116.6360548,35.67815743,1238.039478
9.6900,116.3643064,35.91956041,1238.207615
9.6950,116.0923136,36.15860394,1238.376009
9.7000,115.8200195,36.39628869,1238.544953
9.7050,115.5466334,36.63286291,1238.714735
9.7100,115.2726032,36.8678818,1238.88507
9.7150,114.9977958,37.10296018,1239.056457
9.7200,114.7212444,37.33717025,1239.228938
9.7250,114.4432854,37.57114951,1239.402522
9.7300,114.1621931,37.80458955,1239.577656
9.7350,113.8771247,38.03864655,1239.754998
9.7400,113.5869067,38.27393535,1239.93515
9.7450,113.291335,38.51076989,1240.118329
9.7500,112.9900387,38.75042805,1240.305023
9.7550,112.6848678,38.99354679,1240.494907
9.7600,112.3750747,39.24211242,1240.688833
9.7650,112.060364,39.49561355,1240.886772
9.7700,111.7409151,39.75466268,1241.088856
9.7750,111.4155916,40.01994093,1241.29571
9.7800,111.0840934,40.29115192,1241.507431
9.7850,110.7457059,40.56875602,1241.724384
9.7900,110.4003721,40.8519541,1241.946459
9.7950,110.0483564,41.13986847,1242.173257
9.8000,109.6896169,41.43209376,1242.404725
9.8050,109.3218603,41.72776667,1242.641384
9.8100,108.9460352,42.02700193,1242.883016
9.8150,108.5616362,42.33038099,1243.13
9.8200,108.1686337,42.637992,1243.382416
9.8250,107.7684033,42.94907714,1243.639568
9.8300,107.3599308,43.26193055,1243.901355
9.8350,106.9422779,43.57717908,1244.16833
9.8400,106.5150621,43.89463409,1244.440606
9.8450,106.0797042,44.21397955,1244.717644
9.8500,105.6364631,44.53490702,1244.9992
9.8550,105.1854305,44.85752148,1245.285282
9.8600,104.7264349,45.18315205,1245.576457
9.8650,104.2614606,45.51164866,1245.871964
9.8700,103.7897959,45.8431614,1246.172111
9.8750,103.312139,46.17783999,1246.476724
9.8800,102.8303055,46.51620223,1246.785403
9.8850,102.3440514,46.85749599,1247.09806
9.8900,101.8556606,47.20225142,1247.414038
9.8950,101.3645085,47.54865785,1247.732993
9.9000,100.8717562,47.89769253,1248.054801
9.9050,100.3791948,48.24788145,1248.37837
9.9100,99.88725296,48.6000934,1248.703743
9.9150,99.39723074,48.95357154,1249.030294
9.9200,98.908863,49.30697831,1249.357557
9.9250,98.42381617,49.66092721,1249.685177
9.9300,97.94200343,50.01454803,1250.012815
9.9350,97.46530324,50.3678327,1250.339796
9.9400,96.99325126,50.71979026,1250.665847
9.9450,96.52704132,51.07113868,1250.990779
9.9500,96.06759343,51.41998385,1251.313587
9.9550,95.61591913,51.76686343,1251.633954
9.9600,95.17305725,52.11197871,1251.951569
9.9650,94.74047049,52.4552691,1252.265745
9.9700,94.31837559,52.79586554,1252.57607
9.9750,93.90601487,53.13237194,1252.882202
9.9800,93.50476034,53.46461236,1253.183504
9.9850,93.11488684,53.79328464,1253.479992
9.9900,92.73707632,54.11694252,1253.770878
9.9950,92.37101429,54.43663442,1254.056545
10.0000,92.0169766,54.75103996,1254.336381
10.0050,91.67721039,55.05995142,1254.609372
10.0100,91.35085408,55.36445968,1254.876166
10.0150,91.03902448,55.66285934,1255.135629
10.0200,90.74149041,55.95578653,1255.388073
10.0250,90.45827869,56.24238915,1255.63316
10.0300,90.18945409,56.52339551,1255.871044
10.0350,89.93408764,56.7978773,1256.101693
10.0400,89.69256915,57.06627519,1256.325122
10.0450,89.46398077,57.32760333,1256.541219
10.0500,89.24777313,57.5826324,1256.750472
10.0550,89.04196648,57.83155014,1256.953614
10.0600,88.84551896,58.07415215,1257.151012
10.0650,88.65858251,58.31088031,1257.342762
10.0700,88.48107028,58.542638,1257.529197
10.0750,88.31151435,58.76878288,1257.710646
10.0800,88.14934079,58.99054049,1257.887768
10.0850,87.99406397,59.20750724,1258.060638
10.0900,87.84446517,59.42015803,1258.229874
10.0950,87.70000682,59.62973436,1258.39623
10.1000,87.56012321,59.83635678,1258.559959
10.1050,87.42372998,60.04082748,1258.721867
10.1100,87.2893059,60.2429846,1258.8825
10.1150,87.15691493,60.4424087,1259.041697
10.1200,87.02549924,60.63926125,1259.199926
10.1250,86.89128179,60.83349313,1259.358752
10.1300,86.75467172,61.02654694,1259.518467
10.1350,86.61440134,61.21827302,1259.679592
10.1400,86.46978465,61.4089335,1259.842464
10.1450,86.31897309,61.59978478,1260.008352
10.1500,86.1607569,61.79101767,1260.177867
10.1550,85.99445383,61.98281027,1260.351359
10.1600,85.82134268,62.17572191,1260.528495
10.1650,85.63842178,62.36851834,1260.710035
10.1700,85.44724745,62.5636827,1260.896324
10.1750,85.24639362,62.76016622,1261.087513
10.1800,85.03433757,62.95776958,1261.284216
10.1850,84.81049158,63.15724128,1261.486847
10.1900,84.57356127,63.35627047,1261.695064
10.1950,84.32496907,63.55720021,1261.909231
10.2000,84.0652009,63.75828563,1262.128486
10.2050,83.79370174,63.96110412,1262.353663
10.2100,83.51182155,64.16490407,1262.584018
10.2150,83.21934636,64.36970536,1262.819619
10.2200,82.91828364,64.57650723,1263.060069
10.2250,82.60771665,64.78463254,1263.3055
10.2300,82.28969413,64.99328082,1263.554773
10.2350,81.96436019,65.20296803,1263.808009
10.2400,81.63323758,65.41413431,1264.06484
10.2450,81.29907603,65.62633055,1264.323856
10.2500,80.9624318,65.84025298,1264.585127
10.2550,80.62342934,66.05521176,1264.848314
10.2600,80.2839479,66.27189835,1265.112836
10.2650,79.94366861,66.48852837,1265.378083
10.2700,79.60337582,66.70619563,1265.644154
10.2750,79.26663924,66.92554409,1265.909781
10.2800,78.93413539,67.14612459,1266.174402
10.2850,78.60671762,67.36746605,1266.437455
10.2900,78.28563759,67.58871199,1266.697981
10.2950,77.97249778,67.80878529,1266.954754
10.3000,77.66844714,68.02762058,1267.207157
10.3050,77.37302454,68.24533475,1267.455419
10.3100,77.08769645,68.45893729,1267.697557
10.3150,76.81347169,68.66884466,1267.933263
10.3200,76.55030837,68.87365226,1268.161873
10.3250,76.29816597,69.07262698,1268.383058
10.3300,76.05815882,69.26530235,1268.596044
10.3350,75.83130355,69.4523371,1268.800642
10.3400,75.61656808,69.63113269,1268.996084
10.3450,75.41468264,69.80367354,1269.182866
10.3500,75.22621962,69.96988543,1269.360614
10.3550,75.05199211,70.12977915,1269.529005
10.3600,74.89260395,70.28252093,1269.687356
10.3650,74.74709774,70.42972918,1269.836719
10.3700,74.6150193,70.56990156,1269.976653
10.3750,74.49702801,70.70392878,1270.107279
10.3800,74.3919562,70.83159484,1270.229007
10.3850,74.29930657,70.95354797,1270.342389
10.3900,74.21789514,71.07060787,1270.448361
10.3950,74.1463407,71.18192712,1270.547179
10.4000,74.08367269,71.28856607,1270.639786
10.4050,74.02919966,71.38910992,1270.725903
10.4100,73.9816382,71.48496869,1270.806703
10.4150,73.94015895,71.57662528,1270.882785
10.4200,73.9027586,71.66363046,1270.954945
10.4250,73.87089918,71.74826666,1271.023536
10.4300,73.84221921,71.8295647,1271.089308
10.4350,73.81530997,71.90766001,1271.152975
10.4400,73.78963712,71.98450152,1271.21565
10.4450,73.76469072,72.057868,1271.276693
10.4500,73.74025321,72.12900386,1271.336704
10.4550,73.71495892,72.19826072,1271.396575
10.4600,73.68612842,72.26485978,1271.457144
10.4650,73.65440692,72.33066322,1271.519065
10.4700,73.61768047,72.39395065,1271.582513
10.4750,73.57617305,72.45600924,1271.648028
10.4800,73.53045343,72.51631199,1271.715029
10.4850,73.48006083,72.57530899,1271.78396
10.4900,73.42501402,72.6343171,1271.855414
10.4950,73.36401474,72.69315304,1271.9299
10.5000,73.29744905,72.75111763,1272.006906
10.5050,73.22493137,72.80856565,1272.086783
10.5100,73.14707721,72.8647978,1272.168917
10.5150,73.06331867,72.92108801,1272.254137
10.5200,72.97345436,72.97621457,1272.342003
10.5250,72.878118,73.03013903,1272.432174
10.5300,72.77660218,73.08468313,1272.525762
10.5350,72.6696413,73.13981152,1272.622439
10.5400,72.55726404,73.19392667,1272.721411
10.5450,72.43750855,73.2487183,1272.824303
10.5500,72.31079271,73.30382429,1272.930746
10.5550,72.17854632,73.35982332,1273.040274
10.5600,72.03886675,73.41679839,1273.153845
10.5650,71.89302694,73.47525651,1273.271038
10.5700,71.74233637,73.53621749,1273.39173
10.5750,71.5863769,73.59922225,1273.515844
10.5800,71.42579286,73.66435544,1273.643094
10.5850,71.26172064,73.7317347,1273.772988
10.5900,71.09339401,73.80151312,1273.905905
10.5950,70.92150058,73.8733008,1274.041333
10.6000,70.74615751,73.94650957,1274.178944
10.6050,70.56935805,74.02181971,1274.318039
10.6100,70.39064282,74.09933957,1274.458815
10.6150,70.20938517,74.17682828,1274.600564
10.6200,70.02723283,74.25500096,1274.742756
10.6250,69.84418972,74.33478651,1274.885814
10.6300,69.6610555,74.41458054,1275.028608
10.6350,69.47820817,74.49468738,1275.171097
10.6400,69.29782001,74.57620979,1275.312743
10.6450,69.11906636,74.65777483,1275.45327
10.6500,68.94347713,74.73932456,1275.591988
10.6550,68.77172872,74.8212144,1275.728675
10.6600,68.60408409,74.90400071,1275.863446
10.6650,68.44047706,74.98736032,1275.996187
10.6700,68.28067189,75.07123179,1276.126994
10.6750,68.12493268,75.15508313,1276.25538
10.6800,67.97300114,75.23855075,1276.381371
10.6850,67.82435174,75.32245444,1276.505524
10.6900,67.67980825,75.40484097,1276.626583
10.6950,67.53868032,75.48504189,1276.744503
10.7000,67.40021065,75.56241748,1276.859429
10.7050,67.26565022,75.63866013,1276.971443
10.7100,67.1352843,75.71258165,1277.08
10.7150,67.00783135,75.78315121,1277.185202
10.7200,66.88340756,75.84979752,1277.286721
10.7250,66.76138586,75.91111995,1277.384251
10.7300,66.64311449,75.96910906,1277.477951
10.7350,66.52786016,76.02265141,1277.567714
10.7400,66.41598984,76.07046365,1277.652776
10.7450,66.30822247,76.11507538,1277.733772
10.7500,66.20468687,76.1553424,1277.810214
10.7550,66.105811,76.19238634,1277.882333
10.7600,66.01205407,76.22696269,1277.950274
10.7650,65.9231998,76.25798507,1278.013537
10.7700,65.8407227,76.28807038,1278.072625
10.7750,65.7650316,76.31595549,1278.126653
10.7800,65.69616492,76.34343729,1278.176447
10.7850,65.63492956,76.37087844,1278.221823
10.7900,65.58140905,76.39749203,1278.262289
10.7950,65.53554083,76.4221125,1278.297262
10.8000,65.497536,76.44556073,1278.327034
10.8050,65.466002,76.46679222,1278.351762
10.8100,65.44112623,76.48476248,1278.370767
10.8150,65.42230531,76.49881231,1278.38406
10.8200,65.40953014,76.50862745,1278.391449
10.8250,65.40331256,76.51492213,1278.392986
10.8300,65.40323735,76.5156292,1278.387894
10.8350,65.41007006,76.51172618,1278.376279
10.8400,65.42471359,76.50494605,1278.358483
10.8450,65.44673107,76.49368989,1278.333997
10.8500,65.47560445,76.47772362,1278.302949
10.8550,65.51132486,76.45864398,1278.266106
10.8600,65.55570457,76.43585851,1278.222234
10.8650,65.60886809,76.41081864,1278.171919
10.8700,65.67025426,76.38211012,1278.114753
10.8750,65.73981146,76.35067998,1278.051208
10.8800,65.81756936,76.31745574,1277.981703
10.8850,65.90407546,76.28170753,1277.905594
10.8900,66.00004241,76.24349239,1277.82257
10.8950,66.10576252,76.20387478,1277.733062
10.9000,66.22128891,76.16254922,1277.636832
10.9050,66.34581107,76.11759107,1277.533473
10.9100,66.48075408,76.06975105,1277.42272
10.9150,66.62683678,76.01912175,1277.304284
10.9200,66.78337363,75.96439332,1277.177916
10.9250,66.95077532,75.90469806,1277.043051
10.9300,67.12830844,75.84048673,1276.900316
10.9350,67.31705119,75.76983314,1276.748311
10.9400,67.51530949,75.69125226,1276.587278
10.9450,67.72409301,75.60490565,1276.416855
10.9500,67.94167094,75.5086346,1276.236946
10.9550,68.16786522,75.40294254,1276.047914
10.9600,68.40193373,75.28735247,1275.849947
10.9650,68.6442453,75.16168563,1275.642868
10.9700,68.89502084,75.02639628,1275.42684
10.9750,69.1530337,74.88063243,1275.202192
10.9800,69.41943829,74.72619323,1274.969224
10.9850,69.69375713,74.56158672,1274.727595
10.9900,69.97541668,74.38766016,1274.477959
10.9950,70.26450465,74.20519376,1274.220774
11.0000,70.5610829,74.01499068,1273.956368
11.0050,70.86390283,73.81606336,1273.68502
11.0100,71.17224218,73.60996723,1273.407778
11.0150,71.48647346,73.39634988,1273.124443
11.0200,71.8064845,73.17587852,1272.835376
11.0250,72.13171228,72.94920212,1272.541183
11.0300,72.46095836,72.71541807,1272.242173
11.0350,72.7958574,72.475596,1271.93809
11.0400,73.13525949,72.22980821,1271.629553
11.0450,73.47779914,71.97635721,1271.316602
11.0500,73.82262761,71.71609923,1271.000018
11.0550,74.1711667,71.45016561,1270.679698
11.0600,74.52351346,71.17867084,1270.355762
11.0650,74.88045352,70.90319685,1270.02861
11.0700,75.24078175,70.6220181,1269.698089
11.0750,75.60498108,70.33720339,1269.364958
11.0800,75.97216834,70.04872443,1269.029631
11.0850,76.34249361,69.75585338,1268.691817
11.0900,76.71665451,69.46101405,1268.352258
11.0950,77.09460402,69.16488035,1268.011352
11.1000,77.47553593,68.86714731,1267.669329
11.1050,77.86034264,68.56792132,1267.325888
11.1100,78.24838358,68.26901695,1266.982169
11.1150,78.63929699,67.96919315,1266.637758
11.1200,79.03246534,67.66847688,1266.293043
11.1250,79.42699329,67.36737584,1265.948631
11.1300,79.82356798,67.06635243,1265.604511
11.1350,80.22038474,66.76404129,1265.260847
11.1400,80.61612354,66.46001677,1264.918054
11.1450,81.01168996,66.15534277,1264.57622
11.1500,81.40762435,65.85028025,1264.235241
11.1550,81.8027458,65.54448121,1263.895515
11.1600,82.1966498,65.23777618,1263.557142
11.1650,82.58858247,64.9294967,1263.220236
11.1700,82.97949817,64.62080915,1262.884837
11.1750,83.36992724,64.31152257,1262.550657
11.1800,83.75860883,64.00109201,1262.21804
11.1850,84.14581221,63.68992609,1261.887039
11.1900,84.53097114,63.3784406,1261.558075
11.1950,84.91460929,63.0665424,1261.23083
11.2000,85.29709582,62.75334334,1260.904863
11.2050,85.67818806,62.44037519,1260.580823
11.2100,86.05784807,62.12605654,1260.258083
11.2150,86.43590467,61.81204726,1259.937396
11.2200,86.81331316,61.49836342,1259.618364
11.2250,87.18960579,61.18419618,1259.300819
11.2300,87.56471116,60.86864877,1258.984432
11.2350,87.93813312,60.5529717,1258.669873
11.2400,88.31022689,60.23768321,1258.357171
11.2450,88.68199451,59.92267111,1258.045844
11.2500,89.05293046,59.60819192,1257.736187
11.2550,89.42349466,59.29511747,1257.428326
11.2600,89.79442533,58.9829353,1257.121741
11.2650,90.16539725,58.67199846,1256.816672
11.2700,90.5370433,58.36312794,1256.513158
11.2750,90.91049526,58.05827168,1256.211427
11.2800,91.28437208,57.75615324,1255.911549
11.2850,91.65992339,57.45807338,1255.613452
11.2900,92.03736133,57.16340114,1255.316831
11.2950,92.41576226,56.87251579,1255.022111
11.3000,92.79489972,56.58351633,1254.728737
11.3050,93.17449132,56.2965484,1254.436811
11.3100,93.55489066,56.01034599,1254.145702
11.3150,93.93473582,55.72480693,1253.855891
11.3200,94.31393391,55.44064233,1253.567678
11.3250,94.69325125,55.15597151,1253.280007
11.3300,95.07168852,54.8713109,1252.993443
11.3350,95.44967441,54.5871706,1252.708037
11.3400,95.82860002,54.30350783,1252.423304
11.3450,96.20846964,54.02134886,1252.139659
11.3500,96.59094018,53.74039566,1251.856337
11.3550,96.97440923,53.4572341,1251.572743
11.3600,97.35933215,53.17304896,1251.289198
11.3650,97.7461689,52.88735519,1251.005355
11.3700,98.13506437,52.59957701,1250.720993
11.3750,98.5257912,52.30908609,1250.436002
11.3800,98.91927891,52.01423767,1250.149536
11.3850,99.31607147,51.71573663,1249.861626
11.3900,99.71531306,51.41288817,1249.572398
11.3950,100.1168485,51.10462596,1249.281609
11.4000,100.5212138,50.79397775,1248.990123
11.4050,100.9306975,50.4805392,1248.697006
11.4100,101.3453765,50.16521395,1248.402543
11.4150,101.7657736,49.84804764,1248.106631
11.4200,102.1919707,49.52973183,1247.809471
11.4250,102.6238626,49.20854926,1247.510544
11.4300,103.0613684,48.88452352,1247.209871
11.4350,103.5048799,48.55751872,1246.907372
11.4400,103.9547773,48.22720777,1246.602888
11.4450,104.4106761,47.8934595,1246.296517
11.4500,104.8732467,47.55621475,1245.988048
11.4550,105.3416828,47.21407145,1245.67739
11.4600,105.8156893,46.86672793,1245.364615
11.4650,106.2955321,46.51521378,1245.050008
11.4700,106.7811607,46.15923675,1244.733575
11.4750,107.2718547,45.79840742,1244.415453
11.4800,107.7689854,45.43371023,1244.095552
11.4850,108.2742254,45.06657942,1243.773844
11.4900,108.7882741,44.69681209,1243.450046
11.4950,109.3105853,44.32428609,1243.124384
11.5000,109.8411703,43.9494046,1242.797037
11.5050,110.3799304,43.57157948,1242.467916
11.5100,110.9265237,43.19129873,1242.137303
11.5150,111.4805579,42.80785153,1241.80514
11.5200,112.0409971,42.42174427,1241.471982
11.5250,112.6078599,42.03199024,1241.137612
11.5300,113.1808488,41.63988339,1240.80261
11.5350,113.7589258,41.24473836,1240.467129
11.5400,114.3418704,40.84640919,1240.131244
11.5450,114.9302894,40.44554382,1239.795095
11.5500,115.5254574,40.04342629,1239.458719
11.5550,116.1260956,39.63790073,1239.121866
11.5600,116.7321278,39.23024676,1238.78502
11.5650,117.3434814,38.82087433,1238.448293
11.5700,117.9584514,38.40884337,1238.111988
11.5750,118.5765083,37.99334717,1237.776049
11.5800,119.1983142,37.57414506,1237.440231
11.5850,119.8225752,37.15136658,1237.104986
11.5900,120.4477156,36.72562968,1236.771003
11.5950,121.0734365,36.29785432,1236.43869
11.6000,121.6991352,35.86835208,1236.108306
11.6050,122.3257941,35.43796814,1235.779806
11.6100,122.9520716,35.00705303,1235.453757
11.6150,123.5790088,34.57382098,1235.129327
11.6200,124.2074312,34.13916508,1234.806606
11.6250,124.8358151,33.70317257,1234.486123
11.6300,125.4655797,33.26504759,1234.167246
11.6350,126.0940337,32.82421531,1233.850588
11.6400,126.7206972,32.38024224,1233.536028
11.6450,127.3453762,31.93282384,1233.223513
11.6500,127.9666146,31.48284551,1232.913705
11.6550,128.5847005,31.03197784,1232.606962
11.6600,129.1980881,30.57969205,1232.303506
11.6650,129.8070483,30.12615349,1232.003316
11.6700,130.4103239,29.67347396,1231.707332
11.6750,131.0086168,29.22145673,1231.415292
11.6800,131.6016583,28.77251536,1231.127855
11.6850,132.1897527,28.32653335,1230.844912
11.6900,132.7722644,27.88269603,1230.566439
11.6950,133.3509095,27.44320283,1230.292519
11.7000,133.9256953,27.00620077,1230.022664
11.7050,134.4961975,26.57290645,1229.757383
11.7100,135.0631533,26.14267053,1229.496229
11.7150,135.6265665,25.71550897,1229.239202
11.7200,136.187119,25.29161439,1228.98618
11.7250,136.7452536,24.87101609,1228.736988
11.7300,137.3004469,24.45350728,1228.491624
11.7350,137.8537943,24.03907663,1228.249763
11.7400,138.4044444,23.62741508,1228.011478
11.7450,138.9524141,23.21782105,1227.776549
11.7500,139.498549,22.81106355,1227.544923
11.7550,140.04259,22.40591841,1227.316233
11.7600,140.5858488,22.00409077,1227.090527
11.7650,141.129279,21.60555919,1226.867522
11.7700,141.6724351,21.20930259,1226.647055
11.7750,142.2164212,20.81708939,1226.429267
11.7800,142.7625856,20.42822877,1226.213701
11.7850,143.3096003,20.04316854,1226.000783
11.7900,143.8574101,19.66112435,1225.790291
11.7950,144.406506,19.28290585,1225.582359
11.8000,144.9571935,18.90802503,1225.376769
11.8050,145.5101041,18.53697532,1225.173514
11.8100,146.0643018,18.17064721,1224.973111
11.8150,146.6207154,17.80892015,1224.775281
11.8200,147.1797468,17.45050301,1224.579657
11.8250,147.7422661,17.09731061,1224.386526
11.8300,148.3085838,16.74738998,1224.195371
11.8350,148.8779339,16.40078748,1224.006421
11.8400,149.4498684,16.05709998,1223.819676
11.8450,150.0228177,15.71521088,1223.635189
11.8500,150.5961944,15.37458755,1223.452948
11.8550,151.1706548,15.0348853,1223.272828
11.8600,151.7457759,14.69610611,1223.09483
11.8650,152.3213052,14.3573686,1222.918884
11.8700,152.8976297,14.01830363,1222.744801
11.8750,153.4740712,13.67860865,1222.572579
11.8800,154.0502559,13.33854899,1222.402305
11.8850,154.6258623,12.99699801,1222.233785
11.8900,155.2007711,12.65499222,1222.067174
11.8950,155.7756076,12.31063729,1221.901869
11.9000,156.349987,11.96519277,1221.738196
11.9050,156.9218595,11.61705644,1221.576223
11.9100,157.4927534,11.26673552,1221.415739
11.9150,158.0612227,10.91646487,1221.25746
11.9200,158.6257628,10.56528985,1221.101473
11.9250,159.1864552,10.21494289,1220.948167
11.9300,159.742961,9.865652988,1220.797596
11.9350,160.2959102,9.517593834,1220.649682
11.9400,160.8432945,9.170612802,1220.504869
11.9450,161.384666,8.824169714,1220.363096
11.9500,161.9189499,8.478746309,1220.224701
11.9550,162.4451698,8.134124627,1220.089834
11.9600,162.9641154,7.789418216,1219.958085
11.9650,163.4743266,7.445843468,1219.829992
11.9700,163.9762069,7.101375372,1219.704935
11.9750,164.4678523,6.756799755,1219.583416
11.9800,164.9508216,6.41281813,1219.465208
11.9850,165.4244707,6.069363889,1219.350336
11.9900,165.890153,5.728739738,1219.238898
11.9950,166.3471582,5.389808968,1219.130796
12.0000,166.7960459,5.053229067,1219.025953
12.0050,167.2349627,4.718726222,1218.924518
12.0100,167.6629307,4.385676944,1218.826577
12.0150,168.079941,4.054057174,1218.732049
12.0200,168.48517,3.723164026,1218.640962
12.0250,168.8793578,3.393724185,1218.553363
12.0300,169.2616091,3.06615496,1218.469555
12.0350,169.630491,2.739912014,1218.38979
12.0400,169.9872777,2.415335112,1218.313899
12.0450,170.3318175,2.093187943,1218.242128
12.0500,170.6635491,1.773360613,1218.174566
12.0550,170.9845393,1.458154827,1218.111254
12.0600,171.2950035,1.147068732,1218.052136
12.0650,171.59578,0.8398524652,1217.996992
12.0700,171.8886135,0.5389765566,1217.945869
12.0750,172.1733942,0.2435809196,1217.898618
12.0800,172.4498701,-0.04571411338,1217.855188
12.0850,172.7196633,-0.3285530435,1217.815369
12.0900,172.9843905,-0.6041174513,1217.778939
12.0950,173.2459609,-0.872240854,1217.745466
12.1000,173.50439,-1.13138081,1217.715199
12.1050,173.7610902,-1.382115491,1217.687778
12.1100,174.0182618,-1.625032695,1217.662651
12.1150,174.2765148,-1.859492915,1217.639823
12.1200,174.5379712,-2.083801425,1217.619173
12.1250,174.8037581,-2.299628747,1217.600135
12.1300,175.0742899,-2.506888452,1217.582704
12.1350,175.3518805,-2.705309302,1217.566466
12.1400,175.6387345,-2.894430781,1217.551104
12.1450,175.9347686,-3.0752031,1217.536493
12.1500,176.2402355,-3.249171091,1217.522341
12.1550,176.5538177,-3.416033362,1217.508893
12.1600,176.8743761,-3.578104417,1217.49616
12.1650,177.2011372,-3.736664962,1217.484057
12.1700,177.5335722,-3.892215875,1217.472606
12.1750,177.8710871,-4.045341954,1217.461899
12.1800,178.2110574,-4.19880971,1217.452025
12.1850,178.5531084,-4.352389081,1217.443026
12.1900,178.8949646,-4.509616462,1217.434845
12.1950,179.2364335,-4.668372611,1217.427823
12.2000,179.5757619,-4.830851843,1217.421786
12.2050,179.9122795,-4.996319459,1217.416936
12.2100,180.2445899,-5.165553245,1217.413159
12.2150,180.5724409,-5.3380271,1217.410462
12.2200,180.8954336,-5.514171525,1217.408684
12.2250,181.2135092,-5.693180083,1217.407798
12.2300,181.5268785,-5.874590092,1217.40778
12.2350,181.8360022,-6.058806528,1217.408388
12.2400,182.1410934,-6.244540935,1217.409709
12.2450,182.4426261,-6.43037911,1217.411871
12.2500,182.7419841,-6.616813173,1217.414533
12.2550,183.0389477,-6.801896437,1217.418007
12.2600,183.33372,-6.98468427,1217.422538
12.2650,183.6267147,-7.165112633,1217.428091
12.2700,183.917961,-7.341714753,1217.435031
12.2750,184.2085814,-7.514547429,1217.443095
12.2800,184.4977164,-7.683991816,1217.452546
12.2850,184.7842458,-7.849084842,1217.463692
12.2900,185.0686438,-8.01139962,1217.476278
12.2950,185.3504928,-8.170691257,1217.490358
12.3000,185.6293612,-8.328441347,1217.505884
12.3050,185.9050177,-8.483728971,1217.523052
12.3100,186.1762015,-8.636972955,1217.542111
12.3150,186.442244,-8.787545489,1217.563274
12.3200,186.7031447,-8.93538531,1217.586617
12.3250,186.95787,-9.080126765,1217.612376
12.3300,187.2075256,-9.222627472,1217.640262
12.3350,187.4517263,-9.362978223,1217.670211
12.3400,187.6902807,-9.501692866,1217.70223
12.3450,187.9227346,-9.639320073,1217.736197
12.3500,188.1494764,-9.776157009,1217.772036
12.3550,188.3696223,-9.913105191,1217.809764
12.3600,188.5828447,-10.05093468,1217.849263
12.3650,188.79042,-10.1892191,1217.890373
12.3700,188.9916785,-10.32925383,1217.932918
12.3750,189.1871257,-10.47178016,1217.976571
12.3800,189.3775749,-10.61539453,1218.021492
12.3850,189.5628817,-10.76087413,1218.0675
12.3900,189.7429128,-10.90801244,1218.11462
12.3950,189.9178293,-11.05699055,1218.162743
12.4000,190.0898718,-11.20675827,1218.211586
12.4050,190.2592249,-11.35695022,1218.261092
12.4100,190.4272099,-11.50660248,1218.311234
12.4150,190.5945952,-11.6557197,1218.361921
12.4200,190.7610394,-11.80597239,1218.412978
12.4250,190.9258335,-11.95638245,1218.46464
12.4300,191.0897772,-12.10667073,1218.516762
12.4350,191.2521948,-12.25767933,1218.569384
12.4400,191.4124717,-12.41016811,1218.622563
12.4450,191.5698056,-12.56436553,1218.67636
12.4500,191.7236863,-12.71944445,1218.730926
12.4550,191.8743219,-12.87662991,1218.786137
12.4600,192.0206288,-13.03536927,1218.842034
12.4650,192.1633403,-13.19594378,1218.898591
12.4700,192.3008576,-13.35817841,1218.956035
12.4750,192.4334575,-13.52208104,1219.014346
12.4800,192.5610864,-13.68689068,1219.073609
12.4850,192.6826649,-13.85349682,1219.133862
12.4900,192.7985186,-14.01943275,1219.195321
12.4950,192.9076943,-14.18607999,1219.258038
12.5000,193.0093223,-14.35309401,1219.322253
12.5050,193.1036048,-14.52036726,1219.387894
12.5100,193.1898945,-14.68736849,1219.455166
12.5150,193.2689453,-14.85464102,1219.523966
12.5200,193.3400546,-15.02142838,1219.594389
12.5250,193.4023495,-15.18844138,1219.666516
12.5300,193.4540955,-15.35702752,1219.740579
12.5350,193.4956648,-15.52516337,1219.816758
12.5400,193.5281626,-15.69233812,1219.894881
12.5450,193.5509133,-15.85939248,1219.974944
12.5500,193.5635973,-16.02566008,1220.057131
12.5550,193.5675164,-16.19087177,1220.141219
12.5600,193.5627611,-16.35508867,1220.22712
12.5650,193.5490816,-16.51782739,1220.314913
12.5700,193.5276481,-16.67853259,1220.404438
12.5750,193.4979328,-16.83668718,1220.495895
12.5800,193.4606667,-16.99212794,1220.589187
12.5850,193.4167218,-17.14457171,1220.684248
12.5900,193.3651127,-17.2938959,1220.781323
12.5950,193.3059022,-17.43833781,1220.880634
12.6000,193.2389649,-17.57861198,1220.982141
12.6050,193.1656944,-17.71478102,1221.085627
12.6100,193.0871295,-17.84648119,1221.19081
12.6150,193.0040209,-17.97504659,1221.297396
12.6200,192.917364,-18.10027191,1221.405085
12.6250,192.8272988,-18.22320565,1221.513736
12.6300,192.7338456,-18.34399718,1221.623213
12.6350,192.6379251,-18.46325571,1221.733279
12.6400,192.541167,-18.58001018,1221.84372
12.6450,192.4447318,-18.69445454,1221.9543
12.6500,192.349347,-18.8075827,1222.0647
12.6550,192.2570969,-18.91906753,1222.174499
12.6600,192.1695613,-19.02767636,1222.283597
12.6650,192.0853925,-19.13397111,1222.3921
12.6700,192.0067683,-19.23743764,1222.499823
12.6750,191.9336884,-19.33672464,1222.606986
12.6800,191.8661887,-19.43343073,1222.713518
12.6850,191.8036014,-19.5277627,1222.819502
12.6900,191.7464211,-19.62016767,1222.924883
12.6950,191.6925822,-19.71047773,1223.030223
12.7000,191.6422157,-19.7992217,1223.13537
12.7050,191.5942894,-19.88761883,1223.24045
12.7100,191.5481656,-19.97636536,1223.345483
12.7150,191.5017165,-20.06641476,1223.450713
12.7200,191.4541614,-20.15756385,1223.556357
12.7250,191.4053312,-20.2505833,1223.662289
12.7300,191.3539689,-20.3458267,1223.768771
12.7350,191.2993834,-20.44267276,1223.875945
12.7400,191.2415898,-20.54124349,1223.983746
12.7450,191.1804217,-20.64062764,1224.09233
12.7500,191.1158997,-20.74180091,1224.201686
12.7550,191.0478398,-20.84469397,1224.311753
12.7600,190.9768904,-20.94898506,1224.422498
12.7650,190.9020451,-21.05499509,1224.534035
12.7700,190.8234133,-21.16283871,1224.646356
12.7750,190.7406419,-21.27214848,1224.759591
12.7800,190.6535466,-21.3829921,1224.873707
12.7850,190.5618805,-21.49545523,1224.988856
12.7900,190.4666032,-21.60948331,1225.104682
12.7950,190.3669738,-21.72525891,1225.221308
12.8000,190.264437,-21.84182346,1225.338492
12.8050,190.1597464,-21.95882922,1225.456102
12.8100,190.053179,-22.07607203,1225.57415
12.8150,189.9440983,-22.19357678,1225.692743
12.8200,189.8340478,-22.31058378,1225.811793
12.8250,189.7233427,-22.42715714,1225.931221
12.8300,189.61258,-22.54235863,1226.050946
12.8350,189.5017634,-22.65789926,1226.170735
12.8400,189.3893072,-22.77374235,1226.291018
12.8450,189.2758468,-22.8900346,1226.411695
12.8500,189.161458,-23.00647349,1226.53276
12.8550,189.0452479,-23.1238724,1226.654368
12.8600,188.9266235,-23.24246021,1226.776604
12.8650,188.8060676,-23.36286115,1226.8993
12.8700,188.6840321,-23.4861974,1227.022257
12.8750,188.5598598,-23.61266118,1227.145475
12.8800,188.4332687,-23.74187552,1227.268986
12.8850,188.3050974,-23.87487669,1227.392463
12.8900,188.175991,-24.01016796,1227.51592
12.8950,188.0456833,-24.14933562,1227.639159
12.9000,187.9150283,-24.29077803,1227.762156
12.9050,187.783386,-24.43611651,1227.884985
12.9100,187.6511183,-24.58424085,1228.007634
12.9150,187.5179797,-24.73463783,1228.130232
12.9200,187.3828213,-24.88792536,1228.252977
12.9250,187.246688,-25.04395332,1228.375623
12.9300,187.110599,-25.20254332,1228.498071
12.9350,186.9742832,-25.36323513,1228.620392
12.9400,186.837664,-25.52601327,1228.742553
12.9450,186.7020953,-25.69070665,1228.864302
12.9500,186.5684304,-25.85719438,1228.985444
12.9550,186.4361311,-26.0255503,1229.10611
12.9600,186.3059487,-26.19724685,1229.225932
12.9650,186.1790499,-26.37114664,1229.344759
12.9700,186.0555587,-26.54783029,1229.462377
12.9750,185.9360012,-26.72782636,1229.57871
12.9800,185.8207678,-26.91065396,1229.693529
12.9850,185.71073,-27.09675337,1229.806635
12.9900,185.6065995,-27.28463126,1229.917885
12.9950,185.5094262,-27.47627087,1230.026879
13.0000,185.4179726,-27.67093879,1230.133956
13.0050,185.3331747,-27.86870119,1230.238837
13.0100,185.2539296,-28.06939072,1230.341697
13.0150,185.1822482,-28.27398357,1230.442074
13.0200,185.1174793,-28.48274628,1230.540012
13.0250,185.060297,-28.6942112,1230.635479
13.0300,185.0106315,-28.90756428,1230.728407
13.0350,184.9696331,-29.12422215,1230.818473
13.0400,184.9361232,-29.3443815,1230.905833
13.0450,184.9107355,-29.56799625,1230.990367
13.0500,184.8927267,-29.79414042,1231.072154
13.0550,184.8825325,-30.0227275,1231.151184
13.0600,184.8804752,-30.25371512,1231.227329
13.0650,184.8861612,-30.48655999,1231.300633
13.0700,184.8999811,-30.72114199,1231.371028
13.0750,184.9212362,-30.95752089,1231.438677
13.0800,184.9499355,-31.19514288,1231.503607
13.0850,184.9864365,-31.43386104,1231.565735
13.0900,185.0304888,-31.67365836,1231.625301
13.0950,185.0809015,-31.91459013,1231.682547
13.1000,185.1370997,-32.15661393,1231.737641
13.1050,185.1981032,-32.39923094,1231.790964
13.1100,185.2626557,-32.64192935,1231.842817
13.1150,185.3301279,-32.88466346,1231.893455
13.1200,185.3984241,-33.12703547,1231.943332
13.1250,185.4676039,-33.36983806,1231.992473
13.1300,185.5373128,-33.61139166,1232.041096
13.1350,185.6059333,-33.85114249,1232.089646
13.1400,185.6727339,-34.0899005,1232.138362
13.1450,185.7370483,-34.32641988,1232.187413
13.1500,185.7975923,-34.56105312,1232.23725
13.1550,185.8545862,-34.79450167,1232.287832
13.1600,185.9073362,-35.02540751,1232.339377
13.1650,185.9547373,-35.25509251,1232.392228
13.1700,185.9957207,-35.48174687,1232.446716
13.1750,186.0303238,-35.7045113,1232.503031
13.1800,186.0569344,-35.92425718,1232.561533
13.1850,186.0746374,-36.1392576,1232.622605
13.1900,186.083291,-36.35023937,1232.686259
13.1950,186.0843424,-36.55674683,1232.752267
13.2000,186.0757876,-36.75827554,1232.821041
13.2050,186.0576243,-36.95408877,1232.892539
13.2100,186.029564,-37.1451087,1232.966875
13.2150,185.9929735,-37.33106479,1233.043748
13.2200,185.9475726,-37.51187758,1233.123193
13.2250,185.8937022,-37.68799334,1233.205199
13.2300,185.8318902,-37.85833723,1233.289599
13.2350,185.7624917,-38.02288803,1233.376258
13.2400,185.6851799,-38.1823128,1233.465264
13.2450,185.6013258,-38.33765327,1233.55623
13.2500,185.5107887,-38.48816599,1233.649114
13.2550,185.415124,-38.6340207,1233.743631
13.2600,185.3158899,-38.77397051,1233.839345
13.2650,185.2139808,-38.91038262,1233.935893
13.2700,185.1096892,-39.0428007,1234.033194
13.2750,185.0059262,-39.17049867,1234.130474
13.2800,184.9038716,-39.29550458,1234.227339
13.2850,184.8049336,-39.41736085,1234.323337
13.2900,184.7105788,-39.53706106,1234.418005
13.2950,184.6222241,-39.65360176,1234.510855
13.3000,184.5418444,-39.7684174,1234.601247
13.3050,184.4696682,-39.88210908,1234.688938
13.3100,184.4069487,-39.99513727,1234.773443
13.3150,184.353657,-40.10694698,1234.854571
13.3200,184.311291,-40.21831106,1234.931791
13.3250,184.2792048,-40.32976028,1235.005051
13.3300,184.2570251,-40.44211982,1235.074291
13.3350,184.2449192,-40.55612874,1235.139228
13.3400,184.2414349,-40.67063755,1235.200186
13.3450,184.2464434,-40.78625938,1235.256995
13.3500,184.2591474,-40.90458926,1235.309776
13.3550,184.2780405,-41.02365776,1235.358869
13.3600,184.3011475,-41.14495125,1235.404646
13.3650,184.3272381,-41.26682328,1235.447537
13.3700,184.3550101,-41.39000263,1235.487694
13.3750,184.3840224,-41.51457026,1235.525368
13.3800,184.413299,-41.63956674,1235.560826
13.3850,184.4408428,-41.76417374,1235.594625
13.3900,184.4662189,-41.88785022,1235.626928
13.3950,184.4895271,-42.01051581,1235.657812
13.4000,184.5105501,-42.13209668,1235.687439
13.4050,184.5293337,-42.25202799,1235.715841
13.4100,184.5462428,-42.36978225,1235.743058
13.4150,184.5614324,-42.48532338,1235.769004
13.4200,184.5758769,-42.59857909,1235.793564
13.4250,184.5901839,-42.70863246,1235.816775
13.4300,184.6052092,-42.81555165,1235.838427
13.4350,184.621591,-42.91901553,1235.858412
13.4400,184.6406887,-43.01816671,1235.876449
13.4450,184.6630404,-43.11328293,1235.892455
13.4500,184.6899882,-43.20414941,1235.906026
13.4550,184.7211758,-43.29016946,1235.91727
13.4600,184.7572451,-43.37129073,1235.926066
13.4650,184.7985317,-43.44692297,1235.932198
13.4700,184.8442817,-43.51762302,1235.935856
13.4750,184.8946261,-43.58396025,1235.936913
13.4800,184.949684,-43.64493729,1235.935304
13.4850,185.0081316,-43.70072987,1235.931306
13.4900,185.0690646,-43.75195992,1235.924889
13.4950,185.1311438,-43.79840186,1235.916458
13.5000,185.1937003,-43.84020173,1235.906043
13.5050,185.2560953,-43.87810034,1235.893839
13.5100,185.3159901,-43.91092168,1235.880281
13.5150,185.3726169,-43.93940935,1235.86559
13.5200,185.4258542,-43.96378077,1235.849833
13.5250,185.4744547,-43.98378375,1235.833172
13.5300,185.5169749,-44.00027582,1235.815981
13.5350,185.5548257,-44.01433011,1235.797917
13.5400,185.5883607,-44.02561319,1235.778869
13.5450,185.616156,-44.03343402,1235.75914
13.5500,185.6394131,-44.03831665,1235.738563
13.5550,185.658986,-44.04080018,1235.716838
13.5600,185.6747763,-44.04092501,1235.693984
13.5650,185.6878211,-44.03865911,1235.669919
13.5700,185.6992569,-44.03438316,1235.644341
13.5750,185.7084127,-44.02861124,1235.617376
13.5800,185.7156097,-44.02176924,1235.588978
13.5850,185.7221689,-44.01369074,1235.558885
13.5900,185.7269645,-44.0034491,1235.527373
13.5950,185.7306427,-43.992033,1235.494319
13.6000,185.7328434,-43.97999136,1235.459754
13.6050,185.735246,-43.96674462,1235.423356
13.6100,185.7377686,-43.9523367,1235.385072
13.6150,185.7407748,-43.93642655,1235.344884
13.6200,185.7450562,-43.91911797,1235.302563
13.6250,185.7504447,-43.9010948,1235.258072
13.6300,185.7586989,-43.88248093,1235.211097
13.6350,185.7677593,-43.86322181,1235.162026
13.6400,185.7804253,-43.8444191,1235.110214
13.6450,185.7960442,-43.82543687,1235.055844
13.6500,185.8157653,-43.80604187,1234.998537
13.6550,185.8388073,-43.78713481,1234.938352
13.6600,185.8672474,-43.76885537,1234.874887
13.6650,185.901661,-43.7519723,1234.807804
13.6700,185.9414958,-43.73583326,1234.737323
13.6750,185.9875062,-43.7211237,1234.663213
13.6800,186.0395354,-43.70857036,1234.585473
13.6850,186.0989282,-43.6971942,1234.503795
13.6900,186.1649742,-43.68868918,1234.418295
13.6950,186.2373085,-43.68264787,1234.328986
13.7000,186.3161359,-43.67808414,1234.235862
13.7050,186.401041,-43.67450599,1234.139089
13.7100,186.4906327,-43.67341724,1234.038938
13.7150,186.5845441,-43.67262207,1233.935621
13.7200,186.6827697,-43.67239544,1233.829114
13.7250,186.7836657,-43.67252541,1233.719781
13.7300,186.8860356,-43.67273431,1233.607913
13.7350,186.9896949,-43.67255675,1233.493664
13.7400,187.0939174,-43.67260031,1233.377163
13.7450,187.1986504,-43.67040015,1233.258523
13.7500,187.3017704,-43.66659158,1233.138304
13.7550,187.4030574,-43.66067336,1233.016504
13.7600,187.5024452,-43.65264297,1232.893253
13.7650,187.5983511,-43.64165694,1232.769002
13.7700,187.6914949,-43.6262267,1232.643684
