type,name,time_units,begin_time,frequency,count,units
signal_3d,"Noraxon MyoMotion-Trajectories-Body center of mass","s",0.0000,200,5108,"mm"

time,x,y,z
0.0000,1.580081015,16.4839632,1075.069098
0.0050,1.579266012,16.48536612,1075.069383
0.0100,1.578450859,16.4867689,1075.069668
0.0150,1.577635557,16.48817153,1075.069953
0.0200,1.576710759,16.48969473,1075.070268
0.0250,1.575673241,16.49133164,1075.070611
0.0300,1.574521102,16.49307399,1075.070981
0.0350,1.573253978,16.49491243,1075.071377
0.0400,1.571873327,16.49683684,1075.071799
0.0450,1.570382723,16.49883631,1075.072243
0.0500,1.56878789,16.50089905,1075.072708
0.0550,1.567096264,16.50301233,1075.073192
0.0600,1.565316369,16.50516256,1075.073691
0.0650,1.563457505,16.50733564,1075.074204
0.0700,1.561529839,16.50951748,1075.074726
0.0750,1.55954461,16.51169428,1075.075256
0.0800,1.55751417,16.51385266,1075.075791
0.0850,1.555451883,16.51597966,1075.076326
0.0900,1.553372041,16.51806295,1075.076859
0.0950,1.551289763,16.52009089,1075.077387
0.1000,1.549220671,16.52205281,1075.077906
0.1050,1.547180417,16.52393933,1075.078414
0.1100,1.545184312,16.52574244,1075.078907
0.1150,1.543247119,16.52745534,1075.079383
0.1200,1.541382953,16.52907223,1075.079838
0.1250,1.539605219,16.53058833,1075.080271
0.1300,1.537926423,16.5319998,1075.080679
0.1350,1.536357693,16.53330379,1075.08106
0.1400,1.534908126,16.53449859,1075.081413
0.1450,1.533584176,16.5355839,1075.081735
0.1500,1.532389204,16.53656103,1075.082027
0.1550,1.529225548,16.53878114,1075.082707
0.1600,1.526176822,16.54087016,1075.083354
0.1650,1.523213072,16.54281392,1075.083971
0.1700,1.520321723,16.54463164,1075.084557
0.1750,1.517535072,16.54631794,1075.085112
0.1800,1.514791228,16.54785336,1075.085638
0.1850,1.512133407,16.54928738,1075.086136
0.1900,1.509519662,16.55061495,1075.086611
0.1950,1.506936786,16.55185561,1075.087064
0.2000,1.504445377,16.55302208,1075.087493
0.2050,1.501998243,16.5541098,1075.087904
0.2100,1.499602568,16.55510525,1075.088291
0.2150,1.497152868,16.55601085,1075.088669
0.2200,1.494699502,16.55683996,1075.089034
0.2250,1.492256522,16.55759261,1075.089383
0.2300,1.489818911,16.55822486,1075.089714
0.2350,1.487414668,16.55878966,1075.090031
0.2400,1.484982187,16.55926092,1075.090337
0.2450,1.482551988,16.55967073,1075.090631
0.2500,1.480142509,16.55997759,1075.090912
0.2550,1.477734751,16.56020884,1075.091184
0.2600,1.475330334,16.56038604,1075.091447
0.2650,1.472907668,16.56052083,1075.091706
0.2700,1.470513776,16.56055091,1075.09195
0.2750,1.468104799,16.56053549,1075.092189
0.2800,1.465733445,16.56041866,1075.092417
0.2850,1.463386401,16.56025406,1075.092636
0.2900,1.461058118,16.55999053,1075.092843
0.2950,1.458788899,16.55963732,1075.093037
0.3000,1.456546632,16.55922992,1075.093221
0.3050,1.454302143,16.55872819,1075.093397
0.3100,1.452092005,16.55816746,1075.093561
0.3150,1.449898244,16.5575324,1075.093716
0.3200,1.447724966,16.55683856,1075.093861
0.3250,1.445548455,16.55607731,1075.093999
0.3300,1.44338264,16.55521078,1075.094127
0.3350,1.4412142,16.5543004,1075.09425
0.3400,1.439058618,16.55331066,1075.094363
0.3450,1.436903535,16.55228424,1075.094472
0.3500,1.434776297,16.55117778,1075.094568
0.3550,1.432628424,16.55001242,1075.094662
0.3600,1.430515086,16.5488172,1075.094747
0.3650,1.428408479,16.54758217,1075.094826
0.3700,1.426324801,16.54629493,1075.094898
0.3750,1.424262904,16.54496307,1075.094962
0.3800,1.422246144,16.54364424,1075.095022
0.3850,1.420275654,16.54231499,1075.095076
0.3900,1.418325104,16.54099526,1075.095124
0.3950,1.416433505,16.53965914,1075.095164
0.4000,1.414583752,16.5383217,1075.0952
0.4050,1.412792729,16.53698527,1075.095226
0.4100,1.411050234,16.53569157,1075.09525
0.4150,1.409382158,16.53442217,1075.095269
0.4200,1.407776904,16.53316967,1075.09528
0.4250,1.406218845,16.5319162,1075.095285
0.4300,1.404720978,16.53069672,1075.095284
0.4350,1.403289658,16.52950116,1075.095277
0.4400,1.401903391,16.52831972,1075.095266
0.4450,1.400556033,16.52718278,1075.09525
0.4500,1.399270908,16.52603708,1075.095226
0.4550,1.398015525,16.52490756,1075.095201
0.4600,1.396798253,16.52379904,1075.095173
0.4650,1.395589886,16.52269724,1075.095144
0.4700,1.394395934,16.5215895,1075.095113
0.4750,1.393180939,16.52050741,1075.095087
0.4800,1.391974347,16.51947477,1075.095063
0.4850,1.390725031,16.51840851,1075.095045
0.4900,1.389427588,16.51737449,1075.095033
0.4950,1.388086993,16.51634473,1075.095029
0.5000,1.38666904,16.51530057,1075.095031
0.5050,1.38518758,16.51423539,1075.09504
0.5100,1.383648433,16.51317769,1075.095059
0.5150,1.382102502,16.51210136,1075.095076
0.5200,1.380502337,16.51102676,1075.095101
0.5250,1.378821188,16.5099606,1075.09514
0.5300,1.377092746,16.50892615,1075.095187
0.5350,1.375273404,16.50788455,1075.095246
0.5400,1.373426988,16.50684199,1075.095311
0.5450,1.371550354,16.5057923,1075.095382
0.5500,1.369609019,16.50474882,1075.095462
0.5550,1.367627046,16.50368718,1075.095546
0.5600,1.365633411,16.50261759,1075.095631
0.5650,1.363573637,16.5014934,1075.095723
0.5700,1.361457596,16.50037234,1075.095825
0.5750,1.359301781,16.49924643,1075.095932
0.5800,1.357082278,16.49808136,1075.096045
0.5850,1.354867778,16.49685951,1075.096154
0.5900,1.352589844,16.49559816,1075.096268
0.5950,1.350275038,16.49427228,1075.096382
0.6000,1.347887748,16.49287662,1075.0965
0.6050,1.345512024,16.49142881,1075.096613
0.6100,1.343093666,16.48992843,1075.096727
0.6150,1.340706764,16.48835114,1075.096833
0.6200,1.338358716,16.48668033,1075.096929
0.6250,1.336033422,16.48495507,1075.097016
0.6300,1.333747487,16.48318697,1075.097095
0.6350,1.331481447,16.48135,1075.097167
0.6400,1.329257221,16.47945317,1075.09723
0.6450,1.327096784,16.477472,1075.097281
0.6500,1.324954621,16.47546607,1075.097326
0.6550,1.322891503,16.47337868,1075.097356
0.6600,1.320875408,16.47123076,1075.097375
0.6650,1.318869296,16.46901849,1075.09739
0.6700,1.316920974,16.46676561,1075.097396
0.6750,1.315021411,16.464473,1075.097394
0.6800,1.313157269,16.46210428,1075.097382
0.6850,1.311296565,16.45971743,1075.097368
0.6900,1.309471342,16.45727982,1075.097344
0.6950,1.307671714,16.45485935,1075.097319
0.7000,1.305893241,16.45243484,1075.097291
0.7050,1.304126482,16.44997623,1075.09726
0.7100,1.302364016,16.44749536,1075.097226
0.7150,1.30059645,16.44496792,1075.097191
0.7200,1.29883126,16.44243957,1075.097155
0.7250,1.297062952,16.43990694,1075.097116
0.7300,1.295304509,16.43734063,1075.097074
0.7350,1.293560728,16.43477101,1075.097027
0.7400,1.291844183,16.43218767,1075.096975
0.7450,1.290167531,16.4295895,1075.096915
0.7500,1.288513858,16.42698989,1075.09685
0.7550,1.286884311,16.42439312,1075.09678
0.7600,1.285271077,16.42180095,1075.096711
0.7650,1.28374437,16.41921354,1075.09663
0.7700,1.282264578,16.41662567,1075.096546
0.7750,1.280806567,16.41404515,1075.096459
0.7800,1.279401448,16.41143437,1075.096365
0.7850,1.278057612,16.40882374,1075.096263
0.7900,1.276807456,16.40620371,1075.096152
0.7950,1.27560511,16.40357505,1075.096037
0.8000,1.274490361,16.40095198,1075.095914
0.8050,1.273441646,16.39837354,1075.095787
0.8100,1.272435873,16.39579308,1075.095654
0.8150,1.27148721,16.39320701,1075.095519
0.8200,1.270602138,16.39065826,1075.095378
0.8250,1.269792274,16.38812936,1075.09523
0.8300,1.269029228,16.38564406,1075.095081
0.8350,1.268321472,16.38317781,1075.094928
0.8400,1.267621684,16.38073617,1075.094778
0.8450,1.267006166,16.3783115,1075.09462
0.8500,1.266433072,16.37590597,1075.094461
0.8550,1.265922839,16.37353992,1075.0943
0.8600,1.265453847,16.37117149,1075.094136
0.8650,1.265074131,16.36884878,1075.093964
0.8700,1.264738071,16.36653629,1075.093788
0.8750,1.264442898,16.36419919,1075.093608
0.8800,1.264185509,16.36192147,1075.09343
0.8850,1.263934262,16.35965528,1075.093253
0.8900,1.263700826,16.35742406,1075.093083
0.8950,1.263450094,16.35525153,1075.092921
0.9000,1.263247501,16.35308198,1075.092757
0.9050,1.263017705,16.3509613,1075.092604
0.9100,1.262784427,16.34886308,1075.092455
0.9150,1.262497966,16.34681175,1075.092317
0.9200,1.262165977,16.34484293,1075.092194
0.9250,1.261833608,16.34289826,1075.092078
0.9300,1.261494395,16.34101162,1075.091969
0.9350,1.261114134,16.33919936,1075.091873
0.9400,1.26071001,16.33744714,1075.091784
0.9450,1.260285235,16.33574781,1075.091702
0.9500,1.259826212,16.33411179,1075.091632
0.9550,1.259291753,16.33257566,1075.091578
0.9600,1.258708717,16.33111293,1075.091537
0.9650,1.258142282,16.32972413,1075.091499
0.9700,1.257518059,16.32840245,1075.091473
0.9750,1.256875165,16.32716258,1075.091456
0.9800,1.25620772,16.32601271,1075.091445
0.9850,1.255519829,16.32493192,1075.091445
0.9900,1.254785693,16.32391897,1075.091458
0.9950,1.254028786,16.32295608,1075.091477
1.0000,1.25319871,16.32205918,1075.091508
1.0050,1.252326647,16.32120336,1075.091547
1.0100,1.251384097,16.32040926,1075.091599
1.0150,1.250382125,16.31969306,1075.091663
1.0200,1.249265723,16.31902142,1075.091745
1.0250,1.248113533,16.31839228,1075.091837
1.0300,1.246872568,16.31781272,1075.091943
1.0350,1.245554842,16.31727013,1075.092061
1.0400,1.244149947,16.31677758,1075.092193
1.0450,1.242640215,16.31631697,1075.09234
1.0500,1.241053578,16.31590974,1075.092499
1.0550,1.239378755,16.31556192,1075.092675
1.0600,1.237608564,16.31524848,1075.092861
1.0650,1.235711277,16.31496234,1075.093062
1.0700,1.233728419,16.31474265,1075.093278
1.0750,1.231663749,16.31457412,1075.093506
1.0800,1.22950607,16.31445044,1075.093753
1.0850,1.227270828,16.31438702,1075.094015
1.0900,1.224959103,16.31437551,1075.094289
1.0950,1.222598182,16.31440732,1075.094576
1.1000,1.220157573,16.31450198,1075.094881
1.1050,1.217683854,16.3146267,1075.095196
1.1100,1.215154768,16.31475344,1075.095522
1.1150,1.212596395,16.31493043,1075.095861
1.1200,1.210027232,16.31510063,1075.096207
1.1250,1.207449471,16.3152822,1075.096559
1.1300,1.204832656,16.31545873,1075.096922
1.1350,1.202204964,16.31566795,1075.097292
1.1400,1.199587953,16.31588525,1075.097665
1.1450,1.196927089,16.31611232,1075.098048
1.1500,1.194280777,16.31632978,1075.098433
1.1550,1.191582959,16.3165582,1075.098829
1.1600,1.188860819,16.31684067,1075.099238
1.1650,1.18607672,16.31715698,1075.099664
1.1700,1.183255715,16.31750113,1075.100102
1.1750,1.180361368,16.31791117,1075.100561
1.1800,1.177418022,16.31832233,1075.101034
1.1850,1.174389728,16.31878218,1075.101531
1.1900,1.171324981,16.3192291,1075.102042
1.1950,1.16822097,16.31968893,1075.102571
1.2000,1.165035671,16.32018041,1075.103127
1.2050,1.16179147,16.32063362,1075.103703
1.2100,1.158508065,16.32105824,1075.104304
1.2150,1.15522413,16.32146399,1075.104925
1.2200,1.15193123,16.32181465,1075.105561
1.2250,1.148645341,16.32208842,1075.106214
1.2300,1.145327317,16.32226747,1075.106887
1.2350,1.142022575,16.32235336,1075.107571
1.2400,1.138760302,16.32234563,1075.108264
1.2450,1.135507181,16.32222223,1075.108968
1.2500,1.132325762,16.32199577,1075.109673
1.2550,1.129187417,16.32166702,1075.110383
1.2600,1.126047253,16.32123565,1075.111101
1.2650,1.12285247,16.32073998,1075.111835
1.2700,1.119598397,16.32019432,1075.112582
1.2750,1.116234931,16.31959762,1075.113349
1.2800,1.112734173,16.31894229,1075.114138
1.2850,1.109122137,16.3182397,1075.114946
1.2900,1.105330841,16.31748473,1075.115782
1.2950,1.101282677,16.31667279,1075.116656
1.3000,1.096978047,16.31579496,1075.117569
1.3050,1.092393475,16.31489262,1075.118524
1.3100,1.087500251,16.31396882,1075.119528
1.3150,1.082280063,16.3129968,1075.120579
1.3200,1.076798154,16.3120024,1075.121676
1.3250,1.070992789,16.31097373,1075.122825
1.3300,1.064891197,16.30989681,1075.124025
1.3350,1.058474794,16.30875619,1075.125277
1.3400,1.051762424,16.30758619,1075.126581
1.3450,1.044761187,16.3063378,1075.127941
1.3500,1.037492601,16.30505809,1075.129354
1.3550,1.029973382,16.30373205,1075.130816
1.3600,1.022229192,16.30237712,1075.132333
1.3650,1.014256473,16.30099253,1075.133906
1.3700,1.006029065,16.29957578,1075.135539
1.3750,0.9975844235,16.29810488,1075.137228
1.3800,0.9888981518,16.29660576,1075.138981
1.3850,0.9799506288,16.295086,1075.140803
1.3900,0.9707044236,16.29354537,1075.142707
1.3950,0.9611741662,16.29203425,1075.144693
1.4000,0.9513248271,16.29049518,1075.146766
1.4050,0.9411705679,16.28895282,1075.148934
1.4100,0.9307087457,16.28750653,1075.151205
1.4150,0.9199143629,16.28606495,1075.15358
1.4200,0.9087643981,16.28467387,1075.15607
1.4250,0.897248834,16.28336001,1075.158682
1.4300,0.8854095617,16.28211165,1075.161418
1.4350,0.8732562057,16.28090329,1075.16428
1.4400,0.8607970793,16.27978081,1075.167275
1.4450,0.8480542273,16.27877675,1075.170404
1.4500,0.835092063,16.27790136,1075.173667
1.4550,0.8219036013,16.27716901,1075.177068
1.4600,0.8084776847,16.27659202,1075.180615
1.4650,0.7948785791,16.27614741,1075.184297
1.4700,0.7811411894,16.27584615,1075.188122
1.4750,0.7672826034,16.27573452,1075.192092
1.4800,0.7532979114,16.27582179,1075.196215
1.4850,0.7392215016,16.27611473,1075.200489
1.4900,0.7249924291,16.27666341,1075.204934
1.4950,0.7105927946,16.27743792,1075.209556
1.5000,0.6960215615,16.27848066,1075.214365
1.5050,0.681273704,16.27977815,1075.219369
1.5100,0.6662927565,16.28137459,1075.224583
1.5150,0.6510334829,16.28322318,1075.230023
1.5200,0.6355043337,16.28534949,1075.235699
1.5250,0.6196115793,16.28776287,1075.241631
1.5300,0.6033838907,16.2904795,1075.247824
1.5350,0.5868058242,16.29346186,1075.25429
1.5400,0.5697953086,16.29674637,1075.261049
1.5450,0.5523646015,16.30036636,1075.268106
1.5500,0.5344574779,16.30427698,1075.275472
1.5550,0.5161214098,16.30849896,1075.283148
1.5600,0.4973445408,16.31301611,1075.291141
1.5650,0.4781309634,16.31783034,1075.299455
1.5700,0.4584578638,16.32291292,1075.308095
1.5750,0.4383441672,16.32829711,1075.317068
1.5800,0.4178025479,16.33397839,1075.326373
1.5850,0.3967576794,16.33996885,1075.33602
1.5900,0.3752619785,16.34629059,1075.346001
1.5950,0.353314237,16.35295035,1075.356321
1.6000,0.3309442886,16.3599497,1075.366975
1.6050,0.3080936949,16.36726163,1075.377971
1.6100,0.2847813744,16.37489913,1075.389313
1.6150,0.2610146053,16.38285774,1075.400999
1.6200,0.2367532122,16.39112189,1075.413036
1.6250,0.2119606018,16.39968928,1075.425432
1.6300,0.186659024,16.4085647,1075.438187
1.6350,0.1608610439,16.41772999,1075.4513
1.6400,0.1345548519,16.42714809,1075.464779
1.6450,0.1077622884,16.43687008,1075.478618
1.6500,0.08045748084,16.44679127,1075.492821
1.6550,0.05265606458,16.45692251,1075.507385
1.6600,0.02438784098,16.46729707,1075.522309
1.6650,-0.004321803649,16.47789609,1075.537588
1.6700,-0.03339299982,16.48871023,1075.553205
1.6750,-0.06281326174,16.49974263,1075.569162
1.6800,-0.09251616826,16.51099882,1075.585439
1.6850,-0.1225020452,16.52247393,1075.602038
1.6900,-0.1526836767,16.5341393,1075.618938
1.6950,-0.1831033537,16.54594363,1075.636136
1.7000,-0.2136593771,16.55791419,1075.653622
1.7050,-0.244374017,16.57005809,1075.671383
1.7100,-0.2751522052,16.58230837,1075.689402
1.7150,-0.3059978835,16.59474083,1075.707681
1.7200,-0.3368689986,16.60733326,1075.726204
1.7250,-0.3677239181,16.62005961,1075.744956
1.7300,-0.3985107144,16.63294354,1075.76393
1.7350,-0.4292093319,16.64597621,1075.783116
1.7400,-0.4597924647,16.65915412,1075.8025
1.7450,-0.4902344695,16.67244437,1075.822079
1.7500,-0.5205502422,16.68585636,1075.841846
1.7550,-0.550651543,16.69934104,1075.861777
1.7600,-0.5804796564,16.71288818,1075.881862
1.7650,-0.6100646377,16.72652442,1075.902099
1.7700,-0.6393860758,16.74023658,1075.922473
1.7750,-0.6684130097,16.75399396,1075.94297
1.7800,-0.6971380897,16.76777633,1075.963589
1.7850,-0.7255594493,16.78156819,1075.984317
1.7900,-0.7536060987,16.79537146,1076.005143
1.7950,-0.7812838007,16.80916696,1076.026062
1.8000,-0.8085680693,16.82290594,1076.047062
1.8050,-0.8354481056,16.83664215,1076.068137
1.8100,-0.8619113706,16.85031003,1076.089283
1.8150,-0.8879445342,16.86388209,1076.110492
1.8200,-0.9135806345,16.87736067,1076.131767
1.8250,-0.9387539012,16.89077986,1076.153093
1.8300,-0.9634741992,16.90408026,1076.174477
1.8350,-0.9877605604,16.91722426,1076.195918
1.8400,-1.011585285,16.93017933,1076.217402
1.8450,-1.034957425,16.94296544,1076.238934
1.8500,-1.05789693,16.95555082,1076.260514
1.8550,-1.080376399,16.96793208,1076.282138
1.8600,-1.102390246,16.98012773,1076.303802
1.8650,-1.123922417,16.99209382,1076.3255
1.8700,-1.144941803,17.00385766,1076.347229
1.8750,-1.165481498,17.01540696,1076.368977
1.8800,-1.185534868,17.02673384,1076.390758
1.8850,-1.205082709,17.03783172,1076.412553
1.8900,-1.224145573,17.04871786,1076.434373
1.8950,-1.242712476,17.05939139,1076.456204
1.9000,-1.260850898,17.06984751,1076.478064
1.9050,-1.27852049,17.08013742,1076.499942
1.9100,-1.295777389,17.09022371,1076.521839
1.9150,-1.312662452,17.10012004,1076.54377
1.9200,-1.329162116,17.10983347,1076.565732
1.9250,-1.345294491,17.11934208,1076.587723
1.9300,-1.361100009,17.12867207,1076.60975
1.9350,-1.376613742,17.13784312,1076.631825
1.9400,-1.391841317,17.14685572,1076.653942
1.9450,-1.406836592,17.15570357,1076.676113
1.9500,-1.4215876,17.16441795,1076.698344
1.9550,-1.436105989,17.17298733,1076.720642
1.9600,-1.450422601,17.18139458,1076.743004
1.9650,-1.464539573,17.18962682,1076.765432
1.9700,-1.478516821,17.1977014,1076.787933
1.9750,-1.492361123,17.20559856,1076.810508
1.9800,-1.506097719,17.21336919,1076.833165
1.9850,-1.51969926,17.22097363,1076.855886
1.9900,-1.533207696,17.22842707,1076.878684
1.9950,-1.5465413,17.2357335,1076.90154
2.0000,-1.559773134,17.24292124,1076.92447
2.0050,-1.572865394,17.2499513,1076.947457
2.0100,-1.585831852,17.25687814,1076.970508
2.0150,-1.598669603,17.26363434,1076.993607
2.0200,-1.611330702,17.27026055,1077.016758
2.0250,-1.623803499,17.27676295,1077.039955
2.0300,-1.636105482,17.283116,1077.06319
2.0350,-1.648244598,17.2893279,1077.086466
2.0400,-1.660235013,17.29539159,1077.109784
2.0450,-1.67209645,17.30133512,1077.13315
2.0500,-1.683831594,17.3071366,1077.156561
2.0550,-1.695451733,17.31283028,1077.180027
2.0600,-1.706968231,17.31838103,1077.20353
2.0650,-1.71837799,17.3238081,1077.227083
2.0700,-1.729714004,17.32912734,1077.250695
2.0750,-1.740966887,17.3343088,1077.274362
2.0800,-1.752155639,17.33937529,1077.298089
2.0850,-1.763268962,17.34432285,1077.321884
2.0900,-1.774305223,17.34917248,1077.345736
2.0950,-1.785220485,17.35396881,1077.369636
2.1000,-1.796028685,17.35870974,1077.39361
2.1050,-1.806730071,17.36336921,1077.417644
2.1100,-1.81728866,17.36791594,1077.44172
2.1150,-1.827713597,17.37243956,1077.465853
2.1200,-1.838003811,17.37688843,1077.490037
2.1250,-1.848160266,17.38120327,1077.514266
2.1300,-1.858193307,17.38540373,1077.538538
2.1350,-1.86810374,17.38952374,1077.562851
2.1400,-1.877841296,17.39356339,1077.587196
2.1450,-1.88745671,17.39746703,1077.611578
2.1500,-1.896874079,17.40126353,1077.635987
2.1550,-1.906144952,17.40494003,1077.660436
2.1600,-1.915273466,17.40846149,1077.684918
2.1650,-1.924261127,17.4118269,1077.70944
2.1700,-1.9331257,17.41505367,1077.734012
2.1750,-1.941833264,17.41811422,1077.758628
2.1800,-1.95046188,17.4210575,1077.783285
2.1850,-1.95899537,17.42384343,1077.807986
2.1900,-1.96745253,17.42651367,1077.832741
2.1950,-1.975836372,17.42906892,1077.857553
2.2000,-1.984096644,17.43149795,1077.882409
2.2050,-1.992311353,17.43380214,1077.907324
2.2100,-2.000420603,17.43597321,1077.932296
2.2150,-2.008420921,17.43805077,1077.957319
2.2200,-2.016361057,17.44002728,1077.982411
2.2250,-2.024207019,17.4419943,1078.007567
2.2300,-2.031995315,17.44389285,1078.032789
2.2350,-2.039732017,17.445745,1078.058074
2.2400,-2.047424564,17.44755941,1078.083434
2.2450,-2.055073783,17.44934951,1078.108871
2.2500,-2.06269758,17.4511902,1078.134386
2.2550,-2.070290122,17.4530634,1078.15997
2.2600,-2.077846867,17.45490673,1078.185627
2.2650,-2.085455637,17.45679051,1078.211361
2.2700,-2.093078801,17.45866159,1078.237179
2.2750,-2.100744478,17.46057535,1078.263074
2.2800,-2.108437738,17.46248854,1078.289056
2.2850,-2.116157177,17.46445367,1078.31513
2.2900,-2.123901541,17.46644936,1078.341283
2.2950,-2.131675936,17.4684852,1078.367525
2.3000,-2.139462254,17.47058219,1078.393842
2.3050,-2.147299957,17.4727609,1078.420248
2.3100,-2.155182791,17.47496509,1078.446742
2.3150,-2.163102392,17.47726837,1078.473322
2.3200,-2.171092479,17.47962591,1078.499977
2.3250,-2.179149915,17.48206804,1078.526719
2.3300,-2.187263158,17.48458654,1078.553544
2.3350,-2.195437084,17.48722176,1078.58045
2.3400,-2.203599433,17.48998478,1078.607422
2.3450,-2.211761069,17.49287274,1078.634464
2.3500,-2.219933843,17.49590307,1078.661575
2.3550,-2.228103807,17.49911562,1078.68875
2.3600,-2.236229307,17.50254063,1078.716004
2.3650,-2.24429643,17.50613724,1078.743329
2.3700,-2.252295089,17.50990791,1078.770722
2.3750,-2.260221503,17.51391512,1078.79819
2.3800,-2.268061673,17.51815839,1078.825724
2.3850,-2.275816053,17.52261155,1078.853324
2.3900,-2.283515655,17.52728452,1078.880986
2.3950,-2.291179249,17.53212549,1078.908729
2.4000,-2.298767905,17.53718953,1078.93652
2.4050,-2.306272128,17.54245978,1078.964369
2.4100,-2.313688446,17.54801823,1078.992278
2.4150,-2.32101752,17.55383595,1079.020242
2.4200,-2.328238795,17.55987664,1079.048256
2.4250,-2.335412157,17.56621449,1079.076334
2.4300,-2.342473143,17.57277584,1079.104458
2.4350,-2.349425633,17.57958961,1079.132625
2.4400,-2.35631641,17.58662105,1079.160837
2.4450,-2.363101713,17.59384636,1079.189087
2.4500,-2.369832265,17.60128402,1079.217378
2.4550,-2.376496091,17.60885476,1079.245695
2.4600,-2.383090044,17.61662801,1079.274036
2.4650,-2.389662899,17.62460114,1079.302413
2.4700,-2.396206506,17.63274225,1079.330806
2.4750,-2.402785996,17.64105928,1079.359224
2.4800,-2.409358406,17.64954019,1079.387666
2.4850,-2.415939118,17.65823526,1079.416141
2.4900,-2.422534624,17.6671122,1079.444635
2.4950,-2.429162404,17.6761923,1079.47316
2.5000,-2.43584139,17.68547969,1079.501717
2.5050,-2.442543883,17.69494608,1079.5303
2.5100,-2.449323061,17.70464165,1079.558909
2.5150,-2.456158674,17.71455537,1079.58755
2.5200,-2.463060384,17.72464938,1079.616197
2.5250,-2.470047376,17.73488354,1079.644854
2.5300,-2.477090093,17.74530677,1079.673525
2.5350,-2.484223476,17.7558717,1079.702216
2.5400,-2.491418124,17.76655585,1079.730918
2.5450,-2.498671291,17.77734898,1079.75962
2.5500,-2.506006832,17.7881842,1079.788313
2.5550,-2.513425039,17.79905752,1079.817011
2.5600,-2.520923406,17.80999884,1079.845711
2.5650,-2.528464173,17.8209217,1079.874407
2.5700,-2.536047962,17.83180181,1079.903079
2.5750,-2.543635429,17.84260151,1079.931719
2.5800,-2.55131134,17.85330254,1079.96033
2.5850,-2.559063466,17.8638476,1079.988913
2.5900,-2.566909295,17.87424622,1080.01747
2.5950,-2.574868642,17.88451548,1080.046
2.6000,-2.582891871,17.89458769,1080.074474
2.6050,-2.590971234,17.90444706,1080.102893
2.6100,-2.599111656,17.9141569,1080.131262
2.6150,-2.607316644,17.92365398,1080.159578
2.6200,-2.615559015,17.93298197,1080.187843
2.6250,-2.623887358,17.94212357,1080.216053
2.6300,-2.632245506,17.95114663,1080.244196
2.6350,-2.640624216,17.96001596,1080.272281
2.6400,-2.649037407,17.96874871,1080.300307
2.6450,-2.657452599,17.97734037,1080.328261
2.6500,-2.665832728,17.98582214,1080.356148
2.6550,-2.674160984,17.99415101,1080.383969
2.6600,-2.682424966,18.00235753,1080.411714
2.6650,-2.690608344,18.01047604,1080.439376
2.6700,-2.698730737,18.01849913,1080.466953
2.6750,-2.70678527,18.02643541,1080.494452
2.6800,-2.714747705,18.03427981,1080.521872
2.6850,-2.722667383,18.04206572,1080.549216
2.6900,-2.730509815,18.04976931,1080.576484
2.6950,-2.738278256,18.05741412,1080.603655
2.7000,-2.745994971,18.06497221,1080.630743
2.7050,-2.753696748,18.07246902,1080.657766
2.7100,-2.761377503,18.07987285,1080.684707
2.7150,-2.769050315,18.0871569,1080.711558
2.7200,-2.77671458,18.0944015,1080.738338
2.7250,-2.784313435,18.10157167,1080.765041
2.7300,-2.791885714,18.10873103,1080.791674
2.7350,-2.799419103,18.11581776,1080.818228
2.7400,-2.806925708,18.12289759,1080.844727
2.7450,-2.814368819,18.13003291,1080.871159
2.7500,-2.821798719,18.13715119,1080.897538
2.7550,-2.829207312,18.14431661,1080.923862
2.7600,-2.836575839,18.15151588,1080.950144
2.7650,-2.843903234,18.15871426,1080.976361
2.7700,-2.851222845,18.16591709,1081.002539
2.7750,-2.858507512,18.17312841,1081.02867
2.7800,-2.865730591,18.18032825,1081.05475
2.7850,-2.872913618,18.18746077,1081.080777
2.7900,-2.880095478,18.19455591,1081.10676
2.7950,-2.887259153,18.20159277,1081.132685
2.8000,-2.894394647,18.20857374,1081.158557
2.8050,-2.901509664,18.21551569,1081.184385
2.8100,-2.908612508,18.22235305,1081.210156
2.8150,-2.915725335,18.22908423,1081.235862
2.8200,-2.922872136,18.23572473,1081.261521
2.8250,-2.930045926,18.24229793,1081.287146
2.8300,-2.93726611,18.24876782,1081.312728
2.8350,-2.944469604,18.25514094,1081.33825
2.8400,-2.951722032,18.26140152,1081.36372
2.8450,-2.95902579,18.26758507,1081.389147
2.8500,-2.966380427,18.2736927,1081.414536
2.8550,-2.97374996,18.27968323,1081.439867
2.8600,-2.981158559,18.28559248,1081.465149
2.8650,-2.988590955,18.29142142,1081.490376
2.8700,-2.996099958,18.29717968,1081.515571
2.8750,-3.003688356,18.30285633,1081.540716
2.8800,-3.01133146,18.30842451,1081.565803
2.8850,-3.019055824,18.31386764,1081.590834
2.8900,-3.026829245,18.31922603,1081.615795
2.8950,-3.034696082,18.32442831,1081.640685
2.9000,-3.042636671,18.32946393,1081.665526
2.9050,-3.05067373,18.3344077,1081.690321
2.9100,-3.058818983,18.3392301,1081.715059
2.9150,-3.067040644,18.34399876,1081.739748
2.9200,-3.075323514,18.34867769,1081.764379
2.9250,-3.083640482,18.35326985,1081.78893
2.9300,-3.092020589,18.35779077,1081.813429
2.9350,-3.100385359,18.36225137,1081.837843
2.9400,-3.108780201,18.3666673,1081.862186
2.9450,-3.117136173,18.37103226,1081.886441
2.9500,-3.125490217,18.3753423,1081.910606
2.9550,-3.13382726,18.37961413,1081.934672
2.9600,-3.142176509,18.38379314,1081.958627
2.9650,-3.15053049,18.38787938,1081.982479
2.9700,-3.158836059,18.3919193,1082.006216
2.9750,-3.167090692,18.39585487,1082.02982
2.9800,-3.175300794,18.39972976,1082.053298
2.9850,-3.183370385,18.40354874,1082.076621
2.9900,-3.19131378,18.40726577,1082.09979
2.9950,-3.199125849,18.41087478,1082.122811
3.0000,-3.206813469,18.41439781,1082.145684
3.0050,-3.214354257,18.41779202,1082.168378
3.0100,-3.22176382,18.42106227,1082.190912
3.0150,-3.229024917,18.42421099,1082.213299
3.0200,-3.236161913,18.42724791,1082.235525
3.0250,-3.243189516,18.43011167,1082.257595
3.0300,-3.250107446,18.43285063,1082.279531
3.0350,-3.256965882,18.43546714,1082.30135
3.0400,-3.263704042,18.43790677,1082.323022
3.0450,-3.270345913,18.44016427,1082.344572
3.0500,-3.276862213,18.4422706,1082.365988
3.0550,-3.283231086,18.44425951,1082.387291
3.0600,-3.289444477,18.44609859,1082.408472
3.0650,-3.29547146,18.44785367,1082.429539
3.0700,-3.301278435,18.44951425,1082.450484
3.0750,-3.306850734,18.45107889,1082.471298
3.0800,-3.312223935,18.45252601,1082.491987
3.0850,-3.317345204,18.45393156,1082.512546
3.0900,-3.322219932,18.45519749,1082.532945
3.0950,-3.326880672,18.4563034,1082.553187
3.1000,-3.331378869,18.45726517,1082.573276
3.1050,-3.335723487,18.45803244,1082.593188
3.1100,-3.339899448,18.45861948,1082.612924
3.1150,-3.343987087,18.45899368,1082.632487
3.1200,-3.34795096,18.45916868,1082.651858
3.1250,-3.351870057,18.45906151,1082.671022
3.1300,-3.355733187,18.45873272,1082.689991
3.1350,-3.359603492,18.45821683,1082.708775
3.1400,-3.363479708,18.45754769,1082.727383
3.1450,-3.367338701,18.45667917,1082.745777
3.1500,-3.371205386,18.45566947,1082.763986
3.1550,-3.375074242,18.4545751,1082.782011
3.1600,-3.378957771,18.45341624,1082.799857
3.1650,-3.382834382,18.45219126,1082.817518
3.1700,-3.386669648,18.45096166,1082.834999
3.1750,-3.390477654,18.44977916,1082.852329
3.1800,-3.394161444,18.44869918,1082.869496
3.1850,-3.397708264,18.44778481,1082.886498
3.1900,-3.401119762,18.44703332,1082.903346
3.1950,-3.404296827,18.44651131,1082.920032
3.2000,-3.407293461,18.44627378,1082.93657
3.2050,-3.410019086,18.44632904,1082.952938
3.2100,-3.41248615,18.44669096,1082.96915
3.2150,-3.414693061,18.44734344,1082.985198
3.2200,-3.416660237,18.44837882,1083.001108
3.2250,-3.418341088,18.44980307,1083.016871
3.2300,-3.419724185,18.4516051,1083.032472
3.2350,-3.420866,18.45381477,1083.047948
3.2400,-3.421736393,18.45642733,1083.063282
3.2450,-3.422353075,18.45948384,1083.078491
3.2500,-3.422697214,18.46296819,1083.093571
3.2550,-3.422766507,18.46688428,1083.108524
3.2600,-3.422595594,18.47126664,1083.123385
3.2650,-3.422183906,18.47612291,1083.138149
3.2700,-3.421552483,18.48137778,1083.15281
3.2750,-3.420709632,18.48703437,1083.167376
3.2800,-3.419671495,18.4930438,1083.181852
3.2850,-3.418452449,18.49937545,1083.196237
3.2900,-3.417073656,18.50604011,1083.21054
3.2950,-3.415502641,18.51299286,1083.224748
3.3000,-3.4137685,18.52018379,1083.238859
3.3050,-3.411876922,18.52758817,1083.252877
3.3100,-3.409809516,18.53516276,1083.266786
3.3150,-3.407583675,18.54288449,1083.280581
3.3200,-3.405183618,18.55067247,1083.294256
3.3250,-3.402634432,18.55849662,1083.307799
3.3300,-3.399983919,18.56632816,1083.321222
3.3350,-3.397150786,18.57413184,1083.334505
3.3400,-3.394208199,18.58188408,1083.347669
3.3450,-3.391150915,18.58955118,1083.360698
3.3500,-3.387966804,18.5971056,1083.373577
3.3550,-3.384729776,18.60450974,1083.386323
3.3600,-3.381457012,18.61174773,1083.398937
3.3650,-3.378149901,18.61878161,1083.411405
3.3700,-3.37483329,18.62562163,1083.423735
3.3750,-3.3715376,18.63223831,1083.435928
3.3800,-3.368210445,18.63863867,1083.447967
3.3850,-3.364907206,18.64477433,1083.459861
3.3900,-3.361598526,18.65071517,1083.471618
3.3950,-3.358287346,18.65645411,1083.483245
3.4000,-3.354979912,18.66194839,1083.494727
3.4050,-3.351677986,18.66727619,1083.506095
3.4100,-3.348395866,18.67238948,1083.51733
3.4150,-3.345058169,18.67734215,1083.528436
3.4200,-3.341702921,18.68212022,1083.539424
3.4250,-3.338268441,18.68677663,1083.550297
3.4300,-3.334821339,18.69127072,1083.561064
3.4350,-3.331345627,18.69562298,1083.571731
3.4400,-3.327797951,18.69987903,1083.5823
3.4450,-3.324223681,18.70410657,1083.592819
3.4500,-3.320529019,18.70828648,1083.603256
3.4550,-3.316808375,18.71245617,1083.613648
3.4600,-3.313074315,18.71661796,1083.624019
3.4650,-3.309323326,18.72084903,1083.634391
3.4700,-3.30557783,18.72514397,1083.644777
3.4750,-3.301824546,18.7295299,1083.655174
3.4800,-3.298096911,18.73404162,1083.665618
3.4850,-3.294420819,18.7386999,1083.676129
3.4900,-3.290785998,18.74350767,1083.686704
3.4950,-3.287239024,18.74849099,1083.697364
3.5000,-3.283806015,18.75371408,1083.708145
3.5050,-3.280500181,18.75912261,1083.719035
3.5100,-3.277355754,18.76478473,1083.730067
3.5150,-3.274352155,18.77071844,1083.741233
3.5200,-3.271492622,18.77690971,1083.752539
3.5250,-3.268801456,18.78335047,1083.763983
3.5300,-3.266287853,18.79003233,1083.775579
3.5350,-3.263929093,18.79695836,1083.787301
3.5400,-3.261720476,18.80412526,1083.799163
3.5450,-3.259687536,18.81150313,1083.811158
3.5500,-3.25781634,18.8190916,1083.823277
3.5550,-3.256164067,18.82685198,1083.835515
3.5600,-3.254708854,18.83477104,1083.847858
3.5650,-3.253451047,18.84285127,1083.860308
3.5700,-3.252371078,18.85113655,1083.872874
3.5750,-3.251531599,18.85957307,1083.885563
3.5800,-3.25087183,18.86819427,1083.898351
3.5850,-3.250422249,18.87697448,1083.911237
3.5900,-3.250137069,18.88589694,1083.924212
3.5950,-3.250093635,18.89492038,1083.937277
3.6000,-3.250267736,18.90402142,1083.950423
3.6050,-3.250667171,18.9131714,1083.963644
3.6100,-3.251342322,18.92231509,1083.976942
3.6150,-3.252279645,18.93141131,1083.990297
3.6200,-3.25351124,18.94045474,1084.00372
3.6250,-3.25507275,18.94944447,1084.017227
3.6300,-3.256952302,18.95831927,1084.030796
3.6350,-3.259222511,18.96707832,1084.044448
3.6400,-3.261870247,18.97573223,1084.058183
3.6450,-3.264935844,18.98426405,1084.07202
3.6500,-3.268441228,18.99264715,1084.08597
3.6550,-3.272348397,19.00085343,1084.100014
3.6600,-3.276648142,19.0088536,1084.114139
3.6650,-3.281360105,19.01661414,1084.128355
3.6700,-3.286466023,19.02415314,1084.14267
3.6750,-3.291974884,19.03142538,1084.157084
3.6800,-3.297883602,19.03842211,1084.171599
3.6850,-3.304185191,19.04516321,1084.186221
3.6900,-3.310826701,19.05159333,1084.200924
3.6950,-3.317830085,19.05773501,1084.215727
3.7000,-3.325134702,19.06358406,1084.230625
3.7050,-3.332738523,19.06909681,1084.245611
3.7100,-3.340625003,19.0743296,1084.260715
3.7150,-3.348819786,19.07925186,1084.275945
3.7200,-3.357351267,19.08389318,1084.291336
3.7250,-3.366208658,19.0882441,1084.306887
3.7300,-3.375364676,19.09234899,1084.322618
3.7350,-3.384812296,19.09621727,1084.338554
3.7400,-3.394631747,19.09982653,1084.354737
3.7450,-3.404805241,19.1032386,1084.371189
3.7500,-3.415408246,19.10652792,1084.387974
3.7550,-3.426391632,19.10974379,1084.405111
3.7600,-3.437722264,19.11296045,1084.422612
3.7650,-3.449428097,19.11623733,1084.440523
3.7700,-3.461460806,19.11961758,1084.458845
3.7750,-3.473850637,19.12316448,1084.477623
3.7800,-3.486642784,19.12690839,1084.496876
3.7850,-3.499780241,19.13089192,1084.516594
3.7900,-3.513268445,19.13519319,1084.536807
3.7950,-3.527078686,19.13981166,1084.557503
3.8000,-3.541147521,19.14474138,1084.578638
3.8050,-3.555425354,19.15006812,1084.600209
3.8100,-3.569863105,19.15579588,1084.622173
3.8150,-3.584379599,19.16195283,1084.644502
3.8200,-3.598918692,19.16852357,1084.667136
3.8250,-3.613477764,19.17553983,1084.690066
3.8300,-3.627997844,19.18299917,1084.713241
3.8350,-3.642471377,19.19086943,1084.736634
3.8400,-3.656880597,19.19914114,1084.7602
3.8450,-3.671223188,19.20779634,1084.783916
3.8500,-3.685455357,19.216802,1084.807724
3.8550,-3.699497517,19.22616852,1084.83158
3.8600,-3.713317831,19.23591749,1084.855453
3.8650,-3.726901362,19.24595263,1084.879279
3.8700,-3.740206636,19.25625752,1084.903009
3.8750,-3.753177321,19.26682544,1084.926602
3.8800,-3.765885576,19.27755595,1084.950022
3.8850,-3.778312947,19.28841576,1084.973248
3.8900,-3.790519707,19.29938399,1084.996266
3.8950,-3.802442104,19.31039626,1085.019019
3.9000,-3.814103343,19.32140647,1085.041484
3.9050,-3.825501338,19.33239918,1085.063639
3.9100,-3.836665963,19.34329581,1085.08546
3.9150,-3.847640602,19.35402734,1085.106921
3.9200,-3.858388802,19.36457994,1085.12799
3.9250,-3.868926095,19.37485378,1085.148629
3.9300,-3.879270911,19.38483338,1085.168822
3.9350,-3.889423382,19.39444932,1085.188538
3.9400,-3.899402649,19.4036414,1085.207762
3.9450,-3.909230845,19.41237983,1085.226478
3.9500,-3.918874171,19.42061836,1085.244649
3.9550,-3.928359617,19.42836303,1085.262281
3.9600,-3.937724097,19.43561806,1085.279389
3.9650,-3.946918917,19.44237649,1085.295944
3.9700,-3.955941887,19.44858967,1085.311913
3.9750,-3.964761043,19.45427615,1085.327289
3.9800,-3.973429285,19.45943347,1085.342091
3.9850,-3.981939735,19.46401482,1085.356305
3.9900,-3.990337052,19.46807076,1085.36997
3.9950,-3.998584125,19.47160832,1085.383071
4.0000,-4.006715252,19.47464007,1085.395629
4.0050,-4.014727547,19.47717289,1085.407632
4.0100,-4.022608615,19.4792161,1085.419088
4.0150,-4.030375975,19.48079599,1085.430021
4.0200,-4.037977992,19.48191343,1085.440395
4.0250,-4.045481061,19.48261217,1085.450266
4.0300,-4.052865091,19.48293299,1085.459639
4.0350,-4.060116994,19.48288386,1085.468515
4.0400,-4.067228026,19.48252778,1085.476908
4.0450,-4.074190458,19.48187605,1085.484824
4.0500,-4.080976887,19.48088664,1085.492237
4.0550,-4.087603569,19.47964776,1085.499202
4.0600,-4.094087421,19.4781452,1085.505732
4.0650,-4.100428932,19.47642758,1085.51185
4.0700,-4.106620725,19.4745356,1085.517577
4.0750,-4.112657918,19.47247666,1085.52292
4.0800,-4.118497142,19.47030977,1085.527886
4.0850,-4.124159435,19.46803943,1085.532505
4.0900,-4.129626989,19.46567872,1085.536786
4.0950,-4.134909684,19.46328643,1085.540758
4.1000,-4.139989194,19.46088077,1085.544427
4.1050,-4.144891847,19.45848253,1085.547821
4.1100,-4.149594009,19.45606534,1085.550936
4.1150,-4.154132428,19.45364982,1085.553803
4.1200,-4.158548569,19.45126786,1085.556461
4.1250,-4.16279978,19.4488738,1085.558879
4.1300,-4.166941389,19.44652438,1085.561113
4.1350,-4.170918805,19.44422372,1085.563138
4.1400,-4.174758295,19.44196892,1085.56497
4.1450,-4.178441456,19.43976082,1085.566593
4.1500,-4.182019891,19.43756811,1085.568031
4.1550,-4.185478219,19.43542722,1085.569292
4.1600,-4.188837076,19.4332773,1085.570366
4.1650,-4.192091089,19.43115843,1085.571275
4.1700,-4.195272972,19.42904611,1085.572021
4.1750,-4.19835845,19.42695265,1085.572597
4.1800,-4.201334514,19.42492572,1085.573031
4.1850,-4.204223476,19.42295707,1085.573337
4.1900,-4.206978823,19.42107113,1085.573508
4.1950,-4.20959842,19.41930187,1085.573562
4.2000,-4.2121385,19.41758987,1085.573498
4.2050,-4.214589098,19.41594464,1085.573331
4.2100,-4.216944255,19.41436919,1085.573058
4.2150,-4.219194234,19.4128829,1085.572697
4.2200,-4.221403884,19.41137639,1085.572241
4.2250,-4.223553868,19.40990107,1085.571705
4.2300,-4.225695583,19.40842996,1085.571111
4.2350,-4.227796169,19.40697883,1085.570452
4.2400,-4.229892927,19.40552352,1085.569731
4.2450,-4.231966446,19.40404633,1085.568929
4.2500,-4.234040307,19.40259256,1085.568092
4.2550,-4.236118801,19.40112567,1085.5672
4.2600,-4.238213593,19.39964048,1085.566266
4.2650,-4.240333929,19.39812016,1085.565289
4.2700,-4.242517295,19.39656219,1085.564292
4.2750,-4.244739305,19.39498214,1085.563274
4.2800,-4.246991973,19.39339466,1085.562232
4.2850,-4.24929397,19.39176906,1085.561171
4.2900,-4.251622592,19.39012817,1085.560093
4.2950,-4.253959771,19.38845327,1085.558973
4.3000,-4.25631462,19.38676366,1085.557827
4.3050,-4.25864537,19.38507981,1085.556659
4.3100,-4.260973024,19.38338261,1085.555458
4.3150,-4.263306481,19.38167029,1085.554234
4.3200,-4.265624232,19.37997455,1085.553003
4.3250,-4.26789174,19.37830217,1085.551747
4.3300,-4.270154234,19.37660005,1085.55046
4.3350,-4.272400404,19.37489567,1085.549144
4.3400,-4.27462893,19.3731635,1085.547789
4.3450,-4.27682483,19.37141886,1085.546394
4.3500,-4.279041129,19.36966579,1085.544985
4.3550,-4.28128061,19.36787151,1085.543548
4.3600,-4.283544101,19.36603369,1085.542065
4.3650,-4.285857966,19.36415374,1085.540557
4.3700,-4.288207354,19.36221838,1085.539002
4.3750,-4.290609532,19.36021515,1085.537407
4.3800,-4.2930361,19.35812346,1085.535748
4.3850,-4.295497941,19.35597685,1085.53403
4.3900,-4.297977757,19.35374141,1085.532234
4.3950,-4.300494648,19.35141135,1085.530367
4.4000,-4.30302934,19.34898433,1085.528427
4.4050,-4.305623734,19.34644791,1085.526436
4.4100,-4.308266769,19.34382769,1085.524392
4.4150,-4.310968898,19.34108127,1085.522292
4.4200,-4.313707239,19.33821154,1085.520131
4.4250,-4.316468232,19.33527146,1085.517932
4.4300,-4.319222684,19.33219472,1085.51565
4.4350,-4.321988104,19.32902178,1085.513333
4.4400,-4.324748796,19.32575771,1085.510968
4.4450,-4.327495214,19.32240196,1085.508565
4.4500,-4.330203143,19.31903727,1085.506142
4.4550,-4.332936248,19.31561532,1085.503733
4.4600,-4.335676498,19.31214589,1085.501325
4.4650,-4.338422239,19.30869261,1085.498944
4.4700,-4.341181736,19.30521863,1085.496587
4.4750,-4.343984408,19.30171228,1085.494267
4.4800,-4.34678695,19.29820681,1085.491982
4.4850,-4.34959358,19.29469312,1085.489712
4.4900,-4.3524241,19.29116497,1085.487477
4.4950,-4.355281668,19.28761964,1085.485275
4.5000,-4.358136787,19.28408206,1085.483103
4.5050,-4.360990496,19.28053508,1085.480946
4.5100,-4.363837967,19.27698021,1085.478803
4.5150,-4.366659333,19.27343559,1085.476665
4.5200,-4.369447165,19.26992283,1085.474532
4.5250,-4.372248345,19.26637805,1085.472402
4.5300,-4.374986852,19.26281247,1085.470239
4.5350,-4.377707916,19.25918584,1085.468048
4.5400,-4.38038258,19.25552628,1085.465828
4.5450,-4.383009799,19.25181927,1085.463578
4.5500,-4.385611698,19.24803435,1085.461279
4.5550,-4.388162982,19.24420156,1085.458934
4.5600,-4.390639547,19.24030782,1085.456523
4.5650,-4.393070675,19.23639376,1085.454078
4.5700,-4.395430521,19.23242757,1085.451573
4.5750,-4.397741243,19.22840372,1085.448996
4.5800,-4.40000694,19.22429601,1085.446345
4.5850,-4.402191308,19.2201669,1085.443611
4.5900,-4.404303049,19.21597163,1085.440774
4.5950,-4.406361367,19.21171575,1085.437848
4.6000,-4.408335834,19.20741705,1085.434811
4.6050,-4.410230051,19.20306099,1085.431654
4.6100,-4.412080251,19.19865048,1085.428408
4.6150,-4.413811736,19.19418684,1085.425021
4.6200,-4.415454364,19.18968035,1085.421499
4.6250,-4.416997669,19.18507654,1085.417824
4.6300,-4.418401618,19.18038839,1085.413982
4.6350,-4.419698004,19.17562727,1085.409989
4.6400,-4.420851637,19.17080207,1085.405828
4.6450,-4.421901637,19.16587267,1085.401504
4.6500,-4.422831867,19.16082674,1085.396991
4.6550,-4.423656976,19.15565533,1085.392301
4.6600,-4.424396553,19.15030925,1085.387438
4.6650,-4.424992283,19.14481323,1085.382381
4.6700,-4.425505329,19.13916278,1085.377159
4.6750,-4.425894552,19.13336728,1085.371756
4.6800,-4.426221558,19.12740705,1085.366202
4.6850,-4.426445803,19.12127911,1085.360485
4.6900,-4.426592346,19.11500426,1085.354624
4.6950,-4.426642015,19.10858963,1085.348616
4.7000,-4.426626701,19.10203918,1085.34248
4.7050,-4.426514051,19.09535135,1085.336206
4.7100,-4.426296812,19.08855312,1085.329808
4.7150,-4.42602244,19.08165384,1085.323316
4.7200,-4.425675371,19.07466555,1085.316733
4.7250,-4.425268397,19.06759279,1085.310067
4.7300,-4.424793476,19.0604582,1085.303341
4.7350,-4.42426174,19.05327888,1085.296552
4.7400,-4.423652031,19.04603285,1085.2897
4.7450,-4.423006668,19.03880305,1085.282832
4.7500,-4.422281916,19.03154526,1085.275925
4.7550,-4.421469809,19.02432134,1085.268986
4.7600,-4.420557113,19.01715461,1085.262039
4.7650,-4.41956374,19.0100264,1085.255078
4.7700,-4.418493736,19.00298445,1085.248134
4.7750,-4.417300111,18.99605859,1085.241182
4.7800,-4.416011428,18.98922427,1085.234239
4.7850,-4.414637967,18.98253547,1085.227332
4.7900,-4.413175664,18.97595184,1085.220447
4.7950,-4.411653434,18.96952252,1085.213614
4.8000,-4.410033504,18.96326217,1085.206822
4.8050,-4.408339316,18.95717794,1085.200088
4.8100,-4.4065384,18.9512807,1085.19339
4.8150,-4.404664368,18.94552703,1085.186744
4.8200,-4.402718314,18.93994555,1085.180152
4.8250,-4.400658137,18.934605,1085.17361
4.8300,-4.398513493,18.92947627,1085.167122
4.8350,-4.39625475,18.92455956,1085.160677
4.8400,-4.393913168,18.9198658,1085.154282
4.8450,-4.391486984,18.91538652,1085.147925
4.8500,-4.388979228,18.91112588,1085.141609
4.8550,-4.38642924,18.90706786,1085.13535
4.8600,-4.383822113,18.90318765,1085.129123
4.8650,-4.381180486,18.89946926,1085.122913
4.8700,-4.378517754,18.89593403,1085.116745
4.8750,-4.375855479,18.8925611,1085.110618
4.8800,-4.373169232,18.88935125,1085.104528
4.8850,-4.370479083,18.88629445,1085.098465
4.8900,-4.367796695,18.88340704,1085.092448
4.8950,-4.365124536,18.8806639,1085.086464
4.9000,-4.362438911,18.87806201,1085.080497
4.9050,-4.359821644,18.87556891,1085.074572
4.9100,-4.357207587,18.87321271,1085.068656
4.9150,-4.354692073,18.87093782,1085.062772
4.9200,-4.352265856,18.86871351,1085.056905
4.9250,-4.349942915,18.8665834,1085.051081
4.9300,-4.347751818,18.86455033,1085.045302
4.9350,-4.345679419,18.862568,1085.039555
4.9400,-4.343746946,18.86065192,1085.033844
4.9450,-4.34192126,18.85873561,1085.028134
4.9500,-4.34021069,18.85686194,1085.022442
4.9550,-4.338626667,18.85502398,1085.016754
4.9600,-4.337129135,18.85329455,1085.011078
4.9650,-4.335726359,18.85159652,1085.005369
4.9700,-4.334419445,18.84997217,1084.999648
4.9750,-4.333237065,18.84838427,1084.993905
4.9800,-4.332123504,18.84683018,1084.988102
4.9850,-4.331134263,18.84529898,1084.98227
4.9900,-4.330268465,18.84376084,1084.97638
4.9950,-4.329540051,18.84222395,1084.970437
5.0000,-4.328942851,18.84071231,1084.964432
5.0050,-4.328473654,18.83919814,1084.958352
5.0100,-4.328175523,18.83764919,1084.952193
5.0150,-4.327975055,18.83608612,1084.945924
5.0200,-4.327944404,18.83452648,1084.93957
5.0250,-4.328093738,18.83297003,1084.933134
5.0300,-4.328404949,18.83141408,1084.926581
5.0350,-4.328888051,18.82987568,1084.919919
5.0400,-4.329535479,18.82840245,1084.913139
5.0450,-4.330300136,18.82694012,1084.906201
5.0500,-4.3311901,18.82552232,1084.899101
5.0550,-4.332220542,18.82411988,1084.891836
5.0600,-4.333401465,18.8227807,1084.884401
5.0650,-4.33471407,18.82145721,1084.876772
5.0700,-4.336130915,18.82020737,1084.868944
5.0750,-4.337678559,18.81901654,1084.860928
5.0800,-4.339315258,18.81786871,1084.852675
5.0850,-4.341029661,18.81676869,1084.844189
5.0900,-4.342811983,18.81573904,1084.835449
5.0950,-4.344640119,18.81480166,1084.826445
5.1000,-4.346534731,18.81393201,1084.817168
5.1050,-4.348451378,18.81311452,1084.807586
5.1100,-4.350391654,18.81235123,1084.797698
5.1150,-4.352331669,18.81164797,1084.787482
5.1200,-4.354260285,18.81099032,1084.776928
5.1250,-4.356174054,18.81033725,1084.766014
5.1300,-4.358090385,18.8096287,1084.754733
5.1350,-4.359994909,18.80894024,1084.743087
5.1400,-4.361875484,18.80821742,1084.731068
5.1450,-4.36371597,18.80750225,1084.718678
5.1500,-4.365486417,18.80676824,1084.705902
5.1550,-4.367186973,18.80600468,1084.692729
5.1600,-4.368861344,18.80522139,1084.679195
5.1650,-4.370525329,18.80438919,1084.66532
5.1700,-4.372152454,18.80351479,1084.651072
5.1750,-4.37373782,18.80258742,1084.636467
5.1800,-4.375310066,18.8016347,1084.621517
5.1850,-4.376815177,18.80062931,1084.606202
5.1900,-4.378254314,18.79957598,1084.590521
5.1950,-4.379628618,18.79845666,1084.574484
5.2000,-4.380985599,18.79724849,1084.558103
5.2050,-4.38225781,18.79595471,1084.541351
5.2100,-4.383523149,18.79453552,1084.524269
5.2150,-4.38473667,18.79299431,1084.506844
5.2200,-4.385947709,18.79130362,1084.489107
5.2250,-4.387137625,18.78948082,1084.471041
5.2300,-4.388291384,18.78748584,1084.452654
5.2350,-4.389479715,18.78534628,1084.433982
5.2400,-4.390661467,18.78305898,1084.415023
5.2450,-4.391933894,18.78066243,1084.395837
5.2500,-4.39323623,18.77816004,1084.376404
5.2550,-4.394547896,18.77550916,1084.356719
5.2600,-4.395884244,18.77271068,1084.336785
5.2650,-4.397255662,18.7697978,1084.316639
5.2700,-4.398680296,18.76674765,1084.296276
5.2750,-4.400089405,18.76358117,1084.275697
5.2800,-4.40153579,18.76031253,1084.254931
5.2850,-4.402996519,18.75691541,1084.233949
5.2900,-4.404495853,18.75344299,1084.212797
5.2950,-4.405988377,18.74988803,1084.191462
5.3000,-4.407482668,18.74621279,1084.169957
5.3050,-4.408983143,18.74244667,1084.148292
5.3100,-4.410476955,18.738592,1084.126495
5.3150,-4.411960125,18.73464917,1084.104565
5.3200,-4.413347761,18.7305605,1084.082468
5.3250,-4.414630628,18.72633458,1084.060199
5.3300,-4.415776317,18.72198386,1084.037768
5.3350,-4.416759037,18.71749312,1084.015161
5.3400,-4.417569894,18.71278385,1083.992367
5.3450,-4.418185919,18.70789309,1083.969378
5.3500,-4.418626071,18.70277991,1083.946203
5.3550,-4.418815442,18.69746137,1083.922819
5.3600,-4.418734915,18.69188646,1083.899226
5.3650,-4.418381813,18.68616287,1083.875441
5.3700,-4.417782494,18.68019964,1083.851466
5.3750,-4.416896575,18.67400574,1083.827292
5.3800,-4.415708847,18.66761511,1083.80292
5.3850,-4.414183975,18.66104111,1083.778352
5.3900,-4.412321279,18.65428209,1083.753593
5.3950,-4.410103977,18.64730912,1083.728642
5.4000,-4.407499471,18.64016645,1083.703496
5.4050,-4.40450818,18.63283934,1083.678164
5.4100,-4.401159677,18.62536685,1083.652671
5.4150,-4.397473377,18.61774098,1083.627028
5.4200,-4.393424839,18.60997931,1083.601249
5.4250,-4.389016198,18.60209183,1083.575353
5.4300,-4.384263714,18.59414367,1083.549357
5.4350,-4.379202514,18.58607811,1083.523273
5.4400,-4.373883449,18.57794714,1083.497141
5.4450,-4.368353586,18.56971332,1083.47098
5.4500,-4.362652119,18.56142419,1083.444821
5.4550,-4.356788666,18.5530957,1083.418678
5.4600,-4.350766603,18.54472353,1083.39255
5.4650,-4.344584072,18.53632746,1083.366446
5.4700,-4.338264661,18.52790639,1083.340383
5.4750,-4.331861919,18.5194928,1083.314377
5.4800,-4.325404655,18.51101388,1083.288427
5.4850,-4.318961089,18.50247684,1083.262561
5.4900,-4.312566175,18.49383561,1083.236774
5.4950,-4.306267909,18.48515775,1083.211099
5.5000,-4.300105869,18.47640874,1083.185559
5.5050,-4.294130137,18.46759784,1083.160166
5.5100,-4.288330366,18.45874052,1083.134907
5.5150,-4.282750929,18.44986442,1083.109812
5.5200,-4.277366605,18.44099401,1083.084867
5.5250,-4.272178272,18.43210926,1083.060076
5.5300,-4.267196804,18.42325154,1083.035435
5.5350,-4.262388966,18.41442316,1083.01094
5.5400,-4.257797076,18.40562127,1082.986588
5.5450,-4.253370718,18.39683104,1082.962347
5.5500,-4.249197807,18.38808994,1082.93826
5.5550,-4.245288942,18.37941384,1082.914316
5.5600,-4.241662191,18.37083008,1082.890527
5.5650,-4.238325321,18.36233286,1082.86689
5.5700,-4.235232788,18.35393273,1082.843395
5.5750,-4.23244909,18.34563233,1082.82005
5.5800,-4.229967436,18.33746892,1082.796852
5.5850,-4.227790364,18.32945464,1082.773825
5.5900,-4.22586081,18.3215848,1082.75093
5.5950,-4.22418628,18.31385338,1082.728165
5.6000,-4.222753307,18.30631133,1082.705524
5.6050,-4.221536054,18.29896809,1082.683005
5.6100,-4.220487511,18.2917954,1082.660558
5.6150,-4.219589441,18.28481488,1082.638176
5.6200,-4.218856573,18.2780313,1082.615861
5.6250,-4.218262252,18.27143609,1082.593605
5.6300,-4.217829225,18.26499961,1082.571391
5.6350,-4.217509646,18.25871222,1082.549203
5.6400,-4.21732942,18.25261806,1082.527057
5.6450,-4.217240704,18.24666367,1082.504929
5.6500,-4.217185769,18.24083901,1082.48279
5.6550,-4.217187155,18.23513736,1082.460641
5.6600,-4.217191181,18.22959015,1082.438456
5.6650,-4.217149189,18.22410063,1082.416213
5.6700,-4.217036091,18.21872451,1082.39391
5.6750,-4.216821511,18.21346607,1082.371531
5.6800,-4.216498536,18.20835061,1082.349091
5.6850,-4.21605261,18.20333473,1082.326559
5.6900,-4.215483601,18.19836283,1082.303935
5.6950,-4.214793431,18.19342536,1082.281204
5.7000,-4.213978566,18.18848552,1082.258379
5.7050,-4.21311784,18.18353018,1082.235473
5.7100,-4.212202857,18.17853053,1082.212466
5.7150,-4.211200108,18.17346856,1082.189352
5.7200,-4.21016238,18.16833836,1082.166119
5.7250,-4.209110934,18.16316517,1082.142783
5.7300,-4.208057384,18.15790238,1082.119353
5.7350,-4.207018411,18.15257766,1082.095836
5.7400,-4.205933729,18.14719116,1082.072201
5.7450,-4.204805531,18.14180203,1082.04847
5.7500,-4.203640442,18.13638143,1082.024649
5.7550,-4.202431203,18.13091862,1082.000751
5.7600,-4.201110894,18.12546579,1081.976763
5.7650,-4.19968262,18.11997305,1081.952673
5.7700,-4.198157838,18.11448636,1081.928509
5.7750,-4.196476368,18.10896424,1081.904256
5.7800,-4.194639581,18.10348356,1081.87993
5.7850,-4.192628414,18.09803335,1081.855543
5.7900,-4.190441505,18.0926209,1081.831106
5.7950,-4.188039551,18.08723459,1081.80661
5.8000,-4.185377601,18.08190325,1081.782052
5.8050,-4.182445226,18.07659866,1081.757443
5.8100,-4.179246424,18.07134906,1081.732795
5.8150,-4.175783361,18.06611385,1081.708117
5.8200,-4.172088552,18.06088382,1081.683432
5.8250,-4.168232128,18.05565216,1081.658756
5.8300,-4.164226666,18.05036861,1081.63411
5.8350,-4.160062026,18.04500749,1081.609495
5.8400,-4.15576965,18.03955525,1081.584929
5.8450,-4.151374026,18.0340444,1081.560439
5.8500,-4.146885868,18.02838479,1081.536019
5.8550,-4.142324585,18.02260742,1081.511695
5.8600,-4.137719747,18.01667822,1081.487476
5.8650,-4.133070379,18.01056218,1081.463372
5.8700,-4.128419424,18.00429362,1081.4394
5.8750,-4.123763876,17.99788444,1081.415561
5.8800,-4.119116088,17.99131841,1081.391867
5.8850,-4.114481341,17.98459001,1081.368324
5.8900,-4.109892518,17.97772387,1081.344943
5.8950,-4.105333285,17.97071399,1081.321732
5.9000,-4.100838264,17.96354255,1081.298693
5.9050,-4.096398091,17.95622585,1081.275832
5.9100,-4.092036084,17.94878927,1081.253164
5.9150,-4.087755983,17.94122676,1081.230667
5.9200,-4.083542743,17.93356134,1081.208329
5.9250,-4.079376782,17.92578676,1081.186143
5.9300,-4.075257589,17.91795173,1081.164107
5.9350,-4.07121129,17.91003004,1081.142223
5.9400,-4.067164991,17.90206864,1081.120452
5.9450,-4.063152174,17.89412506,1081.0988
5.9500,-4.059185785,17.88623002,1081.077272
5.9550,-4.055236544,17.87836299,1081.055837
5.9600,-4.051322757,17.87053155,1081.034498
5.9650,-4.047426115,17.86276767,1081.013247
5.9700,-4.04356195,17.85506116,1080.99206
5.9750,-4.039727988,17.84745487,1080.970948
5.9800,-4.035939364,17.83987998,1080.949886
5.9850,-4.032174189,17.83234358,1080.928863
5.9900,-4.02834471,17.82494948,1080.907855
5.9950,-4.0244548,17.81764601,1080.886862
6.0000,-4.020509587,17.81050467,1080.865869
6.0050,-4.016430501,17.803541,1080.844848
6.0100,-4.012226336,17.79672172,1080.823809
6.0150,-4.007910617,17.79007511,1080.80275
6.0200,-4.003456004,17.78358542,1080.78167
6.0250,-3.998850939,17.77726102,1080.760552
6.0300,-3.994064579,17.77113305,1080.73938
6.0350,-3.989064437,17.76520534,1080.718147
6.0400,-3.98389485,17.75945192,1080.696857
6.0450,-3.978520742,17.7538469,1080.67548
6.0500,-3.972969223,17.74839883,1080.654007
6.0550,-3.967214086,17.74314346,1080.632445
6.0600,-3.961295548,17.73808381,1080.610794
6.0650,-3.955193177,17.73324682,1080.589063
6.0700,-3.948862013,17.7286068,1080.567211
6.0750,-3.942389271,17.72420433,1080.545259
6.0800,-3.935707539,17.72000646,1080.523179
6.0850,-3.928899224,17.71601955,1080.500979
6.0900,-3.921958561,17.71225158,1080.478664
6.0950,-3.914868594,17.70867649,1080.45621
6.1000,-3.907705606,17.70530361,1080.433631
6.1050,-3.900457336,17.70217149,1080.410941
6.1100,-3.893133474,17.6992398,1080.388129
6.1150,-3.885700793,17.6965287,1080.365194
6.1200,-3.878132308,17.69404005,1080.342144
6.1250,-3.870408617,17.69176376,1080.318972
6.1300,-3.862560881,17.68972153,1080.295699
6.1350,-3.854597214,17.68793243,1080.272311
6.1400,-3.84649633,17.68638398,1080.248825
6.1450,-3.838264641,17.68504941,1080.225242
6.1500,-3.829890654,17.68397545,1080.201563
6.1550,-3.821381336,17.68312191,1080.177798
6.1600,-3.812677133,17.68247421,1080.153939
6.1650,-3.803822696,17.6820695,1080.129989
6.1700,-3.794820046,17.68183836,1080.105963
6.1750,-3.785643837,17.68174961,1080.081863
6.1800,-3.776311634,17.68177638,1080.057707
6.1850,-3.766828127,17.68192902,1080.033482
6.1900,-3.757174571,17.68216349,1080.009208
6.1950,-3.747463459,17.68246728,1079.984903
6.2000,-3.737645071,17.68275314,1079.960565
6.2050,-3.727763738,17.68300364,1079.936196
6.2100,-3.71784329,17.68316423,1079.911812
6.2150,-3.707916298,17.6832402,1079.887421
6.2200,-3.698014922,17.68317931,1079.86304
6.2250,-3.688226834,17.68294416,1079.838673
6.2300,-3.678540471,17.68253103,1079.814315
6.2350,-3.669014177,17.68188974,1079.789977
6.2400,-3.659671043,17.68100056,1079.765671
6.2450,-3.650504315,17.67981013,1079.741398
6.2500,-3.641560752,17.67834911,1079.717169
6.2550,-3.632873623,17.67659112,1079.693009
6.2600,-3.624453657,17.67452786,1079.668908
6.2650,-3.616304905,17.67216838,1079.644875
6.2700,-3.608377345,17.66955524,1079.620909
6.2750,-3.600679047,17.66663553,1079.59698
6.2800,-3.593194211,17.66346234,1079.573106
6.2850,-3.585969377,17.66004106,1079.549293
6.2900,-3.579070836,17.65631195,1079.525551
6.2950,-3.572489055,17.65231765,1079.501864
6.3000,-3.566169577,17.64805244,1079.478219
6.3050,-3.560195418,17.64350609,1079.454631
6.3100,-3.554450081,17.63875205,1079.431071
6.3150,-3.548939187,17.63380075,1079.407523
6.3200,-3.543615265,17.62868095,1079.383985
6.3250,-3.538447229,17.6234061,1079.360458
6.3300,-3.533379226,17.61798169,1079.336918
6.3350,-3.528406301,17.61239833,1079.313361
6.3400,-3.523471814,17.60668956,1079.289779
6.3450,-3.518548084,17.60089735,1079.266179
6.3500,-3.513576518,17.59508229,1079.242553
6.3550,-3.508553259,17.58920085,1079.218864
6.3600,-3.503462845,17.58326912,1079.195112
6.3650,-3.498290835,17.57735111,1079.171285
6.3700,-3.493030227,17.57144942,1079.147395
6.3750,-3.487574278,17.56556419,1079.12342
6.3800,-3.481945041,17.55972676,1079.099371
6.3850,-3.476004294,17.5539781,1079.075218
6.3900,-3.469717634,17.54835206,1079.050955
6.3950,-3.463067624,17.54284365,1079.026606
6.4000,-3.455973131,17.53746758,1079.002166
6.4050,-3.448422123,17.53222419,1078.977624
6.4100,-3.440377757,17.52716945,1078.953014
6.4150,-3.431863635,17.52229723,1078.928312
6.4200,-3.422894316,17.51760895,1078.903528
6.4250,-3.413445954,17.51311385,1078.878671
6.4300,-3.403470059,17.50882532,1078.853726
6.4350,-3.393006634,17.50472641,1078.828727
6.4400,-3.382070953,17.50083157,1078.803665
6.4450,-3.370685229,17.49714024,1078.778558
6.4500,-3.35887165,17.49363918,1078.753425
6.4550,-3.346631954,17.49032136,1078.728268
6.4600,-3.334049427,17.48723113,1078.703117
6.4650,-3.321103938,17.48433239,1078.677973
6.4700,-3.307836848,17.48162869,1078.652842
6.4750,-3.294348269,17.4791318,1078.627753
6.4800,-3.280665712,17.47681328,1078.60271
6.4850,-3.266860515,17.47466208,1078.577736
6.4900,-3.253005284,17.47266525,1078.552853
6.4950,-3.239064619,17.47081406,1078.528051
6.5000,-3.225146179,17.46909167,1078.503346
6.5050,-3.211266091,17.46743644,1078.478753
6.5100,-3.197462216,17.4658683,1078.454271
6.5150,-3.183833622,17.46424563,1078.429924
6.5200,-3.170419662,17.46256363,1078.40572
6.5250,-3.157223526,17.46077799,1078.381667
6.5300,-3.144324611,17.45882999,1078.357786
6.5350,-3.131692182,17.45674242,1078.334075
6.5400,-3.119380451,17.45446559,1078.310547
6.5450,-3.107425737,17.45198415,1078.287205
6.5500,-3.095810155,17.44928633,1078.264048
6.5550,-3.084489084,17.44635082,1078.241056
6.5600,-3.073457186,17.44319151,1078.21823
6.5650,-3.062735862,17.43976055,1078.195564
6.5700,-3.052324738,17.43603425,1078.173049
6.5750,-3.042210552,17.43207013,1078.1507
6.5800,-3.032398141,17.42780991,1078.128493
6.5850,-3.022869434,17.42327405,1078.106411
6.5900,-3.013591657,17.4184978,1078.084452
6.5950,-3.004511315,17.41350894,1078.062591
6.6000,-2.99563386,17.40828978,1078.040836
6.6050,-2.986886976,17.40287916,1078.019169
6.6100,-2.978319709,17.39725809,1077.997596
6.6150,-2.969896683,17.39143503,1077.976109
6.6200,-2.961599817,17.38544944,1077.954703
6.6250,-2.953418229,17.37926502,1077.933365
6.6300,-2.945379142,17.37289287,1077.912116
6.6350,-2.937472047,17.36634257,1077.890946
6.6400,-2.929647263,17.35962471,1077.869857
6.6450,-2.921915114,17.35273528,1077.848842
6.6500,-2.914228985,17.34562471,1077.827882
6.6550,-2.906564373,17.33833981,1077.806988
6.6600,-2.89890306,17.33086578,1077.786165
6.6650,-2.89118976,17.32314692,1077.765392
6.6700,-2.88341893,17.31519865,1077.744668
6.6750,-2.875582606,17.30704761,1077.723999
6.6800,-2.867627753,17.29872331,1077.703377
6.6850,-2.859562858,17.29020669,1077.682812
6.6900,-2.851378001,17.28149034,1077.662292
6.6950,-2.84304087,17.2726352,1077.641798
6.7000,-2.834545639,17.26363189,1077.62133
6.7050,-2.825917905,17.25450415,1077.600902
6.7100,-2.817110438,17.24523901,1077.580475
6.7150,-2.808126026,17.23588003,1077.560073
6.7200,-2.798953336,17.22643749,1077.539678
6.7250,-2.789636069,17.21693398,1077.519291
6.7300,-2.780232793,17.20739115,1077.498928
6.7350,-2.770734667,17.19784206,1077.478577
6.7400,-2.761190777,17.18828327,1077.458251
6.7450,-2.751609123,17.17878784,1077.437945
6.7500,-2.742009487,17.16937342,1077.417666
6.7550,-2.732408236,17.16008355,1077.397411
6.7600,-2.72283048,17.15091018,1077.37719
6.7650,-2.713330666,17.14189502,1077.357014
6.7700,-2.703889471,17.13307275,1077.33689
6.7750,-2.694511107,17.12442832,1077.316816
6.7800,-2.685196674,17.1159857,1077.296792
6.7850,-2.675958924,17.10774185,1077.276829
6.7900,-2.666767535,17.09968931,1077.256918
6.7950,-2.657698135,17.09186549,1077.237083
6.8000,-2.64873208,17.08426242,1077.21732
6.8050,-2.639914415,17.07686724,1077.197629
6.8100,-2.631213126,17.06967232,1077.178012
6.8150,-2.622585594,17.06272374,1077.15846
6.8200,-2.613979862,17.05600107,1077.138958
6.8250,-2.605386267,17.04953205,1077.119502
6.8300,-2.596776043,17.04330755,1077.100094
6.8350,-2.588183794,17.0373312,1077.08074
6.8400,-2.579548469,17.03155401,1077.061422
6.8450,-2.570886662,17.02600615,1077.042157
6.8500,-2.562164598,17.02061895,1077.022935
6.8550,-2.553391612,17.01540267,1077.003769
6.8600,-2.544562615,17.01029691,1076.984663
6.8650,-2.535650402,17.00530696,1076.965621
6.8700,-2.526659145,17.00037626,1076.946654
6.8750,-2.517554903,16.99542918,1076.927758
6.8800,-2.508313667,16.99046707,1076.908942
6.8850,-2.498887827,16.98544238,1076.890211
6.8900,-2.489218573,16.98033963,1076.871557
6.8950,-2.479301811,16.97511264,1076.852993
6.9000,-2.469085575,16.96975867,1076.83451
6.9050,-2.458533759,16.96424089,1076.816107
6.9100,-2.44762707,16.95853371,1076.797787
6.9150,-2.436308462,16.95261105,1076.779547
6.9200,-2.424624827,16.94641001,1076.761394
6.9250,-2.412553284,16.93992415,1076.743329
6.9300,-2.40011659,16.93315908,1076.725356
6.9350,-2.387314467,16.92605646,1076.707477
6.9400,-2.374214043,16.9185833,1076.689705
6.9450,-2.360810496,16.91069091,1076.672038
6.9500,-2.347146458,16.90241062,1076.654498
6.9550,-2.333253413,16.8936646,1076.63709
6.9600,-2.319196044,16.88445857,1076.619828
6.9650,-2.305017142,16.87479195,1076.60273
6.9700,-2.290763284,16.86466378,1076.585814
6.9750,-2.276443395,16.85408204,1076.569087
6.9800,-2.262103106,16.84299999,1076.552554
6.9850,-2.247762974,16.83143777,1076.53623
6.9900,-2.233452534,16.81944014,1076.520128
6.9950,-2.219201188,16.80696001,1076.504264
7.0000,-2.205010233,16.7940566,1076.488628
7.0050,-2.190854927,16.78073533,1076.473218
7.0100,-2.17678216,16.76703081,1076.458052
7.0150,-2.162790126,16.75302013,1076.443129
7.0200,-2.148910416,16.73868413,1076.428449
7.0250,-2.135180304,16.72408987,1076.414024
7.0300,-2.121601541,16.70930972,1076.399848
7.0350,-2.108203541,16.69434688,1076.385922
7.0400,-2.095000164,16.67923942,1076.372239
7.0450,-2.082065112,16.66403694,1076.358815
7.0500,-2.069418069,16.64878571,1076.345645
7.0550,-2.057125588,16.63351096,1076.332729
7.0600,-2.045267915,16.61828615,1076.320081
7.0650,-2.033847367,16.60314501,1076.307689
7.0700,-2.022959075,16.58809167,1076.295567
7.0750,-2.012596592,16.5731576,1076.2837
7.0800,-2.002814912,16.55839538,1076.272099
7.0850,-1.993610808,16.54383656,1076.260745
7.0900,-1.985038893,16.52949535,1076.24964
7.0950,-1.977032907,16.5153527,1076.238768
7.1000,-1.969626246,16.50147803,1076.228129
7.1050,-1.962748841,16.48788273,1076.217695
7.1100,-1.956391111,16.47461326,1076.20746
7.1150,-1.950564901,16.46171614,1076.197428
7.1200,-1.945261423,16.4492134,1076.187593
7.1250,-1.940426426,16.43716362,1076.177947
7.1300,-1.935990349,16.42554822,1076.168462
7.1350,-1.931872656,16.4144294,1076.159126
7.1400,-1.928083025,16.40382033,1076.149946
7.1450,-1.924539074,16.39369717,1076.140892
7.1500,-1.921218853,16.38408845,1076.131961
7.1550,-1.918059806,16.37497713,1076.123134
7.1600,-1.915061716,16.36635741,1076.114413
7.1650,-1.912158973,16.35824003,1076.105781
7.1700,-1.909333059,16.35059124,1076.097238
7.1750,-1.906583262,16.34339704,1076.088779
7.1800,-1.903870583,16.33666267,1076.080398
7.1850,-1.901133944,16.33040348,1076.072082
7.1900,-1.898390532,16.32454209,1076.063834
7.1950,-1.895587563,16.31907359,1076.055646
7.2000,-1.892719006,16.31393788,1076.047515
7.2050,-1.889734194,16.30910751,1076.039436
7.2100,-1.886600234,16.30458264,1076.031402
7.2150,-1.883281051,16.30030305,1076.023411
7.2200,-1.879756332,16.29624936,1076.015458
7.2250,-1.875978497,16.2924215,1076.007535
7.2300,-1.871890097,16.28871857,1075.999628
7.2350,-1.867415203,16.28515824,1075.991721
7.2400,-1.862517104,16.28169553,1075.983805
7.2450,-1.857182985,16.2783432,1075.975881
7.2500,-1.851387335,16.27504666,1075.967939
7.2550,-1.845100342,16.27183097,1075.959972
7.2600,-1.838279897,16.26865562,1075.951963
7.2650,-1.830929846,16.2655318,1075.943912
7.2700,-1.823050084,16.26244742,1075.935813
7.2750,-1.814679675,16.25937292,1075.927676
7.2800,-1.805807141,16.25631338,1075.919498
7.2850,-1.796479899,16.25330205,1075.911283
7.2900,-1.786724019,16.25027263,1075.903038
7.2950,-1.776579402,16.24724903,1075.894772
7.3000,-1.766129926,16.24418265,1075.886506
7.3050,-1.755389181,16.24106764,1075.878238
7.3100,-1.744412335,16.23786868,1075.86998
7.3150,-1.733232667,16.23455641,1075.861745
7.3200,-1.721860717,16.231164,1075.853537
7.3250,-1.710273384,16.22765053,1075.845355
7.3300,-1.698504224,16.22401064,1075.837205
7.3350,-1.686574233,16.22024809,1075.829092
7.3400,-1.674495963,16.21637012,1075.821026
7.3450,-1.662233815,16.21236354,1075.812998
7.3500,-1.649797219,16.20822579,1075.805011
7.3550,-1.637183061,16.20398316,1075.797068
7.3600,-1.624319667,16.1996056,1075.789149
7.3650,-1.611256684,16.19507594,1075.781265
7.3700,-1.597947992,16.19041735,1075.7734
7.3750,-1.584406225,16.18566395,1075.765562
7.3800,-1.57061721,16.18077902,1075.757743
7.3850,-1.556631914,16.17577127,1075.749956
7.3900,-1.542466881,16.17067708,1075.742206
7.3950,-1.528127918,16.16546642,1075.734485
7.4000,-1.513643,16.160184,1075.726809
7.4050,-1.499053059,16.15484188,1075.719188
7.4100,-1.48442163,16.14940873,1075.71163
7.4150,-1.469750775,16.14391287,1075.704139
7.4200,-1.45509595,16.13833659,1075.696723
7.4250,-1.44047146,16.13267192,1075.689384
7.4300,-1.425946192,16.12695225,1075.682139
7.4350,-1.411548514,16.12111647,1075.674991
7.4400,-1.397285937,16.11521618,1075.667938
7.4450,-1.383205146,16.10920732,1075.660991
7.4500,-1.369313858,16.10312517,1075.654157
7.4550,-1.355632445,16.09698451,1075.647437
7.4600,-1.34215706,16.09080726,1075.640831
7.4650,-1.328914819,16.08455548,1075.634344
7.4700,-1.315864514,16.07824879,1075.627963
7.4750,-1.303041224,16.07194147,1075.621703
7.4800,-1.290413742,16.0655793,1075.615547
7.4850,-1.278035635,16.05916056,1075.609513
7.4900,-1.265862025,16.05271635,1075.603589
7.4950,-1.253892131,16.04622775,1075.597774
7.5000,-1.242139731,16.03972727,1075.592073
7.5050,-1.230555214,16.03323747,1075.586471
7.5100,-1.21916105,16.0267169,1075.580978
7.5150,-1.207959068,16.02020021,1075.575587
7.5200,-1.196880396,16.01369546,1075.570285
7.5250,-1.185937761,16.00719742,1075.565076
7.5300,-1.175103588,16.00073419,1075.55995
7.5350,-1.164411252,15.994339,1075.554919
7.5400,-1.153819464,15.98800187,1075.549972
7.5450,-1.14332941,15.98172396,1075.545107
7.5500,-1.132942227,15.97551136,1075.540327
7.5550,-1.122665343,15.96935954,1075.535632
7.5600,-1.112522079,15.96326526,1075.531028
7.5650,-1.10247127,15.9572752,1075.526509
7.5700,-1.092512695,15.95131791,1075.522075
7.5750,-1.08260594,15.94542925,1075.517716
7.5800,-1.072777771,15.93961397,1075.513437
7.5850,-1.062989161,15.93380777,1075.509225
7.5900,-1.053202355,15.92804243,1075.505077
7.5950,-1.043416095,15.92232401,1075.500987
7.6000,-1.033565878,15.91664087,1075.496941
7.6050,-1.023663883,15.91102577,1075.492942
7.6100,-1.013659896,15.90546409,1075.488981
7.6150,-1.003559348,15.89995196,1075.485051
7.6200,-0.9933240985,15.89449537,1075.481145
7.6250,-0.9829689503,15.88908745,1075.477266
7.6300,-0.9724458316,15.88370613,1075.4734
7.6350,-0.9617689841,15.87840499,1075.469551
7.6400,-0.9509350412,15.87314831,1075.465718
7.6450,-0.9399421597,15.86797212,1075.461898
7.6500,-0.9287940117,15.86285439,1075.458091
7.6550,-0.9174989412,15.85779311,1075.454298
7.6600,-0.9060932963,15.85276154,1075.450523
7.6650,-0.8946156328,15.84778717,1075.446779
7.6700,-0.8830890679,15.84285288,1075.44307
7.6750,-0.8715661367,15.83794106,1075.439404
7.6800,-0.8600882077,15.83310024,1075.435793
7.6850,-0.8486366272,15.828299,1075.432232
7.6900,-0.8372692779,15.82351479,1075.428732
7.6950,-0.8260682609,15.81878742,1075.425313
7.7000,-0.8150522814,15.81408074,1075.421973
7.7050,-0.8042705698,15.80944255,1075.418724
7.7100,-0.793736885,15.80486683,1075.415571
7.7150,-0.7834878155,15.80032923,1075.41252
7.7200,-0.7735661035,15.79585067,1075.40958
7.7250,-0.7640108401,15.79143621,1075.406759
7.7300,-0.7548390483,15.7870929,1075.404063
7.7350,-0.7460593747,15.7828447,1075.401491
7.7400,-0.737733,15.77865062,1075.399056
7.7450,-0.7298444883,15.77459672,1075.396757
7.7500,-0.72245383,15.77063545,1075.394603
7.7550,-0.71558857,15.76676867,1075.392602
7.7600,-0.7092222975,15.76299105,1075.39075
7.7650,-0.7033729432,15.75935572,1075.38905
7.7700,-0.6980686744,15.75584033,1075.387507
7.7750,-0.6932704489,15.75242016,1075.386116
7.7800,-0.6889859077,15.74914312,1075.38488
7.7850,-0.685212722,15.74595522,1075.383796
7.7900,-0.6819454227,15.74286799,1075.382865
7.7950,-0.6792112087,15.73993799,1075.382095
7.8000,-0.67694788,15.73713676,1075.381473
7.8050,-0.6752045164,15.7344776,1075.381009
7.8100,-0.673940312,15.7319701,1075.380697
7.8150,-0.6731736264,15.72961775,1075.380542
7.8200,-0.6729018627,15.72743407,1075.380545
7.8250,-0.6730990116,15.72541528,1075.3807
7.8300,-0.6737816623,15.72359536,1075.381013
7.8350,-0.674939305,15.72190617,1075.381479
7.8400,-0.6765751742,15.72040738,1075.382103
7.8450,-0.6786941375,15.71906831,1075.382886
7.8500,-0.6812900851,15.7179222,1075.383828
7.8550,-0.6843112371,15.71695515,1075.384922
7.8600,-0.6877475238,15.71619585,1075.386164
7.8650,-0.6916080641,15.71560807,1075.387559
7.8700,-0.6958458085,15.71526589,1075.389095
7.8750,-0.7004891241,15.71510043,1075.390784
7.8800,-0.7055056257,15.71511873,1075.392617
7.8850,-0.7108899988,15.71537953,1075.394602
7.8900,-0.7166272295,15.71583265,1075.396733
7.8950,-0.7227339954,15.71648172,1075.399018
7.9000,-0.7292008063,15.71734059,1075.401461
7.9050,-0.7360340048,15.71834592,1075.404063
7.9100,-0.7432341248,15.71955998,1075.406825
7.9150,-0.7507413804,15.72092547,1075.409743
7.9200,-0.7585878442,15.72247938,1075.412824
7.9250,-0.7667356955,15.72420476,1075.416063
7.9300,-0.7752158205,15.72611128,1075.419471
7.9350,-0.7839816842,15.72817947,1075.423037
7.9400,-0.7930086042,15.73042807,1075.426762
7.9450,-0.8023158944,15.73282963,1075.430653
7.9500,-0.8118984104,15.73538514,1075.434711
7.9550,-0.8217437926,15.73807916,1075.438939
7.9600,-0.8318618347,15.74094593,1075.443343
7.9650,-0.8422073113,15.74394608,1075.447916
7.9700,-0.8527973351,15.74707197,1075.452664
7.9750,-0.8636374696,15.75032189,1075.457589
7.9800,-0.8747360399,15.75365614,1075.462698
7.9850,-0.8861199028,15.75712068,1075.467996
7.9900,-0.8977597324,15.76070139,1075.473481
7.9950,-0.9096380475,15.76441707,1075.479149
8.0000,-0.9217464474,15.76826614,1075.485009
8.0050,-0.9341022448,15.77218601,1075.491063
8.0100,-0.9467525784,15.77622995,1075.497326
8.0150,-0.9596515422,15.78037754,1075.503787
8.0200,-0.9727925414,15.7846625,1075.510452
8.0250,-0.9862308712,15.78900896,1075.517331
8.0300,-0.9999342441,15.79347898,1075.524421
8.0350,-1.013962096,15.79805105,1075.531741
8.0400,-1.02822646,15.80272383,1075.539276
8.0450,-1.042776694,15.8075015,1075.547038
8.0500,-1.057553002,15.8123741,1075.55502
8.0550,-1.072550314,15.81737108,1075.563221
8.0600,-1.087747067,15.82246693,1075.571639
8.0650,-1.103123505,15.82763888,1075.580276
8.0700,-1.118641091,15.83290436,1075.589125
8.0750,-1.134306766,15.83824138,1075.598192
8.0800,-1.150084422,15.84363591,1075.607476
8.0850,-1.165978569,15.84911204,1075.616981
8.0900,-1.181971275,15.85466851,1075.626708
8.0950,-1.198006306,15.86023622,1075.636654
8.1000,-1.214105758,15.86584755,1075.646824
8.1050,-1.230267499,15.87146551,1075.657222
8.1100,-1.246458449,15.87708672,1075.667845
8.1150,-1.262689738,15.88273512,1075.678695
8.1200,-1.278961369,15.88836751,1075.68978
8.1250,-1.295270948,15.89399648,1075.701102
8.1300,-1.311617469,15.89964044,1075.712666
8.1350,-1.328011797,15.90531513,1075.724475
8.1400,-1.34449286,15.91102275,1075.736538
8.1450,-1.361030856,15.91675718,1075.74885
8.1500,-1.37762223,15.92253156,1075.761413
8.1550,-1.394345795,15.92834275,1075.774242
8.1600,-1.411167066,15.93418762,1075.787332
8.1650,-1.42810706,15.94006694,1075.800693
8.1700,-1.445210534,15.94597691,1075.814328
8.1750,-1.462496543,15.95193759,1075.828243
8.1800,-1.479957165,15.95793786,1075.84243
8.1850,-1.497619087,15.9639682,1075.856896
8.1900,-1.515494436,15.97006527,1075.871644
8.1950,-1.533576162,15.97620822,1075.886673
8.2000,-1.551886093,15.98239744,1075.901981
8.2050,-1.57037453,15.98869318,1075.917559
8.2100,-1.589055944,15.9950481,1075.933407
8.2150,-1.607963542,16.00148018,1075.949526
8.2200,-1.627065719,16.00799382,1075.965914
8.2250,-1.646397138,16.01459936,1075.982572
8.2300,-1.665903812,16.02129502,1075.999489
8.2350,-1.6856355,16.02805921,1076.016673
8.2400,-1.705565084,16.03493901,1076.034114
8.2450,-1.725671937,16.04187916,1076.051798
8.2500,-1.74596343,16.04893555,1076.069724
8.2550,-1.76645157,16.05612273,1076.087893
8.2600,-1.787073331,16.06341269,1076.106283
8.2650,-1.807855946,16.07082393,1076.124899
8.2700,-1.828787416,16.07838554,1076.143731
8.2750,-1.849830399,16.08608079,1076.162767
8.2800,-1.870977764,16.0939399,1076.182006
8.2850,-1.892225625,16.10191633,1076.20144
8.2900,-1.913551526,16.11002105,1076.221066
8.2950,-1.934994368,16.11824785,1076.240885
8.3000,-1.956512138,16.12659533,1076.260886
8.3050,-1.978134895,16.13505794,1076.281069
8.3100,-1.999789279,16.14361398,1076.301416
8.3150,-2.021477613,16.15229296,1076.321927
8.3200,-2.043207806,16.16103939,1076.342601
8.3250,-2.064928831,16.16990367,1076.363431
8.3300,-2.086623541,16.17883263,1076.384408
8.3350,-2.108249258,16.18778096,1076.405516
8.3400,-2.129861312,16.19679677,1076.426769
8.3450,-2.151375908,16.20586977,1076.448142
8.3500,-2.172785562,16.21496312,1076.469626
8.3550,-2.194054251,16.22407771,1076.491217
8.3600,-2.215182483,16.2331998,1076.512914
8.3650,-2.236155677,16.24232764,1076.534703
8.3700,-2.256931168,16.2514894,1076.556574
8.3750,-2.277458727,16.26067491,1076.578507
8.3800,-2.297777829,16.26987956,1076.60051
8.3850,-2.317795429,16.27913948,1076.622561
8.3900,-2.337531076,16.28840698,1076.644656
8.3950,-2.357010524,16.2977652,1076.666782
8.4000,-2.376207689,16.30716168,1076.688942
8.4050,-2.395120236,16.31663635,1076.711133
8.4100,-2.413776738,16.32617422,1076.733353
8.4150,-2.432128058,16.33576092,1076.75559
8.4200,-2.450205342,16.34541371,1076.777847
8.4250,-2.467993707,16.35511647,1076.800109
8.4300,-2.485504863,16.36486337,1076.822384
8.4350,-2.50275497,16.37462785,1076.844669
8.4400,-2.519690269,16.38439986,1076.86695
8.4450,-2.536340843,16.39419275,1076.889233
8.4500,-2.552714052,16.40393694,1076.911517
8.4550,-2.568789086,16.41366218,1076.933805
8.4600,-2.584581586,16.42329149,1076.95609
8.4650,-2.600085718,16.43285251,1076.978361
8.4700,-2.615255182,16.44230265,1077.000614
8.4750,-2.6300665,16.45161933,1077.022838
8.4800,-2.644519887,16.46079047,1077.045034
8.4850,-2.658631623,16.46978996,1077.067193
8.4900,-2.672389378,16.47862062,1077.089321
8.4950,-2.68577807,16.48724984,1077.111399
8.5000,-2.698749551,16.49568999,1077.13342
8.5050,-2.711385501,16.50389073,1077.155398
8.5100,-2.723662985,16.51185261,1077.177329
8.5150,-2.735601948,16.51960086,1077.199214
8.5200,-2.747249746,16.5271007,1077.221051
8.5250,-2.758621807,16.5343786,1077.24284
8.5300,-2.769754925,16.5414144,1077.264583
8.5350,-2.780637479,16.548238,1077.286275
8.5400,-2.791308074,16.55485338,1077.307922
8.5450,-2.80178237,16.56128159,1077.329534
8.5500,-2.812055383,16.56752785,1077.351102
8.5550,-2.822171293,16.57357063,1077.372629
8.5600,-2.832191904,16.57945356,1077.394135
8.5650,-2.842085057,16.58516263,1077.415601
8.5700,-2.851902968,16.59067522,1077.437045
8.5750,-2.861660274,16.59603248,1077.458462
8.5800,-2.871356351,16.60120898,1077.479847
8.5850,-2.881024018,16.60623091,1077.501212
8.5900,-2.890645791,16.61108826,1077.52254
8.5950,-2.900201422,16.61579196,1077.54385
8.6000,-2.909742752,16.62033537,1077.565135
8.6050,-2.919233006,16.62474646,1077.586394
8.6100,-2.928704807,16.62900688,1077.607627
8.6150,-2.938161602,16.63314163,1077.628838
8.6200,-2.947558088,16.6371798,1077.650019
8.6250,-2.956892337,16.64113216,1077.671155
8.6300,-2.966208501,16.64501131,1077.692264
8.6350,-2.975460964,16.64889149,1077.713342
8.6400,-2.984632632,16.65275086,1077.734373
8.6450,-2.993707602,16.65656649,1077.755359
8.6500,-3.002689001,16.66042067,1077.776305
8.6550,-3.011549057,16.66430588,1077.7972
8.6600,-3.020282256,16.66825419,1077.818046
8.6650,-3.028861464,16.67226491,1077.83884
8.6700,-3.037324241,16.67630976,1077.859592
8.6750,-3.045679751,16.68041601,1077.880314
8.6800,-3.053909367,16.684573,1077.900986
8.6850,-3.062010115,16.68879104,1077.921614
8.6900,-3.069942478,16.6930735,1077.942196
8.6950,-3.0777004,16.69739045,1077.962743
8.7000,-3.085259698,16.70177175,1077.983245
8.7050,-3.092620033,16.70619523,1078.003698
8.7100,-3.099796374,16.71067581,1078.024112
8.7150,-3.106726744,16.71523049,1078.044477
8.7200,-3.113420982,16.7198536,1078.064803
8.7250,-3.119944383,16.72455892,1078.085115
8.7300,-3.126219448,16.72934074,1078.105389
8.7350,-3.13224699,16.73422197,1078.125634
8.7400,-3.138057448,16.73922251,1078.145873
8.7450,-3.14365264,16.74431089,1078.166099
8.7500,-3.14903916,16.74953094,1078.18632
8.7550,-3.154197102,16.75485069,1078.206512
8.7600,-3.159158144,16.76033324,1078.226693
8.7650,-3.163923386,16.7659331,1078.24687
8.7700,-3.168546455,16.77168549,1078.267066
8.7750,-3.173042817,16.77758154,1078.287282
8.7800,-3.177399267,16.78360341,1078.30752
8.7850,-3.181624606,16.78974997,1078.327795
8.7900,-3.185762997,16.7960306,1078.348112
8.7950,-3.189838587,16.80242344,1078.368478
8.8000,-3.193882965,16.80891347,1078.388895
8.8050,-3.19788375,16.8155017,1078.409362
8.8100,-3.201864926,16.82218276,1078.429895
8.8150,-3.205872541,16.82891073,1078.450498
8.8200,-3.209873352,16.8356819,1078.471173
8.8250,-3.213897064,16.84248579,1078.491937
8.8300,-3.217929438,16.84932121,1078.512781
8.8350,-3.221998795,16.85615944,1078.533716
8.8400,-3.226132268,16.86298957,1078.554744
8.8450,-3.230331149,16.86983681,1078.57587
8.8500,-3.234595947,16.87670975,1078.597088
8.8550,-3.238922643,16.88358545,1078.618408
8.8600,-3.243332621,16.89046533,1078.63983
8.8650,-3.247815294,16.89734494,1078.661353
8.8700,-3.25239757,16.90427179,1078.68299
8.8750,-3.257096877,16.91122269,1078.704752
8.8800,-3.261922484,16.91819315,1078.726623
8.8850,-3.266799938,16.92519046,1078.748595
8.8900,-3.271789235,16.93222264,1078.770689
8.8950,-3.276927182,16.93924057,1078.792889
8.9000,-3.282149225,16.94624679,1078.815192
8.9050,-3.287410585,16.95328119,1078.83759
8.9100,-3.292716487,16.96033377,1078.860085
8.9150,-3.298084479,16.96736524,1078.882684
8.9200,-3.303555534,16.97438844,1078.905379
8.9250,-3.30907631,16.98140537,1078.928176
8.9300,-3.314660814,16.98838359,1078.951062
8.9350,-3.320328415,16.99530161,1078.974038
8.9400,-3.326019257,17.00219413,1078.9971
8.9450,-3.331755684,17.00904077,1079.020255
8.9500,-3.337544792,17.01582292,1079.043496
8.9550,-3.343386245,17.02257837,1079.066824
8.9600,-3.349294787,17.02928884,1079.090225
8.9650,-3.355255057,17.03591997,1079.113697
8.9700,-3.361230063,17.04252532,1079.137236
8.9750,-3.367213554,17.04909214,1079.160837
8.9800,-3.373205632,17.05562743,1079.184507
8.9850,-3.379206222,17.06212712,1079.208233
8.9900,-3.385269466,17.0686362,1079.232036
8.9950,-3.391345362,17.07511007,1079.255892
9.0000,-3.397457233,17.08155138,1079.27981
9.0050,-3.403557686,17.08797612,1079.303774
9.0100,-3.409646666,17.09438824,1079.327786
9.0150,-3.415807457,17.10079853,1079.351867
9.0200,-3.421997688,17.10717912,1079.376
9.0250,-3.428178908,17.11350952,1079.400171
9.0300,-3.434415236,17.11976803,1079.424394
9.0350,-3.440673394,17.12598737,1079.448662
9.0400,-3.446979017,17.13213296,1079.472958
9.0450,-3.453298481,17.13819349,1079.49728
9.0500,-3.459623171,17.14420579,1079.521626
9.0550,-3.465992687,17.15016178,1079.546011
9.0600,-3.472356328,17.15607946,1079.570421
9.0650,-3.478706121,17.16198835,1079.594865
9.0700,-3.485004023,17.16786984,1079.619318
9.0750,-3.491238138,17.17376658,1079.643773
9.0800,-3.497432387,17.17969309,1079.668249
9.0850,-3.503533431,17.18567196,1079.692731
9.0900,-3.509541616,17.19168341,1079.717203
9.0950,-3.515491799,17.19773946,1079.741689
9.1000,-3.521371881,17.20385807,1079.766192
9.1050,-3.527171709,17.21002663,1079.790701
9.1100,-3.532915081,17.21626658,1079.81523
9.1150,-3.538530129,17.2226126,1079.839758
9.1200,-3.544059382,17.22906324,1079.864299
9.1250,-3.54944475,17.23561137,1079.888839
9.1300,-3.554762348,17.2422768,1079.913407
9.1350,-3.559955266,17.24908507,1079.937971
9.1400,-3.565077439,17.25601793,1079.96255
9.1450,-3.570115585,17.26302531,1079.987126
9.1500,-3.57510436,17.27009701,1080.01171
9.1550,-3.580029807,17.27726923,1080.036292
9.1600,-3.584887038,17.28451006,1080.06086
9.1650,-3.589722752,17.29184904,1080.085437
9.1700,-3.594498276,17.29924879,1080.109984
9.1750,-3.59923136,17.30669208,1080.134504
9.1800,-3.603930419,17.31418838,1080.159007
9.1850,-3.608592147,17.32171984,1080.183477
9.1900,-3.613216023,17.32931825,1080.207911
9.1950,-3.617777491,17.33699993,1080.232307
9.2000,-3.622317379,17.34477928,1080.256677
9.2050,-3.626899613,17.35262089,1080.281025
9.2100,-3.631492829,17.36056447,1080.305362
9.2150,-3.636090086,17.36861908,1080.32967
9.2200,-3.640642485,17.3767734,1080.353946
9.2250,-3.64517257,17.3850539,1080.378198
9.2300,-3.649642946,17.39348933,1080.402422
9.2350,-3.654066954,17.4020725,1080.426628
9.2400,-3.658518375,17.41078189,1080.450824
9.2450,-3.662975697,17.41963174,1080.475006
9.2500,-3.667389534,17.42864728,1080.499159
9.2550,-3.67181243,17.43776449,1080.523302
9.2600,-3.676200426,17.44695794,1080.547423
9.2650,-3.680607722,17.45628003,1080.571529
9.2700,-3.685024611,17.46568759,1080.595614
9.2750,-3.689433959,17.47518859,1080.619663
9.2800,-3.693818643,17.48478511,1080.643676
9.2850,-3.698225939,17.49448923,1080.667668
9.2900,-3.702601237,17.50423604,1080.691599
9.2950,-3.706982667,17.51405942,1080.71549
9.3000,-3.711390712,17.52395616,1080.739348
9.3050,-3.715851101,17.53390057,1080.76318
9.3100,-3.720333579,17.54390463,1080.786974
9.3150,-3.724816665,17.55394425,1080.810717
9.3200,-3.72930897,17.56404081,1080.834414
9.3250,-3.733790507,17.57417973,1080.858059
9.3300,-3.738235011,17.58437685,1080.881647
9.3350,-3.74264869,17.59458265,1080.905178
9.3400,-3.747003411,17.60480809,1080.928651
9.3450,-3.751323294,17.61510143,1080.952092
9.3500,-3.755576826,17.62544907,1080.97548
9.3550,-3.759713985,17.63585393,1080.998823
9.3600,-3.763750558,17.64631681,1081.022119
9.3650,-3.767666523,17.65678777,1081.045366
9.3700,-3.771444973,17.66723909,1081.068536
9.3750,-3.775082513,17.67767798,1081.091655
9.3800,-3.778610948,17.68808572,1081.114714
9.3850,-3.782038038,17.69841302,1081.137704
9.3900,-3.785347339,17.70867482,1081.16064
9.3950,-3.788495185,17.71885793,1081.183487
9.4000,-3.79150413,17.72893459,1081.206249
9.4050,-3.794391322,17.7388989,1081.228935
9.4100,-3.797152221,17.74877202,1081.251528
9.4150,-3.799837977,17.75852129,1081.274067
9.4200,-3.802416739,17.76819523,1081.296525
9.4250,-3.804943687,17.77778135,1081.318906
9.4300,-3.807348594,17.78730537,1081.341199
9.4350,-3.809652796,17.79671714,1081.363417
9.4400,-3.81180439,17.80606942,1081.385535
9.4450,-3.813827013,17.81539213,1081.407575
9.4500,-3.815738314,17.82466147,1081.429529
9.4550,-3.817609827,17.8338547,1081.4514
9.4600,-3.819425837,17.84295249,1081.473192
9.4650,-3.821220451,17.85194217,1081.494895
9.4700,-3.82302227,17.86081687,1081.516535
9.4750,-3.824838095,17.86960222,1081.538104
9.4800,-3.826678716,17.87828698,1081.559595
9.4850,-3.828601613,17.88688345,1081.581031
9.4900,-3.830607458,17.89541272,1081.602411
9.4950,-3.83269628,17.90392072,1081.623737
9.5000,-3.834903974,17.91241527,1081.64501
9.5050,-3.837166735,17.92093037,1081.66622
9.5100,-3.839524256,17.92944282,1081.687352
9.5150,-3.841991484,17.93797749,1081.708427
9.5200,-3.84456715,17.94654828,1081.729443
9.5250,-3.847287741,17.95513862,1081.750412
9.5300,-3.850149238,17.96379041,1081.771325
9.5350,-3.853066115,17.97251549,1081.792156
9.5400,-3.855983762,17.9813165,1081.812899
9.5450,-3.858905767,17.99022036,1081.833561
9.5500,-3.861841013,17.99921387,1081.854148
9.5550,-3.864713154,18.00829976,1081.874626
9.5600,-3.867482062,18.01745811,1081.894986
9.5650,-3.870111196,18.0266756,1081.915223
9.5700,-3.872555815,18.03589146,1081.935312
9.5750,-3.874788427,18.04508959,1081.955248
9.5800,-3.876820873,18.0542017,1081.975007
9.5850,-3.878572781,18.06313181,1081.994563
9.5900,-3.880091896,18.07188865,1082.013925
9.5950,-3.881338437,18.08040854,1082.033076
9.6000,-3.882330641,18.08864395,1082.052006
9.6050,-3.883074139,18.09655767,1082.070717
9.6100,-3.883592421,18.10407617,1082.089209
9.6150,-3.883890243,18.11118172,1082.10748
9.6200,-3.883967284,18.11788525,1082.125538
9.6250,-3.883853122,18.12418227,1082.143399
9.6300,-3.883561201,18.13009777,1082.161076
9.6350,-3.883137199,18.13566401,1082.178586
9.6400,-3.88253896,18.14089589,1082.195941
9.6450,-3.881786501,18.14577907,1082.213131
9.6500,-3.880926029,18.15033058,1082.230192
9.6550,-3.879940921,18.15459067,1082.247137
9.6600,-3.878853761,18.15854339,1082.263971
9.6650,-3.877693111,18.16225564,1082.28072
9.6700,-3.876484514,18.16575245,1082.297421
9.6750,-3.875220221,18.16906076,1082.314068
9.6800,-3.873878758,18.17221673,1082.330675
9.6850,-3.872483811,18.17520801,1082.347263
9.6900,-3.871038132,18.17807241,1082.36383
9.6950,-3.869524675,18.18083075,1082.380386
9.7000,-3.867946652,18.18350084,1082.396938
9.7050,-3.866322846,18.18608193,1082.413508
9.7100,-3.86463067,18.18855681,1082.430088
9.7150,-3.86289443,18.19098341,1082.446679
9.7200,-3.861123676,18.19332133,1082.463306
9.7250,-3.859310647,18.19559151,1082.479963
9.7300,-3.857515918,18.19776617,1082.496669
9.7350,-3.855772731,18.19990839,1082.513448
9.7400,-3.854127399,18.20202986,1082.530318
9.7450,-3.852582344,18.20413603,1082.547289
9.7500,-3.851151549,18.20626884,1082.564378
9.7550,-3.849758215,18.20845721,1082.581577
9.7600,-3.848446912,18.21076675,1082.598901
9.7650,-3.847222964,18.21317127,1082.616354
9.7700,-3.846081674,18.21569163,1082.633936
9.7750,-3.845065472,18.21835591,1082.65167
9.7800,-3.844188915,18.22116548,1082.669557
9.7850,-3.843492459,18.22413636,1082.687598
9.7900,-3.842968133,18.22724946,1082.705797
9.7950,-3.842612684,18.23047828,1082.724134
9.8000,-3.842428323,18.23381729,1082.742606
9.8050,-3.842506778,18.23724571,1082.761229
9.8100,-3.842809528,18.24076451,1082.779996
9.8150,-3.843372513,18.24440637,1082.798907
9.8200,-3.844202239,18.24818848,1082.817964
9.8250,-3.845271961,18.25208459,1082.837121
9.8300,-3.846585152,18.25603051,1082.856399
9.8350,-3.848211833,18.26007677,1082.875798
9.8400,-3.850168184,18.26421025,1082.895319
9.8450,-3.85240908,18.26842732,1082.914938
9.8500,-3.854936196,18.27270923,1082.934636
9.8550,-3.857748754,18.27706851,1082.954416
9.8600,-3.860867652,18.28156362,1082.974289
9.8650,-3.864228707,18.28618557,1082.99422
9.8700,-3.867872944,18.29094682,1083.014213
9.8750,-3.871784737,18.29585838,1083.034256
9.8800,-3.875898535,18.3009428,1083.054334
9.8850,-3.880231485,18.30618106,1083.074439
9.8900,-3.88471048,18.31158998,1083.094541
9.8950,-3.88936768,18.31712283,1083.114624
9.9000,-3.894162972,18.32280216,1083.134684
9.9050,-3.899045268,18.32858842,1083.15467
9.9100,-3.904012027,18.33451246,1083.17458
9.9150,-3.909016905,18.3405519,1083.19439
9.9200,-3.91408766,18.34666182,1083.214075
9.9250,-3.919155748,18.35287038,1083.233629
9.9300,-3.924239969,18.35914071,1083.253031
9.9350,-3.929272103,18.36548266,1083.272258
9.9400,-3.934286889,18.37185368,1083.291291
9.9450,-3.939229533,18.37828457,1083.310134
9.9500,-3.944080931,18.38471453,1083.328741
9.9550,-3.948810602,18.39115313,1083.347099
9.9600,-3.953384123,18.39760942,1083.365196
9.9650,-3.957748731,18.40407011,1083.383005
9.9700,-3.961900691,18.41051838,1083.400514
9.9750,-3.96586317,18.41689179,1083.417715
9.9800,-3.969577983,18.42318986,1083.434592
9.9850,-3.973055588,18.42944011,1083.451136
9.9900,-3.976254434,18.43558406,1083.467329
9.9950,-3.979185975,18.44164322,1083.483185
10.0000,-3.981830305,18.44757807,1083.49869
10.0050,-3.984116887,18.45338954,1083.513802
10.0100,-3.986077034,18.4591133,1083.528546
10.0150,-3.987653478,18.46468143,1083.542892
10.0200,-3.988863909,18.47012431,1083.556848
10.0250,-3.989685677,18.475402,1083.570413
10.0300,-3.99011859,18.48055196,1083.583596
10.0350,-3.990182841,18.48551764,1083.596403
10.0400,-3.98984289,18.49031919,1083.608846
10.0450,-3.989122414,18.49491465,1083.62093
10.0500,-3.988030111,18.49932153,1083.632678
10.0550,-3.986631179,18.50353806,1083.644122
10.0600,-3.984941218,18.50754935,1083.65529
10.0650,-3.982941514,18.51136523,1083.666191
10.0700,-3.980633253,18.51501986,1083.676839
10.0750,-3.978052898,18.51847774,1083.687254
10.0800,-3.975209691,18.52177414,1083.697468
10.0850,-3.972108568,18.52489893,1083.70749
10.0900,-3.968793335,18.52785361,1083.717342
10.0950,-3.965268548,18.53067089,1083.727058
10.1000,-3.961553714,18.53335512,1083.736648
10.1050,-3.95767852,18.53593625,1083.746147
10.1100,-3.953692604,18.53839488,1083.755577
10.1150,-3.949576823,18.54071975,1083.764941
10.1200,-3.945364856,18.54290637,1083.774259
10.1250,-3.941189257,18.54496498,1083.783594
10.1300,-3.9370553,18.54694767,1083.792949
10.1350,-3.93299619,18.54884548,1083.802347
10.1400,-3.929033344,18.55065838,1083.811803
10.1450,-3.9252408,18.55244024,1083.821362
10.1500,-3.921657295,18.55420151,1083.831051
10.1550,-3.918316572,18.55594647,1083.840878
10.1600,-3.915172079,18.55769431,1083.850828
10.1650,-3.912340356,18.55941026,1083.860933
10.1700,-3.909767932,18.56118252,1083.871199
10.1750,-3.907507626,18.56296974,1083.881634
10.1800,-3.905619014,18.56477517,1083.89226
10.1850,-3.904148781,18.56663671,1083.903086
10.1900,-3.903127281,18.56846416,1083.914107
10.1950,-3.902524491,18.57035213,1083.925325
10.2000,-3.902333173,18.57226254,1083.936709
10.2050,-3.902583046,18.57423281,1083.948283
10.2100,-3.903229377,18.57625732,1083.960019
10.2150,-3.904295747,18.57834333,1083.971916
10.2200,-3.905713728,18.58052561,1083.983955
10.2250,-3.907540943,18.58280203,1083.996136
10.2300,-3.909703437,18.58513745,1084.008414
10.2350,-3.912214981,18.58755387,1084.020787
10.2400,-3.91502332,18.59008449,1084.033243
10.2450,-3.918055947,18.59271187,1084.045715
10.2500,-3.921281583,18.59545375,1084.058211
10.2550,-3.924709681,18.59829904,1084.070716
10.2600,-3.928282746,18.60127779,1084.083205
10.2650,-3.932011561,18.60432664,1084.095658
10.2700,-3.935877118,18.60748335,1084.108074
10.2750,-3.939755535,18.6107774,1084.120404
10.2800,-3.943636439,18.61418831,1084.132621
10.2850,-3.947484469,18.6177061,1084.144707
10.2900,-3.951259662,18.62131305,1084.15663
10.2950,-3.95491496,18.62498137,1084.168342
10.3000,-3.958418077,18.62871598,1084.179818
10.3050,-3.961784581,18.6325263,1084.191072
10.3100,-3.964951574,18.63630809,1084.202035
10.3150,-3.96789478,18.64010049,1084.212696
10.3200,-3.970602853,18.64383915,1084.223036
10.3250,-3.973089954,18.6475192,1084.233043
10.3300,-3.975312244,18.65111606,1084.24269
10.3350,-3.977228686,18.65465926,1084.251972
10.3400,-3.978876523,18.65805067,1084.260864
10.3450,-3.980234256,18.6613655,1084.269382
10.3500,-3.981288612,18.66460088,1084.27751
10.3550,-3.982000518,18.66774748,1084.285239
10.3600,-3.982334348,18.67076946,1084.292546
10.3650,-3.982342377,18.67372365,1084.299467
10.3700,-3.98202341,18.67654326,1084.30599
10.3750,-3.981350002,18.67925335,1084.312117
10.3800,-3.980352403,18.68183189,1084.317869
10.3850,-3.979030684,18.68428615,1084.323267
10.3900,-3.977423761,18.68664584,1084.328351
10.3950,-3.975566513,18.68886405,1084.333132
10.4000,-3.973482154,18.69097122,1084.33765
10.4050,-3.971165042,18.69290653,1084.341903
10.4100,-3.96866202,18.69471268,1084.345935
10.4150,-3.965992352,18.69639956,1084.34977
10.4200,-3.963208995,18.697941,1084.353445
10.4250,-3.960249284,18.69940952,1084.356971
10.4300,-3.957175859,18.70075843,1084.360384
10.4350,-3.954027435,18.70198742,1084.363714
10.4400,-3.950834192,18.70316761,1084.366999
10.4450,-3.947585164,18.70421559,1084.370226
10.4500,-3.944293507,18.70517206,1084.373413
10.4550,-3.940985562,18.70604637,1084.376602
10.4600,-3.937760712,18.70680939,1084.379825
10.4650,-3.934581613,18.70752776,1084.383109
10.4700,-3.93152626,18.70813896,1084.386463
10.4750,-3.928578738,18.70869122,1084.389907
10.4800,-3.925727539,18.70916712,1084.393418
10.4850,-3.922985682,18.70957861,1084.397013
10.4900,-3.920357065,18.70997535,1084.400712
10.4950,-3.917889806,18.71036185,1084.404537
10.5000,-3.915563392,18.71070528,1084.408469
10.5050,-3.91339201,18.71102795,1084.412523
10.5100,-3.911351473,18.7112991,1084.416676
10.5150,-3.909468193,18.71157542,1084.420958
10.5200,-3.907750362,18.7118219,1084.425357
10.5250,-3.906164922,18.71201794,1084.429857
10.5300,-3.904758155,18.71225008,1084.434498
10.5350,-3.903490482,18.71251517,1084.43927
10.5400,-3.902363981,18.71275544,1084.444145
10.5450,-3.901457662,18.71304265,1084.449184
10.5500,-3.900764906,18.71337712,1084.454373
10.5550,-3.900247053,18.71378229,1084.45969
10.5600,-3.89996494,18.71424852,1084.465172
10.5650,-3.899890965,18.71480622,1084.4708
10.5700,-3.899973409,18.71549034,1084.476568
10.5750,-3.900242695,18.71628604,1084.48247
10.5800,-3.900687299,18.71720246,1084.488492
10.5850,-3.901278266,18.71824386,1084.494612
10.5900,-3.902045342,18.71941787,1084.500846
10.5950,-3.902975413,18.72071573,1084.50717
10.6000,-3.904063769,18.72211579,1084.513575
10.6050,-3.90525306,18.72363754,1084.520027
10.6100,-3.906580337,18.72528511,1084.526527
10.6150,-3.908063746,18.72698162,1084.533055
10.6200,-3.909669877,18.72876503,1084.539584
10.6250,-3.911391318,18.73065509,1084.546129
10.6300,-3.913208565,18.73260086,1084.552648
10.6350,-3.915115262,18.7346113,1084.559135
10.6400,-3.91704853,18.73672616,1084.565565
10.6450,-3.91904032,18.73888952,1084.571926
10.6500,-3.921026627,18.74109201,1084.578193
10.6550,-3.922988172,18.74333255,1084.584353
10.6600,-3.924930293,18.74563658,1084.590407
10.6650,-3.926843313,18.74798145,1084.596351
10.6700,-3.928737941,18.75036705,1084.60219
10.6750,-3.930605045,18.75276481,1084.607905
10.6800,-3.932447119,18.75516074,1084.613497
10.6850,-3.934295252,18.75758187,1084.618986
10.6900,-3.93609852,18.75995738,1084.62433
10.6950,-3.937895415,18.76227323,1084.629528
10.7000,-3.93969439,18.76450627,1084.63459
10.7050,-3.941476629,18.7667127,1084.639512
10.7100,-3.943211496,18.76886173,1084.644279
10.7150,-3.944951303,18.77091943,1084.648898
10.7200,-3.946698102,18.77287874,1084.653358
10.7250,-3.948459452,18.77468264,1084.657652
10.7300,-3.950219399,18.77642022,1084.661779
10.7350,-3.951990998,18.77805107,1084.665739
10.7400,-3.953748887,18.77953698,1084.669512
10.7450,-3.95549901,18.78096245,1084.673108
10.7500,-3.957213713,18.78229127,1084.676519
10.7550,-3.958894106,18.7835682,1084.679748
10.7600,-3.960520371,18.7848075,1084.682798
10.7650,-3.962098836,18.785968,1084.685651
10.7700,-3.963581647,18.7871461,1084.688324
10.7750,-3.964961977,18.788292,1084.690782
10.7800,-3.96623853,18.78946119,1084.693051
10.7850,-3.967370505,18.79066751,1084.695127
10.7900,-3.968368689,18.79189402,1084.696992
10.7950,-3.969231109,18.79308777,1084.698625
10.8000,-3.969960641,18.79428564,1084.700033
10.8050,-3.970612115,18.79546918,1084.70123
10.8100,-3.971191408,18.79661808,1084.702191
10.8150,-3.971716462,18.79771137,1084.702918
10.8200,-3.972193504,18.79874094,1084.703406
10.8250,-3.972620624,18.79975216,1084.703655
10.8300,-3.97301058,18.80067536,1084.703639
10.8350,-3.973339455,18.80154186,1084.703359
10.8400,-3.973587135,18.8024181,1084.702824
10.8450,-3.973768983,18.80324324,1084.702014
10.8500,-3.973904265,18.80400299,1084.700934
10.8550,-3.974002478,18.80475181,1084.699607
10.8600,-3.974009545,18.80547574,1084.697985
10.8650,-3.973933153,18.80621758,1084.696083
10.8700,-3.973801268,18.80692892,1084.693885
10.8750,-3.973618235,18.8076378,1084.691405
10.8800,-3.973387945,18.80837742,1084.688658
10.8850,-3.973090264,18.80911478,1084.685617
10.8900,-3.97271543,18.8098507,1084.682263
10.8950,-3.972241423,18.81062137,1084.678615
10.9000,-3.971679182,18.81140718,1084.674657
10.9050,-3.971052577,18.81215546,1084.670379
10.9100,-3.970313666,18.81290037,1084.66577
10.9150,-3.969424883,18.81363534,1084.660817
10.9200,-3.968416202,18.81432398,1084.655513
10.9250,-3.967282975,18.81494912,1084.649836
10.9300,-3.966047241,18.81551878,1084.643807
10.9350,-3.96466537,18.81597809,1084.637377
10.9400,-3.963188254,18.81628309,1084.630562
10.9450,-3.961581823,18.81645132,1084.623347
10.9500,-3.959897102,18.81640959,1084.615733
10.9550,-3.958147697,18.81618769,1084.607733
10.9600,-3.956367361,18.81577592,1084.599353
10.9650,-3.954532454,18.81516178,1084.590585
10.9700,-3.952637678,18.81436312,1084.581432
10.9750,-3.950723321,18.81335912,1084.57191
10.9800,-3.948749966,18.8122035,1084.562021
10.9850,-3.946722848,18.8108482,1084.551758
10.9900,-3.944676555,18.80932286,1084.541138
10.9950,-3.942583723,18.80764638,1084.53018
11.0000,-3.940455782,18.80583726,1084.518887
11.0050,-3.938318884,18.80386573,1084.507277
11.0100,-3.936203806,18.80177838,1084.495382
11.0150,-3.934070991,18.79954662,1084.483197
11.0200,-3.931928532,18.79718961,1084.47073
11.0250,-3.929803944,18.79473943,1084.458003
11.0300,-3.927707696,18.79215168,1084.445032
11.0350,-3.925584231,18.78946288,1084.431804
11.0400,-3.923471592,18.78667389,1084.41834
11.0450,-3.921395812,18.7837218,1084.404649
11.0500,-3.919401017,18.78064146,1084.390755
11.0550,-3.917428889,18.77746174,1084.376649
11.0600,-3.915462286,18.77419269,1084.36234
11.0650,-3.91347074,18.77087288,1084.347836
11.0700,-3.911490211,18.76744064,1084.333133
11.0750,-3.909494786,18.76396002,1084.318258
11.0800,-3.907515549,18.76042942,1084.303225
11.0850,-3.905525795,18.75680962,1084.288025
11.0900,-3.90351182,18.75318238,1084.27268
11.0950,-3.901461767,18.74955971,1084.257202
11.1000,-3.899395474,18.74592542,1084.241604
11.1050,-3.897271741,18.74226509,1084.225872
11.1100,-3.895106698,18.73863295,1084.210046
11.1150,-3.892910363,18.73497797,1084.194112
11.1200,-3.890699558,18.73130869,1084.178087
11.1250,-3.888503561,18.72763371,1084.161991
11.1300,-3.886285049,18.72396941,1084.145828
11.1350,-3.884108242,18.72026382,1084.129606
11.1400,-3.882014685,18.71649595,1084.113341
11.1450,-3.879965654,18.71270729,1084.097038
11.1500,-3.877943319,18.70890533,1084.08069
11.1550,-3.875973554,18.70507301,1084.064319
11.1600,-3.874081091,18.7012177,1084.047927
11.1650,-3.872275297,18.69731273,1084.031525
11.1700,-3.870523475,18.69339237,1084.01511
11.1750,-3.86880867,18.68945847,1083.998672
11.1800,-3.867167586,18.68548064,1083.982225
11.1850,-3.865591342,18.68146893,1083.965771
11.1900,-3.864100039,18.67744918,1083.949327
11.1950,-3.862677618,18.67340401,1083.932877
11.2000,-3.861301674,18.66930548,1083.916408
11.2050,-3.859987076,18.66519828,1083.899939
11.2100,-3.858725483,18.66102399,1083.883453
11.2150,-3.857532845,18.65684592,1083.866973
11.2200,-3.856368875,18.65265854,1083.850483
11.2250,-3.855240672,18.64842389,1083.833983
11.2300,-3.854152627,18.64412338,1083.817461
11.2350,-3.853125687,18.63979858,1083.80094
11.2400,-3.852149248,18.63546118,1083.78442
11.2450,-3.851178106,18.6310936,1083.767884
11.2500,-3.850237991,18.62672082,1083.751341
11.2550,-3.849314184,18.62236394,1083.734794
11.2600,-3.848367005,18.61799555,1083.718228
11.2650,-3.847426205,18.6136415,1083.701644
11.2700,-3.846465565,18.60931644,1083.685044
11.2750,-3.845458832,18.60508316,1083.668425
11.2800,-3.844457184,18.60091074,1083.651793
11.2850,-3.84342572,18.59683851,1083.635138
11.2900,-3.842344292,18.59283924,1083.618454
11.2950,-3.841269149,18.58893195,1083.601746
11.3000,-3.840188865,18.58505589,1083.585005
11.3050,-3.839142529,18.58121925,1083.56822
11.3100,-3.838107988,18.57738727,1083.551373
11.3150,-3.83715298,18.57357552,1083.534475
11.3200,-3.836278886,18.56981245,1083.517537
11.3250,-3.835459208,18.56602765,1083.500519
11.3300,-3.834740083,18.56224287,1083.483437
11.3350,-3.83410838,18.55848203,1083.466288
11.3400,-3.833525185,18.55474277,1083.449046
11.3450,-3.832997646,18.55107009,1083.431719
11.3500,-3.832467848,18.54744718,1083.414275
11.3550,-3.831999184,18.54376421,1083.396691
11.3600,-3.831581702,18.5400723,1083.378971
11.3650,-3.831206283,18.53637041,1083.361098
11.3700,-3.830857257,18.53263181,1083.343066
11.3750,-3.830556427,18.52884682,1083.324863
11.3800,-3.830260289,18.52495549,1083.306459
11.3850,-3.829983194,18.52101112,1083.287835
11.3900,-3.829729692,18.51696247,1083.269007
11.3950,-3.829521477,18.51279559,1083.249955
11.4000,-3.829342711,18.50860875,1083.230703
11.4050,-3.829102266,18.50438035,1083.211217
11.4100,-3.828806126,18.50014996,1083.191497
11.4150,-3.828433077,18.49591398,1083.171536
11.4200,-3.827977147,18.49168971,1083.151341
11.4250,-3.827437854,18.48741364,1083.13089
11.4300,-3.826817223,18.48308028,1083.110183
11.4350,-3.826099977,18.47869991,1083.089213
11.4400,-3.825261178,18.47426131,1083.067978
11.4450,-3.824322328,18.46975138,1083.046472
11.4500,-3.823258047,18.46517468,1083.024685
11.4550,-3.822099827,18.46049235,1083.00261
11.4600,-3.820845004,18.45568019,1082.980253
11.4650,-3.819489735,18.45077893,1082.957617
11.4700,-3.818033025,18.44578135,1082.9347
11.4750,-3.816495907,18.44066153,1082.911508
11.4800,-3.814818913,18.43545492,1082.888038
11.4850,-3.812935139,18.43021592,1082.864286
11.4900,-3.810815551,18.42492252,1082.840239
11.4950,-3.808475394,18.41957496,1082.815907
11.5000,-3.805911071,18.41418986,1082.791293
11.5050,-3.803114411,18.40874843,1082.7664
11.5100,-3.800100042,18.40326484,1082.741233
11.5150,-3.796869437,18.39770914,1082.715797
11.5200,-3.793455614,18.39209163,1082.690114
11.5250,-3.789854811,18.38638876,1082.664173
11.5300,-3.786065615,18.38064181,1082.638003
11.5350,-3.782130829,18.37481656,1082.611603
11.5400,-3.778047384,18.36890549,1082.584982
11.5450,-3.77379327,18.36294349,1082.558139
11.5500,-3.769317286,18.35696742,1082.531074
11.5550,-3.764654404,18.35090359,1082.503787
11.5600,-3.75980828,18.34479636,1082.476291
11.5650,-3.754771931,18.33865024,1082.448595
11.5700,-3.749593414,18.33243185,1082.420722
11.5750,-3.744277082,18.32611318,1082.392682
11.5800,-3.738795895,18.31968071,1082.364464
11.5850,-3.733185761,18.31313087,1082.336095
11.5900,-3.727506043,18.30647667,1082.307598
11.5950,-3.721753928,18.29975022,1082.279001
11.6000,-3.715965652,18.29296925,1082.250298
11.6050,-3.710086854,18.28615195,1082.221501
11.6100,-3.704169754,18.27931074,1082.19263
11.6150,-3.698170301,18.27236666,1082.163654
11.6200,-3.692052752,18.265362,1082.13458
11.6250,-3.685860578,18.25829451,1082.105439
11.6300,-3.679542643,18.25113638,1082.076204
11.6350,-3.673189106,18.24387544,1082.046908
11.6400,-3.666812503,18.23647234,1082.017553
11.6450,-3.660413304,18.22892705,1081.988145
11.6500,-3.654044123,18.22126574,1081.958711
11.6550,-3.647687416,18.21354684,1081.929269
11.6600,-3.641407821,18.20574297,1081.899824
11.6650,-3.635187987,18.19785701,1081.870382
11.6700,-3.629090799,18.18997174,1081.840961
11.6750,-3.623083654,18.18208242,1081.811555
11.6800,-3.617179374,18.17426399,1081.782188
11.6850,-3.611365544,18.16650747,1081.752855
11.6900,-3.605666353,18.15879685,1081.723553
11.6950,-3.600016834,18.15120158,1081.694286
11.7000,-3.594411302,18.14364626,1081.66504
11.7050,-3.588870011,18.13619069,1081.635826
11.7100,-3.583362895,18.12879657,1081.606632
11.7150,-3.577882066,18.12147085,1081.577466
11.7200,-3.572396792,18.11422765,1081.548327
11.7250,-3.566899951,18.10707312,1081.519196
11.7300,-3.56141185,18.09999407,1081.490074
11.7350,-3.555885787,18.09299214,1081.460953
11.7400,-3.550360109,18.08606035,1081.43183
11.7450,-3.544824995,18.07917008,1081.402705
11.7500,-3.539253334,18.07235088,1081.373571
11.7550,-3.53365182,18.06555403,1081.344419
11.7600,-3.527963864,18.05883678,1081.315259
11.7650,-3.522157006,18.05218738,1081.286076
11.7700,-3.516246277,18.04557504,1081.256867
11.7750,-3.510190805,18.03904921,1081.227636
11.7800,-3.50394666,18.03259493,1081.198354
11.7850,-3.497562503,18.0262149,1081.169039
11.7900,-3.491041764,18.01986943,1081.139682
11.7950,-3.484355725,18.01359167,1081.1103
11.8000,-3.477497471,18.00735962,1081.08088
11.8050,-3.47044886,18.00118656,1081.051411
11.8100,-3.463240383,17.99511844,1081.021916
11.8150,-3.455842851,17.98913203,1080.992379
11.8200,-3.448233197,17.98318669,1080.962793
11.8250,-3.440381016,17.97735268,1080.933163
11.8300,-3.432268766,17.97155581,1080.903479
11.8350,-3.423925214,17.96580974,1080.873745
11.8400,-3.415358862,17.96010284,1080.843974
11.8450,-3.406625582,17.95438856,1080.814174
11.8500,-3.397738308,17.94864537,1080.784362
11.8550,-3.388667686,17.94287203,1080.754535
11.8600,-3.379427712,17.93705831,1080.724702
11.8650,-3.370015572,17.93117184,1080.694881
11.8700,-3.360427408,17.92521703,1080.665044
11.8750,-3.350677162,17.91916846,1080.635215
11.8800,-3.340779864,17.91303645,1080.6054
11.8850,-3.330745755,17.90678174,1080.575594
11.8900,-3.320581151,17.90044462,1080.545804
11.8950,-3.310253378,17.89395365,1080.516025
11.9000,-3.299783624,17.88734668,1080.486263
11.9050,-3.28923872,17.88057027,1080.456541
11.9100,-3.278566595,17.87364023,1080.426843
11.9150,-3.267818585,17.8666371,1080.397208
11.9200,-3.257053039,17.85951287,1080.36764
11.9250,-3.246268732,17.85233285,1080.338153
11.9300,-3.235476202,17.84509546,1080.30876
11.9350,-3.224659978,17.8377954,1080.279447
11.9400,-3.213894629,17.83045747,1080.250225
11.9450,-3.203200927,17.82305615,1080.221089
11.9500,-3.192615244,17.815623,1080.192059
11.9550,-3.182181198,17.80815091,1080.163126
11.9600,-3.17186426,17.80060852,1080.134288
11.9650,-3.161725453,17.79305056,1080.10555
11.9700,-3.151744684,17.78539934,1080.076904
11.9750,-3.141998801,17.77767904,1080.048364
11.9800,-3.132426098,17.76992697,1080.019924
11.9850,-3.123050233,17.76213242,1079.991594
11.9900,-3.113823294,17.75437855,1079.963375
11.9950,-3.104773925,17.74663404,1079.935256
12.0000,-3.095882744,17.73892747,1079.907231
12.0050,-3.087225934,17.731247,1079.879297
12.0100,-3.0788367,17.7235755,1079.851464
12.0150,-3.070722987,17.71591191,1079.823711
12.0200,-3.06292139,17.70823555,1079.796021
12.0250,-3.05540083,17.70057674,1079.768399
12.0300,-3.048197776,17.69295577,1079.740845
12.0350,-3.04136802,17.68536137,1079.713355
12.0400,-3.034864351,17.6778054,1079.685916
12.0450,-3.028694691,17.67031716,1079.658524
12.0500,-3.022872769,17.66289352,1079.631201
12.0550,-3.017325039,17.65560819,1079.603936
12.0600,-3.012047977,17.64844446,1079.576703
12.0650,-3.007004763,17.64139953,1079.549503
12.0700,-3.002129849,17.63455215,1079.52234
12.0750,-2.997420269,17.62788086,1079.495222
12.0800,-2.992887796,17.62138565,1079.468155
12.0850,-2.988468438,17.61509265,1079.441129
12.0900,-2.98409694,17.60903151,1079.414148
12.0950,-2.979702708,17.60319701,1079.387197
12.1000,-2.975281928,17.59764873,1079.360295
12.1050,-2.970780528,17.59236287,1079.333427
12.1100,-2.9661135,17.58730344,1079.306588
12.1150,-2.9612535,17.58250289,1079.279787
12.1200,-2.956122891,17.57800509,1079.253023
12.1250,-2.950677189,17.57373294,1079.226294
12.1300,-2.944900936,17.56969864,1079.199589
12.1350,-2.938702079,17.56590632,1079.172921
12.1400,-2.932000862,17.56236139,1079.146271
12.1450,-2.924801224,17.55902679,1079.119633
12.1500,-2.917093657,17.55584716,1079.092995
12.1550,-2.908927751,17.55283268,1079.066371
12.1600,-2.900343929,17.54992477,1079.039744
12.1650,-2.89137135,17.54708351,1079.0131
12.1700,-2.88202703,17.5442884,1078.986461
12.1750,-2.87233224,17.54153487,1078.959813
12.1800,-2.862382247,17.53873718,1078.933163
12.1850,-2.852189745,17.53590723,1078.906521
12.1900,-2.841833302,17.53294683,1078.879887
12.1950,-2.831322278,17.52992769,1078.853269
12.2000,-2.820718218,17.52677469,1078.826696
12.2050,-2.810047164,17.52352433,1078.800163
12.2100,-2.799361357,17.52014012,1078.773701
12.2150,-2.788669367,17.51665503,1078.747317
12.2200,-2.777985752,17.51306043,1078.72102
12.2250,-2.767317114,17.50937901,1078.694804
12.2300,-2.756656165,17.5056312,1078.668673
12.2350,-2.745985721,17.50180527,1078.642627
12.2400,-2.735301136,17.4979378,1078.616679
12.2450,-2.724586856,17.49407318,1078.590838
12.2500,-2.713794402,17.4901828,1078.565086
12.2550,-2.702935944,17.48632905,1078.539425
12.2600,-2.69200434,17.48255101,1078.51384
12.2650,-2.680987357,17.47883477,1078.488328
12.2700,-2.669884562,17.47523067,1078.462894
12.2750,-2.658657806,17.47171967,1078.43752
12.2800,-2.647339236,17.46828649,1078.412196
12.2850,-2.635972678,17.46496233,1078.38693
12.2900,-2.624541212,17.46167999,1078.36169
12.2950,-2.613061608,17.45844177,1078.336494
12.3000,-2.601548328,17.45519632,1078.311326
12.3050,-2.590010265,17.45197432,1078.286199
12.3100,-2.578491936,17.44877023,1078.261101
12.3150,-2.567020626,17.44559206,1078.236041
12.3200,-2.555594839,17.44244161,1078.211016
12.3250,-2.544251142,17.43934046,1078.18603
12.3300,-2.532944431,17.43627037,1078.161093
12.3350,-2.52169183,17.43321648,1078.136201
12.3400,-2.510497604,17.43016551,1078.111346
12.3450,-2.499378591,17.42710394,1078.086536
12.3500,-2.488319769,17.42401431,1078.061762
12.3550,-2.477354027,17.42086501,1078.037037
12.3600,-2.466494259,17.41763225,1078.012381
12.3650,-2.455694925,17.41431436,1077.987784
12.3700,-2.444983742,17.41086507,1077.963265
12.3750,-2.434345744,17.40724563,1077.938819
12.3800,-2.42374707,17.40351997,1077.914447
12.3850,-2.413196483,17.39965239,1077.890151
12.3900,-2.402700508,17.39564149,1077.865925
12.3950,-2.392255357,17.39147859,1077.841775
12.4000,-2.38177993,17.38718893,1077.817691
12.4050,-2.371270692,17.38278678,1077.793692
12.4100,-2.360675195,17.37831324,1077.769761
12.4150,-2.349964256,17.3737649,1077.74589
12.4200,-2.339149115,17.3690946,1077.72208
12.4250,-2.328257658,17.36433516,1077.698338
12.4300,-2.317264408,17.35948885,1077.674672
12.4350,-2.306194599,17.35452325,1077.65108
12.4400,-2.295070114,17.3494238,1077.627573
12.4450,-2.283924542,17.3441789,1077.604163
12.4500,-2.272779362,17.33882328,1077.580866
12.4550,-2.26162393,17.33332106,1077.55767
12.4600,-2.250509093,17.32768048,1077.534602
12.4650,-2.239401766,17.32191147,1077.511653
12.4700,-2.228363374,17.31602229,1077.488829
12.4750,-2.217384206,17.31001183,1077.466129
12.4800,-2.206465099,17.30392125,1077.443558
12.4850,-2.195648581,17.29770884,1077.42111
12.4900,-2.184925963,17.29147181,1077.398806
12.4950,-2.17432814,17.28517132,1077.376634
12.5000,-2.163883972,17.27883517,1077.354598
12.5050,-2.153591957,17.27245905,1077.332707
12.5100,-2.143472582,17.26606922,1077.310956
12.5150,-2.133498958,17.25964471,1077.289347
12.5200,-2.123700733,17.25321015,1077.267885
12.5250,-2.114110493,17.24674516,1077.246574
12.5300,-2.104786637,17.24021849,1077.225412
12.5350,-2.095716043,17.23370598,1077.204407
12.5400,-2.086861391,17.22721819,1077.183558
12.5450,-2.078247621,17.22073464,1077.162867
12.5500,-2.069884111,17.21427596,1077.142328
12.5550,-2.061725244,17.20786598,1077.12195
12.5600,-2.053768198,17.20150459,1077.101729
12.5650,-2.046023148,17.19521194,1077.081667
12.5700,-2.038444976,17.1890053,1077.06175
12.5750,-2.031053267,17.18291594,1077.041991
12.5800,-2.02381942,17.17694411,1077.022379
12.5850,-2.016710912,17.17109787,1077.002911
12.5900,-2.009763408,17.16539292,1076.983597
12.5950,-2.002970689,17.15988992,1076.964431
12.6000,-1.996339014,17.15455988,1076.945413
12.6050,-1.989813829,17.14938987,1076.926525
12.6100,-1.983367113,17.14438784,1076.907779
12.6150,-1.976968997,17.13950867,1076.889162
12.6200,-1.970592959,17.13475279,1076.870682
12.6250,-1.964235342,17.13007579,1076.852333
12.6300,-1.957903326,17.12546227,1076.83412
12.6350,-1.95156753,17.12087682,1076.816038
12.6400,-1.945176972,17.11635031,1076.798097
12.6450,-1.938694669,17.11186134,1076.780296
12.6500,-1.932098171,17.10737566,1076.762629
12.6550,-1.925317841,17.10290067,1076.745093
12.6600,-1.918289153,17.09848189,1076.72767
12.6650,-1.9110692,17.09411321,1076.710379
12.6700,-1.903568904,17.08980003,1076.693191
12.6750,-1.89578604,17.08559458,1076.676108
12.6800,-1.887716977,17.08143112,1076.659122
12.6850,-1.879386341,17.07730708,1076.642232
12.6900,-1.870775533,17.0732173,1076.625443
12.6950,-1.861947538,17.06916537,1076.608745
12.7000,-1.852904317,17.06513007,1076.592142
12.7050,-1.843679645,17.06106689,1076.575631
12.7100,-1.834301872,17.05694434,1076.559215
12.7150,-1.824855473,17.05273831,1076.542915
12.7200,-1.815366283,17.04845032,1076.526729
12.7250,-1.80584622,17.04405123,1076.510658
12.7300,-1.796337743,17.03954011,1076.49471
12.7350,-1.786864608,17.03494009,1076.478881
12.7400,-1.77742852,17.03024061,1076.463168
12.7450,-1.768032503,17.02548612,1076.447575
12.7500,-1.758668023,17.02063558,1076.432086
12.7550,-1.749349215,17.01568339,1076.416706
12.7600,-1.74005011,17.01065218,1076.401436
12.7650,-1.7308121,17.00551209,1076.386277
12.7700,-1.721631842,17.00025937,1076.371231
12.7750,-1.712521993,16.99490815,1076.3563
12.7800,-1.70349755,16.9894405,1076.341488
12.7850,-1.694560036,16.98387078,1076.326798
12.7900,-1.685691718,16.97817567,1076.312231
12.7950,-1.676920822,16.97234276,1076.29779
12.8000,-1.668199095,16.966412,1076.283475
12.8050,-1.659501916,16.96040202,1076.269285
12.8100,-1.650814986,16.95431434,1076.255213
12.8150,-1.642162593,16.94815514,1076.241264
12.8200,-1.6334812,16.94194856,1076.227426
12.8250,-1.624758937,16.9356944,1076.213697
12.8300,-1.615975987,16.92942292,1076.200072
12.8350,-1.60713821,16.92305983,1076.186547
12.8400,-1.598291868,16.91662732,1076.173127
12.8450,-1.589408466,16.91011053,1076.159798
12.8500,-1.580489723,16.90352909,1076.146568
12.8550,-1.571563227,16.8968345,1076.13343
12.8600,-1.562657259,16.89002949,1076.120398
12.8650,-1.553756514,16.88308111,1076.107468
12.8700,-1.544846577,16.87595759,1076.094637
12.8750,-1.535964376,16.8686463,1076.081918
12.8800,-1.527127936,16.86116598,1076.069322
12.8850,-1.518312805,16.85348087,1076.056844
12.8900,-1.509493958,16.84564509,1076.044481
12.8950,-1.500696498,16.8376043,1076.032244
12.9000,-1.491884621,16.82940103,1076.02012
12.9050,-1.483080057,16.82099765,1076.008116
12.9100,-1.474272,16.81241936,1075.996228
12.9150,-1.465472916,16.80370125,1075.984467
12.9200,-1.456720129,16.79481486,1075.97283
12.9250,-1.447983966,16.78577743,1075.961322
12.9300,-1.439217139,16.77658899,1075.949926
12.9350,-1.430428442,16.76727431,1075.938642
12.9400,-1.421627425,16.75784422,1075.927478
12.9450,-1.412761188,16.74829812,1075.916419
12.9500,-1.403802562,16.73864588,1075.905463
12.9550,-1.394768749,16.72888592,1075.89461
12.9600,-1.385642234,16.71896167,1075.883857
12.9650,-1.376380044,16.7089174,1075.873197
12.9700,-1.366989862,16.69873001,1075.862631
12.9750,-1.357442043,16.68838116,1075.852146
12.9800,-1.34774383,16.67790059,1075.841754
12.9850,-1.337861641,16.66725648,1075.831443
12.9900,-1.327780718,16.65651101,1075.821217
12.9950,-1.31747192,16.6455971,1075.811071
13.0000,-1.306977695,16.634537,1075.801011
13.0050,-1.296274258,16.6233253,1075.791033
13.0100,-1.285410478,16.61197333,1075.781149
13.0150,-1.274310943,16.60044311,1075.77134
13.0200,-1.263010144,16.58873628,1075.761616
13.0250,-1.251484566,16.57689547,1075.751971
13.0300,-1.23975082,16.56495148,1075.742412
13.0350,-1.227773905,16.5528649,1075.732936
13.0400,-1.21560866,16.54062284,1075.723552
13.0450,-1.203233899,16.5282308,1075.714257
13.0500,-1.190693329,16.51571476,1075.70506
13.0550,-1.177965105,16.50308704,1075.695955
13.0600,-1.165045608,16.49035477,1075.686943
13.0650,-1.151961008,16.47753849,1075.678029
13.0700,-1.138695,16.46464073,1075.669206
13.0750,-1.125274061,16.45167879,1075.660481
13.0800,-1.111698126,16.43867809,1075.651852
13.0850,-1.097961153,16.42564384,1075.643319
13.0900,-1.084046357,16.41257331,1075.634865
13.0950,-1.070005041,16.39947122,1075.626503
13.1000,-1.055855534,16.38633851,1075.618233
13.1050,-1.0416153,16.37318482,1075.61005
13.1100,-1.027336704,16.36004294,1075.60197
13.1150,-1.013027794,16.34691596,1075.593987
13.1200,-0.9987667523,16.33382383,1075.586116
13.1250,-0.9845456901,16.32074248,1075.578352
13.1300,-0.9703711705,16.30772595,1075.570695
13.1350,-0.9562955365,16.29480764,1075.563156
13.1400,-0.9423317757,16.28195849,1075.555731
13.1450,-0.9285075595,16.26921517,1075.548426
13.1500,-0.914849128,16.25658181,1075.541242
13.1550,-0.9013436107,16.24405042,1075.534177
13.1600,-0.8880134321,16.23165416,1075.527232
13.1650,-0.8748825488,16.21937518,1075.520414
13.1700,-0.8619824539,16.2072627,1075.513721
13.1750,-0.8492931344,16.19535652,1075.50715
13.1800,-0.8368631111,16.18363025,1075.500706
13.1850,-0.8247112185,16.17215241,1075.494393
13.1900,-0.8128411847,16.16091304,1075.488212
13.1950,-0.8011858976,16.14990812,1075.482144
13.2000,-0.7898266133,16.13918383,1075.476212
13.2050,-0.7787673493,16.1287543,1075.470414
13.2100,-0.7680021399,16.11859131,1075.464745
13.2150,-0.7574832308,16.10871043,1075.459197
13.2200,-0.7472251616,16.09911553,1075.453776
13.2250,-0.7372021255,16.08979118,1075.448471
13.2300,-0.7274070437,16.08077519,1075.443286
13.2350,-0.7178379822,16.07207106,1075.438224
13.2400,-0.7084983202,16.06365046,1075.433281
13.2450,-0.6993433556,16.05546944,1075.428448
13.2500,-0.6903905112,16.04755068,1075.423729
13.2550,-0.6815766241,16.03988784,1075.419111
13.2600,-0.6728664582,16.03253418,1075.414593
13.2650,-0.6642376999,16.02539089,1075.410169
13.2700,-0.6556851452,16.01848216,1075.405838
13.2750,-0.6471305134,16.01184375,1075.401593
13.2800,-0.6385356686,16.00539077,1075.397422
13.2850,-0.6298747662,15.9991559,1075.393324
13.2900,-0.621105029,15.99308376,1075.389287
13.2950,-0.6122044389,15.98721177,1075.385308
13.3000,-0.6031261961,15.98149361,1075.381381
13.3050,-0.5938847695,15.9759114,1075.377508
13.3100,-0.5844647085,15.97046201,1075.37369
13.3150,-0.5748933085,15.96514683,1075.369929
13.3200,-0.5651465099,15.9599441,1075.366221
13.3250,-0.5552743088,15.9548531,1075.36258
13.3300,-0.5453081464,15.94983429,1075.359008
13.3350,-0.5352703611,15.94484745,1075.355506
13.3400,-0.5252206191,15.93994072,1075.352085
13.3450,-0.5151878199,15.93508529,1075.348747
13.3500,-0.5052056554,15.93023082,1075.345498
13.3550,-0.4953367904,15.92544194,1075.342346
13.3600,-0.4856552733,15.92065672,1075.339303
13.3650,-0.4761909672,15.91594132,1075.336371
13.3700,-0.4670065739,15.91125964,1075.333558
13.3750,-0.458095438,15.90659789,1075.330859
13.3800,-0.4494899131,15.90197819,1075.328273
13.3850,-0.4412502384,15.89743663,1075.325813
13.3900,-0.4333907198,15.89300156,1075.323481
13.3950,-0.4258927524,15.88867211,1075.321271
13.4000,-0.4187473715,15.88443998,1075.319174
13.4050,-0.4119525299,15.88033239,1075.317192
13.4100,-0.405479874,15.87636993,1075.315315
13.4150,-0.3993322527,15.87254757,1075.313543
13.4200,-0.3934620079,15.86885958,1075.311863
13.4250,-0.3878315112,15.86535207,1075.310269
13.4300,-0.3824137454,15.86201607,1075.308753
13.4350,-0.3771835936,15.85886263,1075.30731
13.4400,-0.3720949884,15.85592125,1075.30593
13.4450,-0.3671271632,15.85318582,1075.304609
13.4500,-0.362243868,15.85065098,1075.303337
13.4550,-0.3574613133,15.84833868,1075.302116
13.4600,-0.3527571539,15.84626423,1075.300946
13.4650,-0.3481403211,15.84443217,1075.299825
13.4700,-0.3436364836,15.84282407,1075.298759
13.4750,-0.3392527253,15.84142131,1075.297748
13.4800,-0.3349922225,15.84024287,1075.296791
13.4850,-0.3309051351,15.83927917,1075.295896
13.4900,-0.3270531992,15.83849414,1075.295075
13.4950,-0.3234713361,15.83790866,1075.294336
13.5000,-0.3202000365,15.83751045,1075.293685
13.5050,-0.3172509244,15.83727556,1075.293126
13.5100,-0.3147255286,15.83724874,1075.29268
13.5150,-0.3126379459,15.83739207,1075.292346
13.5200,-0.3109851292,15.83769919,1075.292125
13.5250,-0.3098280009,15.83817264,1075.292027
13.5300,-0.309207374,15.83879319,1075.292063
13.5350,-0.3090728322,15.83951974,1075.292222
13.5400,-0.3094178093,15.84037324,1075.292504
13.5450,-0.310295836,15.84139048,1075.292924
13.5500,-0.3116490711,15.84255834,1075.293469
13.5550,-0.3134580294,15.8438551,1075.294137
13.5600,-0.3157281041,15.84528526,1075.294931
13.5650,-0.318402986,15.84686223,1075.295841
13.5700,-0.3214497034,15.84857313,1075.296864
13.5750,-0.3248914868,15.85039535,1075.298004
13.5800,-0.3287176326,15.85232749,1075.299264
13.5850,-0.3328759682,15.85436507,1075.300633
13.5900,-0.3374101756,15.85655919,1075.302125
13.5950,-0.3422885766,15.85887683,1075.303736
13.6000,-0.3475308696,15.86130715,1075.305472
13.6050,-0.3530744493,15.86387926,1075.307327
13.6100,-0.3589305251,15.86658112,1075.309301
13.6150,-0.3650785616,15.86944418,1075.311396
13.6200,-0.3714949628,15.87246133,1075.313609
13.6250,-0.3781923233,15.87560565,1075.315944
13.6300,-0.3851005021,15.87889073,1075.318393
13.6350,-0.3923004997,15.88232274,1075.320976
